miniblock.thisRepN,miniblock.thisTrialN,miniblock.thisN,miniblock.thisIndex,day.thisRepN,day.thisTrialN,day.thisN,day.thisIndex,forest.started,fixation_forest.started,fixation_forest.stopped,key_resp.keys,key_resp.rt,key_resp.started,Subject_ID,weather_left.started,weather_left.stopped,weather_right.started,weather_right.stopped,foraging T/F,in_LP,p/r heuristic,good_weather.T/F,p_succ_correct,p_succ_uncorrected,r_threat,n_oponents,gain_if_succ,weather_entropy,OP_value_difference,action_outcome,forest_side_L=0_R=1,out_LP,fixation_day.started,fixation_day.stopped,participant,session,date,expName,psychopyVersion,frameRate,foraging T/F NaNs,fora_NR,forest_mean_p,mvt_cutoff_p,forest_mean_ev,mvt_cutoff_ev,mvt_policy_eg,mvt_policy_p,fora_response,logRT,optimal policy,$\mathit{p}$ success cor + cap,$\mathit{p}$ success cor,$\mathit{p}$ success,risk threat encounter,expected gain naive,expected gain correct,expected state no bounds,expected state with bounds,weather type,gain magnitude,win stay lose shift,continuous energy state,binary energy state,$\mathit{p}$ success based MVT,expected gain based MVT
0.0,0.0,0.0,0.0,0.0,0.0,0.0,0.0,23.513005500019062,27.02807220001705,None,right,1.6572953999857418,29.90923230000772,pz19,29.90923230000772,None,23.513005500019062,27.02807220001705,False,4.0,['r'],True,0.2040816326530612,0.2857142857142857,0.2857142857142857,2.0,2.0,0.9335459102197724,-0.0038600655291852,wait_cost,0.0,3.0,,,pz19,1,2023-04-20_11h51.13.410,threat_forest,2021.2.3,60.04282253858096,False,17.0,0.26785714285714285,0.26785714285714285,-1.2346938775510203,-1.2346938775510203,0,0,0,0.5051869965360404,-0.0038600655291852,0.2040816326530612,0.2040816326530612,0.2857142857142857,0.7142857142857143,-1.7142857142857144,-1.4693877551020407,2.5306122448979593,2.5306122448979593,1.0,2.0,,4.0,0,0,0
0.0,0.0,0.0,0.0,1.0,0.0,1.0,0.0,,,,left,2.048105599998962,36.58613410001272,pz19,31.590820800018264,33.60519520001253,36.58613410001272,None,False,3.0,['r'],False,0.25,0.25,0.0,0.0,2.0,0.5118595071429148,0.0631612346701049,wait_cost,1.0,2.0,33.60519520001253,None,pz19,1,2023-04-20_11h51.13.410,threat_forest,2021.2.3,60.04282253858096,False,17.0,0.26785714285714285,0.26785714285714285,-1.2346938775510203,-1.2346938775510203,1,0,0,0.7169152683474546,0.0631612346701049,0.25,0.25,0.25,1.0,-1.0,-1.0,2.0,2.0,0.0,2.0,-1.0,3.0,0,0,1
0.0,0.0,0.0,0.0,2.0,0.0,2.0,0.0,,,,left,1.6293862000165973,43.76320380001562,pz19,31.590820800018264,33.60519520001253,43.76320380001562,None,False,2.0,['r'],False,0.25,0.25,0.0,0.0,2.0,0.5118595071429148,0.0158460129548487,wait_cost,1.0,1.0,40.665739300020505,None,pz19,1,2023-04-20_11h51.13.410,threat_forest,2021.2.3,60.04282253858096,False,17.0,0.26785714285714285,0.26785714285714285,-1.2346938775510203,-1.2346938775510203,1,0,0,0.48820337949349507,0.0158460129548487,0.25,0.25,0.25,1.0,-1.0,-1.0,1.0,1.0,0.0,2.0,-1.0,2.0,0,0,1
0.0,0.0,0.0,0.0,3.0,0.0,3.0,0.0,,,,left,0.6949407000211067,48.97760100002051,pz19,48.97760100002051,None,45.41113250001217,47.42576110002119,True,1.0,['r'],True,0.2040816326530612,0.2857142857142857,0.2857142857142857,2.0,2.0,0.9335459102197724,0.0755305506209147,figh_cost,0.0,0.0,47.42576110002119,None,pz19,1,2023-04-20_11h51.13.410,threat_forest,2021.2.3,60.04282253858096,True,17.0,0.26785714285714285,0.26785714285714285,-1.2346938775510203,-1.2346938775510203,0,0,1,-0.36392876076825753,0.0755305506209147,1.0,0.2040816326530612,0.2857142857142857,0.7142857142857143,-1.7142857142857144,-1.4693877551020407,-0.46938775510204067,0.0,1.0,2.0,-1.0,1.0,1,0,0
1.0,0.0,1.0,0.0,0.0,0.0,0.0,0.0,54.17743300000439,57.68266510000103,None,left,2.589979100011988,59.91475870000431,pz19,59.91475870000431,None,54.17743300000439,57.68266510000103,True,5.0,['r'],True,0.3333333333333333,0.3333333333333333,0.0,0.0,1.0,0.5793801642856949,0.0360091124884982,unsucc_cost,0.0,3.0,,,pz19,1,2023-04-20_11h51.13.410,threat_forest,2021.2.3,60.04282253858096,True,66.0,0.5,0.3839285714285714,-1.5,-1.3673469387755102,1,0,1,0.9516498061854469,0.0360091124884982,0.3333333333333333,0.3333333333333333,0.3333333333333333,1.0,-1.0000000000000002,-1.0000000000000002,4.0,4.0,1.0,1.0,-1.0,5.0,0,0,1
1.0,0.0,1.0,0.0,1.0,0.0,1.0,0.0,,,,right,2.006828099983977,65.27620170000591,pz19,65.27620170000591,None,54.17743300000439,57.68266510000103,False,3.0,['r'],True,0.3333333333333333,0.3333333333333333,0.0,0.0,1.0,0.5793801642856949,0.0403131826957271,wait_cost,0.0,2.0,64.54309170000488,None,pz19,1,2023-04-20_11h51.13.410,threat_forest,2021.2.3,60.04282253858096,False,66.0,0.5,0.3839285714285714,-1.5,-1.3673469387755102,1,0,0,0.6965554159138118,0.0403131826957271,0.3333333333333333,0.3333333333333333,0.3333333333333333,1.0,-1.0000000000000002,-1.0000000000000002,1.9999999999999998,1.9999999999999998,1.0,1.0,-1.0,3.0,0,0,1
1.0,0.0,1.0,0.0,2.0,0.0,2.0,0.0,,,,None,,73.11858579999534,pz19,67.30754320000415,69.32191410000087,73.11858579999534,None,False,2.0,['r'],False,0.2222222222222222,0.6666666666666666,0.6666666666666666,2.0,1.0,0.77250688571426,0.0048344383478128,wait_cost,1.0,1.0,69.32191410000087,None,pz19,1,2023-04-20_11h51.13.410,threat_forest,2021.2.3,60.04282253858096,None,66.0,0.5,0.3839285714285714,-1.5,-1.3673469387755102,0,0,0,,0.0048344383478128,0.2222222222222222,0.2222222222222222,0.6666666666666666,0.33333333333333337,-2.0,-2.0,0.0,0.0,0.0,1.0,-1.0,2.0,0,0,0
1.0,0.0,1.0,0.0,3.0,0.0,3.0,0.0,,,,right,2.335677900002338,80.87793829999282,pz19,67.30754320000415,69.32191410000087,80.87793829999282,None,True,1.0,['r'],False,0.2222222222222222,0.6666666666666666,0.6666666666666666,2.0,1.0,0.77250688571426,0.0254343850022862,figh_cost,1.0,0.0,78.1468898000021,None,pz19,1,2023-04-20_11h51.13.410,threat_forest,2021.2.3,60.04282253858096,True,66.0,0.5,0.3839285714285714,-1.5,-1.3673469387755102,0,0,1,0.8483021701859607,0.0254343850022862,1.0,0.2222222222222222,0.6666666666666666,0.33333333333333337,-2.0,-2.0,-1.0,0.0,0.0,1.0,-1.0,1.0,1,0,0
2.0,0.0,2.0,0.0,0.0,0.0,0.0,0.0,88.83117920000223,92.3337500000198,None,left,2.6667178999923635,95.68449030001648,pz19,88.83117920000223,92.33375000001979,95.68449030001648,None,False,4.0,['p'],False,0.24,0.3,0.2,2.0,2.0,0.9003120349047065,0.0048924551776182,wait_cost,1.0,3.0,,,pz19,1,2023-04-20_11h51.13.410,threat_forest,2021.2.3,60.04282253858096,False,15.0,0.4833333333333333,0.49166666666666664,-0.8977777777777778,-1.198888888888889,0,0,0,0.9808484653243049,0.0048924551776182,0.24,0.24,0.3,0.8,-1.4,-1.24,2.76,2.76,0.0,2.0,-1.0,4.0,0,0,0
2.0,0.0,2.0,0.0,1.0,0.0,1.0,0.0,,,,right,0.6895668999932241,102.7091083000123,pz19,88.83117920000223,92.33375000001979,102.7091083000123,None,True,3.0,['p'],False,0.24,0.3,0.2,2.0,2.0,0.9003120349047065,0.0206023046878086,succ_gain,1.0,5.0,100.39288810000288,None,pz19,1,2023-04-20_11h51.13.410,threat_forest,2021.2.3,60.04282253858096,True,15.0,0.4833333333333333,0.49166666666666664,-0.8977777777777778,-1.198888888888889,0,0,1,-0.37169155963436845,0.0206023046878086,0.24,0.24,0.3,0.8,-1.4,-1.24,1.76,1.76,0.0,2.0,-1.0,3.0,0,0,0
2.0,0.0,2.0,0.0,2.0,0.0,2.0,0.0,,,,left,1.096461800014367,107.07059370001662,pz19,107.07059370001662,None,103.43007180001588,105.43817730000592,True,5.0,['p'],True,0.4444444444444445,0.6666666666666666,0.3333333333333333,1.0,2.0,0.9656336071428248,0.0727072881708411,unsucc_cost,0.0,3.0,105.43817730000592,None,pz19,1,2023-04-20_11h51.13.410,threat_forest,2021.2.3,60.04282253858096,True,15.0,0.4833333333333333,0.49166666666666664,-0.8977777777777778,-1.198888888888889,1,0,1,0.09208845016075251,0.0727072881708411,0.4444444444444445,0.4444444444444445,0.6666666666666666,0.6666666666666667,-0.3333333333333335,-0.5555555555555556,4.444444444444445,4.444444444444445,1.0,2.0,1.0,5.0,0,0,1
2.0,0.0,2.0,0.0,3.0,0.0,3.0,0.0,,,,right,0.575331100000767,113.8164254000003,pz19,108.18579089999548,110.20036610000534,113.8164254000003,None,True,3.0,['p'],False,0.24,0.3,0.2,2.0,2.0,0.9003120349047065,-0.0620973282853222,figh_cost,1.0,0.0,110.20036610000534,None,pz19,1,2023-04-20_11h51.13.410,threat_forest,2021.2.3,60.04282253858096,True,15.0,0.4833333333333333,0.49166666666666664,-0.8977777777777778,-1.198888888888889,0,0,1,-0.5528095778207223,-0.0620973282853222,0.24,0.24,0.3,0.8,-1.4,-1.24,1.76,1.76,0.0,2.0,-1.0,3.0,0,0,0
3.0,0.0,3.0,0.0,0.0,0.0,0.0,0.0,117.63741530000698,121.14011670000036,None,None,,122.04177640000124,pz19,117.63741530000698,121.14011670000036,122.04177640000124,None,False,4.0,['p'],False,0.2962962962962963,0.3333333333333333,0.1111111111111111,1.0,2.0,0.8325252476189534,0.0040645764059328,wait_cost,1.0,3.0,,,pz19,1,2023-04-20_11h51.13.410,threat_forest,2021.2.3,60.04282253858096,None,22.0,0.41666666666666663,0.44999999999999996,-0.7129629629629629,-0.8053703703703703,0,0,0,,0.0040645764059328,0.2962962962962963,0.2962962962962963,0.3333333333333333,0.8888888888888888,-1.0000000000000002,-0.925925925925926,3.074074074074074,3.074074074074074,0.0,2.0,-1.0,4.0,0,0,0
3.0,0.0,3.0,0.0,1.0,0.0,1.0,0.0,,,,left,2.063219599978765,127.60096420001356,pz19,127.60096420001356,None,125.0535366999975,127.0678145000129,True,3.0,['p'],True,0.4166666666666667,0.5,0.1666666666666666,1.0,2.0,0.9358932809493992,0.1077932424260725,succ_gain,0.0,5.0,127.0678145000129,None,pz19,1,2023-04-20_11h51.13.410,threat_forest,2021.2.3,60.04282253858096,True,22.0,0.41666666666666663,0.44999999999999996,-0.7129629629629629,-0.8053703703703703,1,0,1,0.7242676753357093,0.1077932424260725,0.4166666666666667,0.4166666666666667,0.5,0.8333333333333334,-0.4999999999999998,-0.4999999999999998,2.5,2.5,1.0,2.0,-1.0,3.0,0,0,1
3.0,0.0,3.0,0.0,2.0,0.0,2.0,0.0,,,,left,1.6819777000055185,135.37889660001383,pz19,129.68238980000024,131.6968478000199,135.37889660001383,None,False,5.0,['p'],False,0.2962962962962963,0.3333333333333333,0.1111111111111111,1.0,2.0,0.8325252476189534,0.0111445756795599,wait_cost,1.0,4.0,131.6968478000199,None,pz19,1,2023-04-20_11h51.13.410,threat_forest,2021.2.3,60.04282253858096,False,22.0,0.41666666666666663,0.44999999999999996,-0.7129629629629629,-0.8053703703703703,0,0,0,0.5199703034399895,0.0111445756795599,0.2962962962962963,0.2962962962962963,0.3333333333333333,0.8888888888888888,-1.0000000000000002,-0.925925925925926,4.074074074074074,4.074074074074074,0.0,2.0,1.0,5.0,0,0,0
3.0,0.0,3.0,0.0,3.0,0.0,3.0,0.0,,,,left,1.078356599988183,140.75562559999526,pz19,140.75562559999526,None,137.09228909999365,139.10657910001464,True,4.0,['p'],True,0.4166666666666667,0.5,0.1666666666666666,1.0,2.0,0.9358932809493992,0.0732344145593066,unsucc_cost,0.0,2.0,139.10657910001464,None,pz19,1,2023-04-20_11h51.13.410,threat_forest,2021.2.3,60.04282253858096,True,22.0,0.41666666666666663,0.44999999999999996,-0.7129629629629629,-0.8053703703703703,1,0,1,0.07543821554798157,0.0732344145593066,0.4166666666666667,0.4166666666666667,0.5,0.8333333333333334,-0.4999999999999998,-0.4999999999999998,3.5,3.5,1.0,2.0,-1.0,4.0,0,0,1
3.0,0.0,3.0,0.0,4.0,0.0,4.0,0.0,,,,left,1.8450328999897465,147.65087529999437,pz19,141.85432139999466,143.86874560001888,147.65087529999437,None,False,2.0,['p'],False,0.2962962962962963,0.3333333333333333,0.1111111111111111,1.0,2.0,0.8325252476189534,-0.0601851851851852,wait_cost,1.0,1.0,143.86874560001888,None,pz19,1,2023-04-20_11h51.13.410,threat_forest,2021.2.3,60.04282253858096,False,22.0,0.41666666666666663,0.44999999999999996,-0.7129629629629629,-0.8053703703703703,0,0,0,0.6124971093062651,-0.0601851851851852,0.2962962962962963,0.2962962962962963,0.3333333333333333,0.8888888888888888,-1.0000000000000002,-0.925925925925926,1.074074074074074,1.074074074074074,0.0,2.0,-1.0,2.0,0,0,0
3.0,0.0,3.0,0.0,5.0,0.0,5.0,0.0,,,,right,2.019879800005583,152.22852090001106,pz19,141.85432139999466,143.86874560001888,152.22852090001106,None,True,1.0,['p'],False,0.2962962962962963,0.3333333333333333,0.1111111111111111,1.0,2.0,0.8325252476189534,0.2962962962962963,succ_gain,1.0,3.0,151.52829859999474,None,pz19,1,2023-04-20_11h51.13.410,threat_forest,2021.2.3,60.04282253858096,True,22.0,0.41666666666666663,0.44999999999999996,-0.7129629629629629,-0.8053703703703703,0,0,1,0.7030380046948926,0.2962962962962963,1.0,0.2962962962962963,0.3333333333333333,0.8888888888888888,-1.0000000000000002,-0.925925925925926,0.07407407407407396,0.07407407407407396,0.0,2.0,-1.0,1.0,1,0,0
3.0,0.0,3.0,0.0,6.0,0.0,6.0,0.0,,,,right,1.844282599980943,158.92298010000377,pz19,158.92298010000377,None,154.2761945000093,156.2905962000077,False,3.0,['p'],True,0.4166666666666667,0.5,0.1666666666666666,1.0,2.0,0.9358932809493992,-0.4347993827160493,wait_cost,0.0,2.0,156.2905962000077,None,pz19,1,2023-04-20_11h51.13.410,threat_forest,2021.2.3,60.04282253858096,False,22.0,0.41666666666666663,0.44999999999999996,-0.7129629629629629,-0.8053703703703703,1,0,0,0.6120903671780011,-0.4347993827160493,0.0,0.4166666666666667,0.5,0.8333333333333334,-0.4999999999999998,-0.4999999999999998,2.5,2.5,1.0,2.0,1.0,3.0,0,0,1
3.0,0.0,3.0,0.0,7.0,0.0,7.0,0.0,,,,left,1.599059500003932,163.8672964000143,pz19,160.7867252000142,162.80116269999417,163.8672964000143,None,False,2.0,['p'],False,0.2962962962962963,0.3333333333333333,0.1111111111111111,1.0,2.0,0.8325252476189534,-0.7037037037037037,wait_cost,1.0,1.0,162.80116269999417,None,pz19,1,2023-04-20_11h51.13.410,threat_forest,2021.2.3,60.04282253858096,False,22.0,0.41666666666666663,0.44999999999999996,-0.7129629629629629,-0.8053703703703703,0,0,0,0.46941564391869606,-0.7037037037037037,0.0,0.2962962962962963,0.3333333333333333,0.8888888888888888,-1.0000000000000002,-0.925925925925926,1.074074074074074,1.074074074074074,0.0,2.0,-1.0,2.0,0,0,0
4.0,0.0,4.0,0.0,0.0,0.0,0.0,0.0,169.05439170001773,172.5587724999932,None,left,2.549784600007115,173.17503730001044,pz19,169.05439170001773,172.5587724999932,173.17503730001044,None,False,5.0,['p'],False,0.25,0.5,0.5,1.0,1.0,0.9463946303571862,0.0122551342604393,wait_cost,1.0,4.0,,,pz19,1,2023-04-20_11h51.13.410,threat_forest,2021.2.3,60.04282253858096,False,71.0,0.35,0.3833333333333333,-1.7350000000000003,-1.2239814814814816,0,0,0,0.9360088850170488,0.0122551342604393,0.25,0.25,0.5,0.5,-2.0,-1.75,3.25,3.25,0.0,1.0,-1.0,5.0,0,0,0
4.0,0.0,4.0,0.0,1.0,0.0,1.0,0.0,,,,right,2.776957399997628,179.8857157000166,pz19,169.05439170001773,172.5587724999932,179.8857157000166,None,True,4.0,['p'],False,0.25,0.5,0.5,1.0,1.0,0.9463946303571862,0.0188078231718747,unsucc_cost,1.0,2.0,177.7705816999951,None,pz19,1,2023-04-20_11h51.13.410,threat_forest,2021.2.3,60.04282253858096,True,71.0,0.35,0.3833333333333333,-1.7350000000000003,-1.2239814814814816,0,0,1,1.021355867910862,0.0188078231718747,0.25,0.25,0.5,0.5,-2.0,-1.75,2.25,2.25,0.0,1.0,-1.0,4.0,0,0,0
4.0,0.0,4.0,0.0,2.0,0.0,2.0,0.0,,,,right,2.034524499991676,187.07715980001376,pz19,187.07715980001376,None,182.68290280000656,184.69732940001995,False,2.0,['p'],True,0.16,0.2,0.2,2.0,1.0,0.8198746470064713,0.0014517228749999,wait_cost,0.0,1.0,184.69732940001995,None,pz19,1,2023-04-20_11h51.13.410,threat_forest,2021.2.3,60.04282253858096,False,71.0,0.35,0.3833333333333333,-1.7350000000000003,-1.2239814814814816,0,0,0,0.7102621306538368,0.0014517228749999,0.16,0.16,0.2,0.8,-2.0,-1.7200000000000004,0.2799999999999996,0.2799999999999996,1.0,1.0,-1.0,2.0,0,0,0
4.0,0.0,4.0,0.0,3.0,0.0,3.0,0.0,,,,left,2.251848399988376,192.69021729999804,pz19,192.69021729999804,None,182.68290280000656,184.69732940001995,True,1.0,['p'],True,0.16,0.2,0.2,2.0,1.0,0.8198746470064713,0.0097161799999998,unsucc_cost,0.0,0.0,191.15801050001755,None,pz19,1,2023-04-20_11h51.13.410,threat_forest,2021.2.3,60.04282253858096,True,71.0,0.35,0.3833333333333333,-1.7350000000000003,-1.2239814814814816,0,0,1,0.8117513900667186,0.0097161799999998,1.0,0.16,0.2,0.8,-2.0,-1.7200000000000004,-0.7200000000000004,0.0,1.0,1.0,-1.0,1.0,1,0,0
5.0,0.0,5.0,0.0,0.0,0.0,0.0,0.0,198.2421053000144,201.7479253000056,None,None,,203.0137781999947,pz19,203.0137781999947,None,198.2421053000144,201.7479253000056,False,4.0,['p'],True,0.2448979591836734,0.2857142857142857,0.1428571428571428,1.0,2.0,0.8400769154957735,0.0066793633871859,wait_cost,0.0,3.0,,,pz19,1,2023-04-20_11h51.13.410,threat_forest,2021.2.3,60.04282253858096,None,29.0,0.47619047619047616,0.41309523809523807,-0.8594104308390023,-1.2972052154195013,1,0,0,,0.0066793633871859,0.2448979591836734,0.2448979591836734,0.2857142857142857,0.8571428571428572,-1.2857142857142856,-1.163265306122449,2.836734693877551,2.836734693877551,1.0,2.0,-1.0,4.0,0,0,1
5.0,0.0,5.0,0.0,1.0,0.0,1.0,0.0,,,,left,1.5427063000097403,209.5743424000102,pz19,209.5743424000102,None,198.2421053000144,201.7479253000056,True,3.0,['p'],True,0.2448979591836734,0.2857142857142857,0.1428571428571428,1.0,2.0,0.8400769154957735,0.0286218062243927,succ_gain,0.0,5.0,208.04209339999943,None,pz19,1,2023-04-20_11h51.13.410,threat_forest,2021.2.3,60.04282253858096,True,29.0,0.47619047619047616,0.41309523809523807,-0.8594104308390023,-1.2972052154195013,1,0,1,0.43353821178300284,0.0286218062243927,0.2448979591836734,0.2448979591836734,0.2857142857142857,0.8571428571428572,-1.2857142857142856,-1.163265306122449,1.836734693877551,1.836734693877551,1.0,2.0,-1.0,3.0,0,0,1
5.0,0.0,5.0,0.0,2.0,0.0,2.0,0.0,,,,right,2.1435125000134576,216.1515829999989,pz19,216.1515829999989,None,198.2421053000144,201.7479253000056,False,5.0,['p'],True,0.2448979591836734,0.2857142857142857,0.1428571428571428,1.0,2.0,0.8400769154957735,-0.0053927091035934,wait_cost,0.0,4.0,213.15393900001072,None,pz19,1,2023-04-20_11h51.13.410,threat_forest,2021.2.3,60.04282253858096,False,29.0,0.47619047619047616,0.41309523809523807,-0.8594104308390023,-1.2972052154195013,1,0,0,0.7624458386290276,-0.0053927091035934,0.2448979591836734,0.2448979591836734,0.2857142857142857,0.8571428571428572,-1.2857142857142856,-1.163265306122449,3.836734693877551,3.836734693877551,1.0,2.0,1.0,5.0,0,0,1
5.0,0.0,5.0,0.0,3.0,0.0,3.0,0.0,,,,right,2.515727499994682,222.2124768999929,pz19,218.31619870002032,220.3306150000135,222.2124768999929,None,True,4.0,['p'],False,0.4444444444444445,0.6666666666666666,0.3333333333333333,1.0,2.0,0.9656336071428248,0.0997659825764223,figh_cost,1.0,1.0,220.3306150000135,None,pz19,1,2023-04-20_11h51.13.410,threat_forest,2021.2.3,60.04282253858096,True,29.0,0.47619047619047616,0.41309523809523807,-0.8594104308390023,-1.2972052154195013,1,1,1,0.9225620261342233,0.0997659825764223,0.4444444444444445,0.4444444444444445,0.6666666666666666,0.6666666666666667,-0.3333333333333335,-0.5555555555555556,3.4444444444444446,3.4444444444444446,0.0,2.0,-1.0,4.0,0,1,1
5.0,0.0,5.0,0.0,4.0,0.0,4.0,0.0,,,,left,1.4621367999934591,228.32350070000396,pz19,228.32350070000396,None,224.7601313000196,226.77459750001435,True,1.0,['p'],True,0.2448979591836734,0.2857142857142857,0.1428571428571428,1.0,2.0,0.8400769154957735,0.1196276557733094,succ_gain,0.0,3.0,226.77459750001435,None,pz19,1,2023-04-20_11h51.13.410,threat_forest,2021.2.3,60.04282253858096,True,29.0,0.47619047619047616,0.41309523809523807,-0.8594104308390023,-1.2972052154195013,1,0,1,0.379898927397108,0.1196276557733094,1.0,0.2448979591836734,0.2857142857142857,0.8571428571428572,-1.2857142857142856,-1.163265306122449,-0.16326530612244894,0.0,1.0,2.0,-1.0,1.0,1,0,1
5.0,0.0,5.0,0.0,5.0,0.0,5.0,0.0,,,,right,1.6492259000078775,233.0193124000216,pz19,233.0193124000216,None,224.7601313000196,226.77459750001435,False,3.0,['p'],True,0.2448979591836734,0.2857142857142857,0.1428571428571428,1.0,2.0,0.8400769154957735,0.0613633208385395,wait_cost,0.0,2.0,231.8199790000217,None,pz19,1,2023-04-20_11h51.13.410,threat_forest,2021.2.3,60.04282253858096,False,29.0,0.47619047619047616,0.41309523809523807,-0.8594104308390023,-1.2972052154195013,1,0,0,0.5003060263161094,0.0613633208385395,0.2448979591836734,0.2448979591836734,0.2857142857142857,0.8571428571428572,-1.2857142857142856,-1.163265306122449,1.836734693877551,1.836734693877551,1.0,2.0,1.0,3.0,0,0,1
5.0,0.0,5.0,0.0,6.0,0.0,6.0,0.0,,,,None,,240.1291859000048,pz19,234.7009754000173,236.71532280000974,240.1291859000048,None,False,2.0,['p'],False,0.4444444444444445,0.6666666666666666,0.3333333333333333,1.0,2.0,0.9656336071428248,0.0997732426303854,wait_cost,1.0,1.0,236.71532280000972,None,pz19,1,2023-04-20_11h51.13.410,threat_forest,2021.2.3,60.04282253858096,None,29.0,0.47619047619047616,0.41309523809523807,-0.8594104308390023,-1.2972052154195013,1,1,0,,0.0997732426303854,0.4444444444444445,0.4444444444444445,0.6666666666666666,0.6666666666666667,-0.3333333333333335,-0.5555555555555556,1.4444444444444444,1.4444444444444444,0.0,2.0,-1.0,2.0,0,1,1
5.0,0.0,5.0,0.0,7.0,0.0,7.0,0.0,,,,right,1.6011786999879405,247.95501619999413,pz19,234.7009754000173,236.71532280000974,247.95501619999413,None,True,1.0,['p'],False,0.4444444444444445,0.6666666666666666,0.3333333333333333,1.0,2.0,0.9656336071428248,0.4444444444444444,succ_gain,1.0,3.0,245.15748340002028,None,pz19,1,2023-04-20_11h51.13.410,threat_forest,2021.2.3,60.04282253858096,True,29.0,0.47619047619047616,0.41309523809523807,-0.8594104308390023,-1.2972052154195013,1,1,1,0.47074004551716286,0.4444444444444444,1.0,0.4444444444444445,0.6666666666666666,0.6666666666666667,-0.3333333333333335,-0.5555555555555556,0.4444444444444444,0.4444444444444444,0.0,2.0,-1.0,1.0,1,1,1
6.0,0.0,6.0,0.0,0.0,0.0,0.0,0.0,252.4305319999985,255.9259846000059,None,left,2.297444399999222,257.93272640000214,pz19,252.4305319999985,255.9259846000059,257.93272640000214,None,False,5.0,['p'],False,0.16,0.2,0.2,2.0,2.0,0.8198746470064713,-0.011066432,wait_cost,1.0,4.0,,,pz19,1,2023-04-20_11h51.13.410,threat_forest,2021.2.3,60.04282253858096,False,65.0,0.30000000000000004,0.3880952380952381,-1.5000000000000002,-1.1797052154195011,0,0,0,0.8317973747369085,-0.011066432,0.16,0.16,0.2,0.8,-1.8000000000000003,-1.5600000000000003,3.4399999999999995,3.4399999999999995,0.0,2.0,1.0,5.0,0,0,0
6.0,0.0,6.0,0.0,1.0,0.0,1.0,0.0,,,,left,2.5625828000193,264.24005160000524,pz19,252.4305319999985,255.9259846000059,264.24005160000524,None,False,4.0,['p'],False,0.16,0.2,0.2,2.0,2.0,0.8198746470064713,0.0106207999999998,wait_cost,1.0,3.0,262.2747356000182,None,pz19,1,2023-04-20_11h51.13.410,threat_forest,2021.2.3,60.04282253858096,False,65.0,0.30000000000000004,0.3880952380952381,-1.5000000000000002,-1.1797052154195011,0,0,0,0.9410156561451523,0.0106207999999998,0.16,0.16,0.2,0.8,-1.8000000000000003,-1.5600000000000003,2.4399999999999995,2.4399999999999995,0.0,2.0,-1.0,4.0,0,0,0
6.0,0.0,6.0,0.0,2.0,0.0,2.0,0.0,,,,None,,270.50090390001424,pz19,252.4305319999985,255.9259846000059,270.50090390001424,None,False,3.0,['p'],False,0.16,0.2,0.2,2.0,2.0,0.8198746470064713,0.0305599999999998,wait_cost,1.0,2.0,268.8352687000006,None,pz19,1,2023-04-20_11h51.13.410,threat_forest,2021.2.3,60.04282253858096,None,65.0,0.30000000000000004,0.3880952380952381,-1.5000000000000002,-1.1797052154195011,0,0,0,,0.0305599999999998,0.16,0.16,0.2,0.8,-1.8000000000000003,-1.5600000000000003,1.4399999999999997,1.4399999999999997,0.0,2.0,-1.0,3.0,0,0,0
6.0,0.0,6.0,0.0,3.0,0.0,3.0,0.0,,,,None,,276.0627421000099,pz19,252.4305319999985,255.9259846000059,276.0627421000099,None,False,2.0,['p'],False,0.16,0.2,0.2,2.0,2.0,0.8198746470064713,-0.0008000000000001,wait_cost,1.0,1.0,275.52910840002005,None,pz19,1,2023-04-20_11h51.13.410,threat_forest,2021.2.3,60.04282253858096,None,65.0,0.30000000000000004,0.3880952380952381,-1.5000000000000002,-1.1797052154195011,0,0,0,,-0.0008000000000001,0.16,0.16,0.2,0.8,-1.8000000000000003,-1.5600000000000003,0.4399999999999997,0.4399999999999997,0.0,2.0,-1.0,2.0,0,0,0
6.0,0.0,6.0,0.0,4.0,0.0,4.0,0.0,,,,right,0.865351999993436,284.1713266000152,pz19,252.4305319999985,255.9259846000059,284.1713266000152,None,True,1.0,['p'],False,0.16,0.2,0.2,2.0,2.0,0.8198746470064713,0.0479999999999999,unsucc_cost,1.0,0.0,281.0905372000125,None,pz19,1,2023-04-20_11h51.13.410,threat_forest,2021.2.3,60.04282253858096,True,65.0,0.30000000000000004,0.3880952380952381,-1.5000000000000002,-1.1797052154195011,0,0,1,-0.14461891841782581,0.0479999999999999,1.0,0.16,0.2,0.8,-1.8000000000000003,-1.5600000000000003,-0.5600000000000003,0.0,0.0,2.0,-1.0,1.0,1,0,0
7.0,0.0,7.0,0.0,0.0,0.0,0.0,0.0,288.2249243000115,291.7304662000097,None,right,1.5524992999853566,293.2299106999999,pz19,288.2249243000115,291.7304662000097,293.2299106999999,None,True,4.0,['p'],False,0.4444444444444445,0.6666666666666666,0.3333333333333333,1.0,1.0,0.9656336071428248,0.045641051707109,succ_gain,1.0,5.0,,,pz19,1,2023-04-20_11h51.13.410,threat_forest,2021.2.3,60.04282253858096,True,39.0,0.43333333333333335,0.3666666666666667,-1.2000000000000002,-1.35,1,1,1,0.43986608393029475,0.045641051707109,0.4444444444444445,0.4444444444444445,0.6666666666666666,0.6666666666666667,-1.0,-1.0,3.0,3.0,0.0,1.0,-1.0,4.0,0,1,1
7.0,0.0,7.0,0.0,1.0,0.0,1.0,0.0,,,,left,1.275068300019484,300.0611349999963,pz19,300.0611349999963,None,294.8113147999975,296.82581629999913,True,5.0,['p'],True,0.2,0.2,0.0,0.0,1.0,0.4554859150035951,0.0004162250842519,unsucc_cost,0.0,3.0,296.82581629999913,None,pz19,1,2023-04-20_11h51.13.410,threat_forest,2021.2.3,60.04282253858096,True,39.0,0.43333333333333335,0.3666666666666667,-1.2000000000000002,-1.35,0,0,1,0.24299974581837352,0.0004162250842519,0.2,0.2,0.2,1.0,-1.4000000000000001,-1.4000000000000001,3.5999999999999996,3.5999999999999996,1.0,1.0,1.0,5.0,0,0,0
7.0,0.0,7.0,0.0,2.0,0.0,2.0,0.0,,,,right,1.7213686000031885,305.83436280000024,pz19,305.83436280000024,None,294.8113147999975,296.82581629999913,False,3.0,['p'],True,0.2,0.2,0.0,0.0,1.0,0.4554859150035951,-0.0178719250114312,wait_cost,0.0,2.0,303.3695967000094,None,pz19,1,2023-04-20_11h51.13.410,threat_forest,2021.2.3,60.04282253858096,False,39.0,0.43333333333333335,0.3666666666666667,-1.2000000000000002,-1.35,0,0,0,0.5431196721020658,-0.0178719250114312,0.2,0.2,0.2,1.0,-1.4000000000000001,-1.4000000000000001,1.5999999999999999,1.5999999999999999,1.0,1.0,-1.0,3.0,0,0,0
7.0,0.0,7.0,0.0,3.0,0.0,3.0,0.0,,,,left,1.62897749998956,312.4615393000131,pz19,312.4615393000131,None,294.8113147999975,296.82581629999913,True,2.0,['p'],True,0.2,0.2,0.0,0.0,1.0,0.4554859150035951,-0.0379958847736625,unsucc_cost,0.0,0.0,309.597155800002,None,pz19,1,2023-04-20_11h51.13.410,threat_forest,2021.2.3,60.04282253858096,True,39.0,0.43333333333333335,0.3666666666666667,-1.2000000000000002,-1.35,0,0,1,0.4879525173634144,-0.0379958847736625,0.2,0.2,0.2,1.0,-1.4000000000000001,-1.4000000000000001,0.5999999999999999,0.5999999999999999,1.0,1.0,-1.0,2.0,0,0,0
8.0,0.0,8.0,0.0,0.0,0.0,0.0,0.0,317.50299179999274,321.00047440000344,None,left,2.48188370000571,322.9693840999971,pz19,317.50299179999274,321.00047440000344,322.9693840999971,None,False,5.0,['p'],False,0.2222222222222222,0.3333333333333333,0.3333333333333333,2.0,2.0,0.9656336071428248,0.0018803614496756,wait_cost,1.0,4.0,,,pz19,1,2023-04-20_11h51.13.410,threat_forest,2021.2.3,60.04282253858096,False,63.0,0.26666666666666666,0.35,-1.5022222222222226,-1.3511111111111114,0,0,0,0.909017828313789,0.0018803614496756,0.2222222222222222,0.2222222222222222,0.3333333333333333,0.6666666666666667,-1.666666666666667,-1.4444444444444446,3.5555555555555554,3.5555555555555554,0.0,2.0,-1.0,5.0,0,0,0
8.0,0.0,8.0,0.0,1.0,0.0,1.0,0.0,,,,right,0.8332655999984127,328.18014630000107,pz19,317.50299179999274,321.00047440000344,328.18014630000107,None,True,4.0,['p'],False,0.2222222222222222,0.3333333333333333,0.3333333333333333,2.0,2.0,0.9656336071428248,0.0288077520013096,unsucc_cost,1.0,2.0,327.49727439999697,None,pz19,1,2023-04-20_11h51.13.410,threat_forest,2021.2.3,60.04282253858096,True,63.0,0.26666666666666666,0.35,-1.5022222222222226,-1.3511111111111114,0,0,1,-0.1824028400992578,0.0288077520013096,0.2222222222222222,0.2222222222222222,0.3333333333333333,0.6666666666666667,-1.666666666666667,-1.4444444444444446,2.5555555555555554,2.5555555555555554,0.0,2.0,-1.0,4.0,0,0,0
8.0,0.0,8.0,0.0,2.0,0.0,2.0,0.0,,,,right,1.5509828999929596,334.3443895000092,pz19,334.3443895000092,None,329.0459555000125,331.0604783000017,False,2.0,['p'],True,0.16,0.2,0.2,2.0,2.0,0.8198746470064713,-0.0054167298692271,wait_cost,0.0,1.0,331.0604783000017,None,pz19,1,2023-04-20_11h51.13.410,threat_forest,2021.2.3,60.04282253858096,False,63.0,0.26666666666666666,0.35,-1.5022222222222226,-1.3511111111111114,0,0,0,0.43888885898401736,-0.0054167298692271,0.16,0.16,0.2,0.8,-1.8000000000000003,-1.5600000000000003,0.4399999999999997,0.4399999999999997,1.0,2.0,-1.0,2.0,0,0,0
8.0,0.0,8.0,0.0,3.0,0.0,3.0,0.0,,,,left,1.1555915999924764,340.1023180000193,pz19,340.1023180000193,None,329.0459555000125,331.0604783000017,True,1.0,['p'],True,0.16,0.2,0.2,2.0,2.0,0.8198746470064713,0.0471577283950616,succ_gain,0.0,3.0,337.93729550001444,None,pz19,1,2023-04-20_11h51.13.410,threat_forest,2021.2.3,60.04282253858096,True,63.0,0.26666666666666666,0.35,-1.5022222222222226,-1.3511111111111114,0,0,1,0.1446124206258194,0.0471577283950616,1.0,0.16,0.2,0.8,-1.8000000000000003,-1.5600000000000003,-0.5600000000000003,0.0,1.0,2.0,-1.0,1.0,1,0,0
8.0,0.0,8.0,0.0,4.0,0.0,4.0,0.0,,,,right,1.356401500001084,346.27990090000094,pz19,346.27990090000094,None,329.0459555000125,331.0604783000017,False,3.0,['p'],True,0.16,0.2,0.2,2.0,2.0,0.8198746470064713,0.0756444444444444,wait_cost,0.0,2.0,343.2989287000091,None,pz19,1,2023-04-20_11h51.13.410,threat_forest,2021.2.3,60.04282253858096,False,63.0,0.26666666666666666,0.35,-1.5022222222222226,-1.3511111111111114,0,0,0,0.30483523713800964,0.0756444444444444,0.16,0.16,0.2,0.8,-1.8000000000000003,-1.5600000000000003,1.4399999999999997,1.4399999999999997,1.0,2.0,1.0,3.0,0,0,0
8.0,0.0,8.0,0.0,5.0,0.0,5.0,0.0,,,,right,2.779190400004154,352.9569857000024,pz19,347.6620533000096,349.6763132000051,352.9569857000024,None,True,2.0,['p'],False,0.2222222222222222,0.3333333333333333,0.3333333333333333,2.0,2.0,0.9656336071428248,0.031111111111111,succ_gain,1.0,4.0,349.6763132000051,None,pz19,1,2023-04-20_11h51.13.410,threat_forest,2021.2.3,60.04282253858096,True,63.0,0.26666666666666666,0.35,-1.5022222222222226,-1.3511111111111114,0,0,1,1.0221596622687987,0.031111111111111,0.2222222222222222,0.2222222222222222,0.3333333333333333,0.6666666666666667,-1.666666666666667,-1.4444444444444446,0.5555555555555554,0.5555555555555554,0.0,2.0,-1.0,2.0,0,0,0
8.0,0.0,8.0,0.0,6.0,0.0,6.0,0.0,,,,left,0.6367708999896422,360.0669796000002,pz19,347.6620533000096,349.6763132000051,360.0669796000002,None,False,4.0,['p'],False,0.2222222222222222,0.3333333333333333,0.3333333333333333,2.0,2.0,0.9656336071428248,-0.2696296296296296,wait_cost,1.0,3.0,357.76880720001645,None,pz19,1,2023-04-20_11h51.13.410,threat_forest,2021.2.3,60.04282253858096,False,63.0,0.26666666666666666,0.35,-1.5022222222222226,-1.3511111111111114,0,0,0,-0.4513453427485613,-0.2696296296296296,0.0,0.2222222222222222,0.3333333333333333,0.6666666666666667,-1.666666666666667,-1.4444444444444446,2.5555555555555554,2.5555555555555554,0.0,2.0,1.0,4.0,0,0,0
8.0,0.0,8.0,0.0,7.0,0.0,7.0,0.0,,,,left,0.5548356999934185,364.6626142000023,pz19,347.6620533000096,349.6763132000051,364.6626142000023,None,False,3.0,['p'],False,0.2222222222222222,0.3333333333333333,0.3333333333333333,2.0,2.0,0.9656336071428248,-0.3333333333333333,wait_cost,1.0,2.0,362.7473990000144,None,pz19,1,2023-04-20_11h51.13.410,threat_forest,2021.2.3,60.04282253858096,False,63.0,0.26666666666666666,0.35,-1.5022222222222226,-1.3511111111111114,0,0,0,-0.5890832451109178,-0.3333333333333333,0.0,0.2222222222222222,0.3333333333333333,0.6666666666666667,-1.666666666666667,-1.4444444444444446,1.5555555555555554,1.5555555555555554,0.0,2.0,-1.0,3.0,0,0,0
9.0,0.0,9.0,0.0,0.0,0.0,0.0,0.0,370.547025900014,374.0535054000211,None,right,2.266052099992521,376.8863337000075,pz19,370.547025900014,374.0535054000211,376.8863337000075,None,True,4.0,['p'],False,0.2040816326530612,0.2857142857142857,0.2857142857142857,2.0,2.0,0.9335459102197724,-0.0053173066993206,unsucc_cost,1.0,2.0,,,pz19,1,2023-04-20_11h51.13.410,threat_forest,2021.2.3,60.04282253858096,True,21.0,0.47619047619047616,0.37142857142857144,-1.012471655328798,-1.2573469387755103,0,0,1,0.8180391543946881,-0.0053173066993206,0.2040816326530612,0.2040816326530612,0.2857142857142857,0.7142857142857143,-1.7142857142857144,-1.4693877551020407,2.5306122448979593,2.5306122448979593,0.0,2.0,-1.0,4.0,0,0,0
9.0,0.0,9.0,0.0,1.0,0.0,1.0,0.0,,,,left,1.7996980999887455,383.8113696000073,pz19,383.8113696000073,None,379.1823968999961,381.1968279000139,True,2.0,['p'],True,0.4444444444444445,0.6666666666666666,0.3333333333333333,1.0,2.0,0.9656336071428248,0.0754537458767131,figh_cost,0.0,0.0,381.1968279000139,None,pz19,1,2023-04-20_11h51.13.410,threat_forest,2021.2.3,60.04282253858096,True,21.0,0.47619047619047616,0.37142857142857144,-1.012471655328798,-1.2573469387755103,1,1,1,0.5876189286066984,0.0754537458767131,0.4444444444444445,0.4444444444444445,0.6666666666666666,0.6666666666666667,-0.3333333333333335,-0.5555555555555556,1.4444444444444444,1.4444444444444444,1.0,2.0,-1.0,2.0,0,1,1
10.0,0.0,10.0,0.0,0.0,0.0,0.0,0.0,390.9977224000031,394.5010825000063,None,left,2.5403285000065807,395.3007817000034,pz19,395.3007817000034,None,390.9977224000031,394.5010825000063,True,5.0,['p'],True,0.375,0.5,0.25,1.0,2.0,0.9850568223215076,0.0358735195754151,figh_cost,0.0,2.0,,,pz19,1,2023-04-20_11h51.13.410,threat_forest,2021.2.3,60.04282253858096,True,59.0,0.3611111111111111,0.4186507936507936,-1.1404320987654322,-1.076451877047115,1,0,1,0.9322934033792021,0.0358735195754151,0.375,0.375,0.5,0.75,-0.75,-0.75,4.25,4.25,1.0,2.0,-1.0,5.0,0,0,1
10.0,0.0,10.0,0.0,1.0,0.0,1.0,0.0,,,,left,1.7070626000058835,400.78151170001365,pz19,397.86479260001215,399.879406299995,400.78151170001365,None,False,2.0,['p'],False,0.1728395061728395,0.2222222222222222,0.2222222222222222,2.0,2.0,0.8571721972794328,-0.0298469984512649,wait_cost,1.0,1.0,399.879406299995,None,pz19,1,2023-04-20_11h51.13.410,threat_forest,2021.2.3,60.04282253858096,False,59.0,0.3611111111111111,0.4186507936507936,-1.1404320987654322,-1.076451877047115,0,0,0,0.534774115668227,-0.0298469984512649,0.1728395061728395,0.1728395061728395,0.2222222222222222,0.7777777777777778,-1.7777777777777777,-1.5308641975308643,0.46913580246913567,0.46913580246913567,0.0,2.0,-1.0,2.0,0,0,0
10.0,0.0,10.0,0.0,2.0,0.0,2.0,0.0,,,,left,2.454667199985124,406.95638119999785,pz19,406.95638119999785,None,402.510632599995,404.52499780000653,True,1.0,['p'],True,0.375,0.5,0.25,1.0,2.0,0.9850568223215076,0.1390093416583739,succ_gain,0.0,3.0,404.5249978000065,None,pz19,1,2023-04-20_11h51.13.410,threat_forest,2021.2.3,60.04282253858096,True,59.0,0.3611111111111111,0.4186507936507936,-1.1404320987654322,-1.076451877047115,1,0,1,0.897991191969859,0.1390093416583739,1.0,0.375,0.5,0.75,-0.75,-0.75,0.25,0.25,1.0,2.0,-1.0,1.0,1,0,1
10.0,0.0,10.0,0.0,3.0,0.0,3.0,0.0,,,,right,1.0084482000092976,414.6670381000149,pz19,409.4374903000135,411.45190730001195,414.6670381000149,None,True,3.0,['p'],False,0.1728395061728395,0.2222222222222222,0.2222222222222222,2.0,2.0,0.8571721972794328,-0.0839910479197434,unsucc_cost,1.0,1.0,411.451907300012,None,pz19,1,2023-04-20_11h51.13.410,threat_forest,2021.2.3,60.04282253858096,True,59.0,0.3611111111111111,0.4186507936507936,-1.1404320987654322,-1.076451877047115,0,0,1,0.00841271369119749,-0.0839910479197434,0.1728395061728395,0.1728395061728395,0.2222222222222222,0.7777777777777778,-1.7777777777777777,-1.5308641975308643,1.4691358024691357,1.4691358024691357,0.0,2.0,1.0,3.0,0,0,0
10.0,0.0,10.0,0.0,4.0,0.0,4.0,0.0,,,,left,2.8690025999967474,421.2762674000114,pz19,421.2762674000114,None,415.69819799999823,417.71266049999394,True,1.0,['p'],True,0.375,0.5,0.25,1.0,2.0,0.9850568223215076,0.1530494916695244,figh_cost,0.0,0.0,417.71266049999394,None,pz19,1,2023-04-20_11h51.13.410,threat_forest,2021.2.3,60.04282253858096,True,59.0,0.3611111111111111,0.4186507936507936,-1.1404320987654322,-1.076451877047115,1,0,1,1.0539644432367912,0.1530494916695244,1.0,0.375,0.5,0.75,-0.75,-0.75,0.25,0.25,1.0,2.0,-1.0,1.0,1,0,1
11.0,0.0,11.0,0.0,0.0,0.0,0.0,0.0,426.9457885000156,430.4507539000188,None,right,2.726953200006392,433.817008300015,pz19,426.9457885000156,430.45075390001875,433.817008300015,None,True,4.0,['r'],False,0.28125,0.375,0.25,2.0,2.0,0.9634951148421658,-0.0007636143604934,succ_gain,1.0,6.0,,,pz19,1,2023-04-20_11h51.13.410,threat_forest,2021.2.3,60.04282253858096,True,40.0,0.35416666666666663,0.35763888888888884,-0.8958333333333335,-1.018132716049383,0,0,1,1.00318494200236,-0.0007636143604934,0.28125,0.28125,0.375,0.75,-1.25,-1.125,2.875,2.875,0.0,2.0,-1.0,4.0,0,0,0
11.0,0.0,11.0,0.0,1.0,0.0,1.0,0.0,,,,left,1.415450200001942,441.5575357000053,pz19,426.9457885000156,430.45075390001875,441.5575357000053,None,False,6.0,['r'],False,0.28125,0.375,0.25,2.0,2.0,0.9634951148421658,-0.1073108765070514,wait_cost,1.0,5.0,438.5766181999934,None,pz19,1,2023-04-20_11h51.13.410,threat_forest,2021.2.3,60.04282253858096,False,40.0,0.35416666666666663,0.35763888888888884,-0.8958333333333335,-1.018132716049383,0,0,0,0.3474476430377733,-0.1073108765070514,0.28125,0.28125,0.375,0.75,-1.25,-1.125,4.875,4.875,0.0,2.0,1.0,6.0,0,0,0
11.0,0.0,11.0,0.0,2.0,0.0,2.0,0.0,,,,right,1.844613699999172,447.95141490001697,pz19,447.95141490001697,None,442.9895058000111,444.98717510001734,False,5.0,['r'],True,0.3333333333333333,0.3333333333333333,0.0,0.0,2.0,0.5793801642856949,0.0799125393722283,wait_cost,0.0,4.0,444.9871751000173,None,pz19,1,2023-04-20_11h51.13.410,threat_forest,2021.2.3,60.04282253858096,False,40.0,0.35416666666666663,0.35763888888888884,-0.8958333333333335,-1.018132716049383,1,0,0,0.6122698788759147,0.0799125393722283,0.3333333333333333,0.3333333333333333,0.3333333333333333,1.0,-0.6666666666666669,-0.6666666666666669,4.333333333333333,4.333333333333333,1.0,2.0,-1.0,5.0,0,0,1
11.0,0.0,11.0,0.0,3.0,0.0,3.0,0.0,,,,right,2.3452743999951053,453.51564950001193,pz19,449.8164363999968,451.83068390001426,453.51564950001193,None,True,4.0,['r'],False,0.28125,0.375,0.25,2.0,2.0,0.9634951148421658,-0.0133382655956126,figh_cost,1.0,1.0,451.8306839000143,None,pz19,1,2023-04-20_11h51.13.410,threat_forest,2021.2.3,60.04282253858096,True,40.0,0.35416666666666663,0.35763888888888884,-0.8958333333333335,-1.018132716049383,0,0,1,0.8524024099758164,-0.0133382655956126,0.28125,0.28125,0.375,0.75,-1.25,-1.125,2.875,2.875,0.0,2.0,-1.0,4.0,0,0,0
11.0,0.0,11.0,0.0,4.0,0.0,4.0,0.0,,,,left,1.9602824999892616,459.15761230001226,pz19,459.15761230001226,None,455.8774223999935,457.8918563000043,True,1.0,['r'],True,0.3333333333333333,0.3333333333333333,0.0,0.0,2.0,0.5793801642856949,0.1605812355324073,succ_gain,0.0,3.0,457.8918563000043,None,pz19,1,2023-04-20_11h51.13.410,threat_forest,2021.2.3,60.04282253858096,True,40.0,0.35416666666666663,0.35763888888888884,-0.8958333333333335,-1.018132716049383,1,0,1,0.6730885955038962,0.1605812355324073,1.0,0.3333333333333333,0.3333333333333333,1.0,-0.6666666666666669,-0.6666666666666669,0.33333333333333315,0.33333333333333315,1.0,2.0,-1.0,1.0,1,0,1
11.0,0.0,11.0,0.0,5.0,0.0,5.0,0.0,,,,right,1.2591645999928005,466.31786790001206,pz19,466.31786790001206,None,455.8774223999935,457.8918563000043,False,3.0,['r'],True,0.3333333333333333,0.3333333333333333,0.0,0.0,2.0,0.5793801642856949,0.2178819444444443,wait_cost,0.0,2.0,463.1534961000143,None,pz19,1,2023-04-20_11h51.13.410,threat_forest,2021.2.3,60.04282253858096,False,40.0,0.35416666666666663,0.35763888888888884,-0.8958333333333335,-1.018132716049383,1,0,0,0.23044848519242908,0.2178819444444443,0.3333333333333333,0.3333333333333333,0.3333333333333333,1.0,-0.6666666666666669,-0.6666666666666669,2.333333333333333,2.333333333333333,1.0,2.0,1.0,3.0,0,0,1
11.0,0.0,11.0,0.0,6.0,0.0,6.0,0.0,,,,right,1.8788379000034183,473.0948287000065,pz19,473.0948287000065,None,455.8774223999935,457.8918563000043,False,2.0,['r'],True,0.3333333333333333,0.3333333333333333,0.0,0.0,2.0,0.5793801642856949,0.0260416666666666,wait_cost,0.0,1.0,469.6142111000081,None,pz19,1,2023-04-20_11h51.13.410,threat_forest,2021.2.3,60.04282253858096,False,40.0,0.35416666666666663,0.35763888888888884,-0.8958333333333335,-1.018132716049383,1,0,0,0.6306534474195615,0.0260416666666666,0.3333333333333333,0.3333333333333333,0.3333333333333333,1.0,-0.6666666666666669,-0.6666666666666669,1.333333333333333,1.333333333333333,1.0,2.0,-1.0,2.0,0,0,1
11.0,0.0,11.0,0.0,7.0,0.0,7.0,0.0,,,,left,2.9252737000060733,480.23783120000735,pz19,480.23783120000735,None,455.8774223999935,457.8918563000043,True,1.0,['r'],True,0.3333333333333333,0.3333333333333333,0.0,0.0,2.0,0.5793801642856949,0.3333333333333332,unsucc_cost,0.0,0.0,477.0072456000198,None,pz19,1,2023-04-20_11h51.13.410,threat_forest,2021.2.3,60.04282253858096,True,40.0,0.35416666666666663,0.35763888888888884,-0.8958333333333335,-1.018132716049383,1,0,1,1.0733880489578214,0.3333333333333332,1.0,0.3333333333333333,0.3333333333333333,1.0,-0.6666666666666669,-0.6666666666666669,0.33333333333333315,0.33333333333333315,1.0,2.0,-1.0,1.0,1,0,1
12.0,0.0,12.0,0.0,0.0,0.0,0.0,0.0,487.1375839000102,490.6444264000165,None,right,1.4747942000103649,492.4268650000158,pz19,487.1375839000102,490.6444264000165,492.4268650000158,None,True,4.0,['r'],False,0.4,0.4,0.0,0.0,2.0,0.6126016192893442,0.0533547681755829,unsucc_cost,1.0,2.0,,,pz19,1,2023-04-20_11h51.13.410,threat_forest,2021.2.3,60.04282253858096,True,2.0,0.45,0.40208333333333335,-0.7,-0.7979166666666667,1,0,1,0.38851845464050494,0.0533547681755829,0.4,0.4,0.4,1.0,-0.3999999999999999,-0.3999999999999999,3.6,3.6,0.0,2.0,-1.0,4.0,0,0,1
12.0,0.0,12.0,0.0,1.0,0.0,1.0,0.0,,,,left,1.0897701999929268,499.5702693000203,pz19,499.5702693000203,None,493.92497700001695,495.93949390001944,True,2.0,['r'],True,0.3333333333333333,0.5,0.3333333333333333,2.0,2.0,1.0,-0.000405596707819,figh_cost,0.0,0.0,495.9394939000194,None,pz19,1,2023-04-20_11h51.13.410,threat_forest,2021.2.3,60.04282253858096,True,2.0,0.45,0.40208333333333335,-0.7,-0.7979166666666667,0,0,1,0.08596684831962896,-0.000405596707819,0.3333333333333333,0.3333333333333333,0.5,0.6666666666666667,-1.0,-1.0,1.0,1.0,1.0,2.0,-1.0,2.0,0,0,0
13.0,0.0,13.0,0.0,0.0,0.0,0.0,0.0,506.1918468000076,509.695633299998,None,right,1.6526932999840938,513.0075287999935,pz19,506.1918468000076,509.695633299998,513.0075287999935,None,True,5.0,['p'],False,0.4444444444444445,0.6666666666666666,0.3333333333333333,1.0,1.0,0.9656336071428248,0.0480533547078672,succ_gain,1.0,6.0,,,pz19,1,2023-04-20_11h51.13.410,threat_forest,2021.2.3,60.04282253858096,True,5.0,0.4444444444444444,0.4472222222222222,-1.259259259259259,-0.9796296296296295,0,0,1,0.502406260174514,0.0480533547078672,0.4444444444444445,0.4444444444444445,0.6666666666666666,0.6666666666666667,-1.0,-1.0,4.0,4.0,0.0,1.0,-1.0,5.0,0,0,0
13.0,0.0,13.0,0.0,1.0,0.0,1.0,0.0,,,,left,2.121296400000574,517.7860330000112,pz19,506.1918468000076,509.695633299998,517.7860330000112,None,False,6.0,['p'],False,0.4444444444444445,0.6666666666666666,0.3333333333333333,1.0,1.0,0.9656336071428248,-0.125995838529335,wait_cost,1.0,5.0,516.7034205000091,None,pz19,1,2023-04-20_11h51.13.410,threat_forest,2021.2.3,60.04282253858096,False,5.0,0.4444444444444444,0.4472222222222222,-1.259259259259259,-0.9796296296296295,0,0,0,0.7520274112224485,-0.125995838529335,0.4444444444444445,0.4444444444444445,0.6666666666666666,0.6666666666666667,-1.0,-1.0,5.0,5.0,0.0,1.0,1.0,6.0,0,0,0
13.0,0.0,13.0,0.0,2.0,0.0,2.0,0.0,,,,right,1.1931486000248697,525.1981196000124,pz19,525.1981196000124,None,519.934035400016,521.9484839000215,False,5.0,['p'],True,0.1975308641975308,0.2222222222222222,0.1111111111111111,1.0,1.0,0.7461067557824965,-0.1048953757063683,wait_cost,0.0,4.0,521.9484839000215,None,pz19,1,2023-04-20_11h51.13.410,threat_forest,2021.2.3,60.04282253858096,False,5.0,0.4444444444444444,0.4472222222222222,-1.259259259259259,-0.9796296296296295,0,0,0,0.17659569531262062,-0.1048953757063683,0.1975308641975308,0.1975308641975308,0.2222222222222222,0.8888888888888888,-1.6666666666666667,-1.5185185185185184,3.481481481481482,3.481481481481482,1.0,1.0,-1.0,5.0,0,0,0
13.0,0.0,13.0,0.0,3.0,0.0,3.0,0.0,,,,right,1.0401000999845564,531.0569745000103,pz19,526.4115171000012,528.4258853000065,531.0569745000103,None,True,4.0,['p'],False,0.4444444444444445,0.6666666666666666,0.3333333333333333,1.0,1.0,0.9656336071428248,0.094905172916655,succ_gain,1.0,5.0,528.4258853000065,None,pz19,1,2023-04-20_11h51.13.410,threat_forest,2021.2.3,60.04282253858096,True,5.0,0.4444444444444444,0.4472222222222222,-1.259259259259259,-0.9796296296296295,0,0,1,0.0393169585066991,0.094905172916655,0.4444444444444445,0.4444444444444445,0.6666666666666666,0.6666666666666667,-1.0,-1.0,3.0,3.0,0.0,1.0,-1.0,4.0,0,0,0
13.0,0.0,13.0,0.0,4.0,0.0,4.0,0.0,,,,left,1.3213370999728795,537.2345338000159,pz19,526.4115171000012,528.4258853000065,537.2345338000159,None,False,5.0,['p'],False,0.4444444444444445,0.6666666666666666,0.3333333333333333,1.0,1.0,0.9656336071428248,-0.324069840302122,wait_cost,1.0,4.0,534.1371138000104,None,pz19,1,2023-04-20_11h51.13.410,threat_forest,2021.2.3,60.04282253858096,False,5.0,0.4444444444444444,0.4472222222222222,-1.259259259259259,-0.9796296296296295,0,0,0,0.27864417843094685,-0.324069840302122,0.0,0.4444444444444445,0.6666666666666666,0.6666666666666667,-1.0,-1.0,4.0,4.0,0.0,1.0,1.0,5.0,0,0,0
13.0,0.0,13.0,0.0,5.0,0.0,5.0,0.0,,,,left,1.531119099992793,542.4462208000186,pz19,526.4115171000012,528.4258853000065,542.4462208000186,None,False,4.0,['p'],False,0.4444444444444445,0.6666666666666666,0.3333333333333333,1.0,1.0,0.9656336071428248,-0.3635116598079561,wait_cost,1.0,3.0,540.5977580000181,None,pz19,1,2023-04-20_11h51.13.410,threat_forest,2021.2.3,60.04282253858096,False,5.0,0.4444444444444444,0.4472222222222222,-1.259259259259259,-0.9796296296296295,0,0,0,0.42599890593779544,-0.3635116598079561,0.0,0.4444444444444445,0.6666666666666666,0.6666666666666667,-1.0,-1.0,3.0,3.0,0.0,1.0,-1.0,4.0,0,0,0
13.0,0.0,13.0,0.0,6.0,0.0,6.0,0.0,,,,left,0.9634694999840576,548.1908574000117,pz19,526.4115171000012,528.4258853000065,548.1908574000117,None,False,3.0,['p'],False,0.4444444444444445,0.6666666666666666,0.3333333333333333,1.0,1.0,0.9656336071428248,-0.4842249657064471,wait_cost,1.0,2.0,546.00938090001,None,pz19,1,2023-04-20_11h51.13.410,threat_forest,2021.2.3,60.04282253858096,False,5.0,0.4444444444444444,0.4472222222222222,-1.259259259259259,-0.9796296296296295,0,0,0,-0.0372144470682435,-0.4842249657064471,0.0,0.4444444444444445,0.6666666666666666,0.6666666666666667,-1.0,-1.0,2.0,2.0,0.0,1.0,-1.0,3.0,0,0,0
13.0,0.0,13.0,0.0,7.0,0.0,7.0,0.0,,,,left,0.7778699000191409,554.7015114999958,pz19,526.4115171000012,528.4258853000065,554.7015114999958,None,False,2.0,['p'],False,0.4444444444444445,0.6666666666666666,0.3333333333333333,1.0,1.0,0.9656336071428248,-0.5555555555555556,wait_cost,1.0,1.0,551.1877619000152,None,pz19,1,2023-04-20_11h51.13.410,threat_forest,2021.2.3,60.04282253858096,False,5.0,0.4444444444444444,0.4472222222222222,-1.259259259259259,-0.9796296296296295,0,0,0,-0.25119599241295776,-0.5555555555555556,0.0,0.4444444444444445,0.6666666666666666,0.6666666666666667,-1.0,-1.0,1.0,1.0,0.0,1.0,-1.0,2.0,0,0,0
14.0,0.0,14.0,0.0,0.0,0.0,0.0,0.0,561.1563490999979,564.6585426999955,None,left,1.57086900001741,566.8911156000104,pz19,566.8911156000104,None,561.1563490999979,564.6585426999955,True,5.0,['r'],True,0.4444444444444445,0.6666666666666666,0.3333333333333333,2.0,2.0,0.9656336071428248,-0.0307726625514404,succ_gain,0.0,6.0,,,pz19,1,2023-04-20_11h51.13.410,threat_forest,2021.2.3,60.04282253858096,True,47.0,0.6333333333333333,0.5388888888888889,-0.07777777777777783,-0.6685185185185185,1,0,1,0.45162896942962666,-0.0307726625514404,0.4444444444444445,0.4444444444444445,0.6666666666666666,0.6666666666666667,-0.3333333333333335,-0.5555555555555556,4.444444444444445,4.444444444444445,1.0,2.0,-1.0,5.0,0,0,1
14.0,0.0,14.0,0.0,1.0,0.0,1.0,0.0,,,,right,0.9943990999890956,572.9378563000064,pz19,568.488832300005,570.5031092000136,572.9378563000064,None,True,6.0,['r'],False,0.6,0.6,0.0,0.0,2.0,0.6126016192893442,-0.0046270987654321,succ_gain,1.0,6.0,570.5031092000136,None,pz19,1,2023-04-20_11h51.13.410,threat_forest,2021.2.3,60.04282253858096,True,47.0,0.6333333333333333,0.5388888888888889,-0.07777777777777783,-0.6685185185185185,1,1,1,-0.005616643865394041,-0.0046270987654321,0.6,0.6,0.6,1.0,0.3999999999999999,0.3999999999999999,6.4,6.0,0.0,2.0,1.0,6.0,0,1,1
14.0,0.0,14.0,0.0,2.0,0.0,2.0,0.0,,,,left,1.8513014999916777,576.8141967999982,pz19,568.488832300005,570.5031092000136,576.8141967999982,None,False,6.0,['r'],False,0.6,0.6,0.0,0.0,2.0,0.6126016192893442,0.0736506172839506,wait_cost,1.0,5.0,575.9646235000109,None,pz19,1,2023-04-20_11h51.13.410,threat_forest,2021.2.3,60.04282253858096,False,47.0,0.6333333333333333,0.5388888888888889,-0.07777777777777783,-0.6685185185185185,1,1,0,0.6158889052496221,0.0736506172839506,0.6,0.6,0.6,1.0,0.3999999999999999,0.3999999999999999,6.4,6.0,0.0,2.0,-1.0,6.0,0,1,1
14.0,0.0,14.0,0.0,3.0,0.0,3.0,0.0,,,,left,0.9002852999838069,582.0095118000172,pz19,568.488832300005,570.5031092000136,582.0095118000172,None,False,5.0,['r'],False,0.6,0.6,0.0,0.0,2.0,0.6126016192893442,0.0901728395061728,wait_cost,1.0,4.0,580.710238700005,None,pz19,1,2023-04-20_11h51.13.410,threat_forest,2021.2.3,60.04282253858096,False,47.0,0.6333333333333333,0.5388888888888889,-0.07777777777777783,-0.6685185185185185,1,1,0,-0.10504356590969711,0.0901728395061728,0.6,0.6,0.6,1.0,0.3999999999999999,0.3999999999999999,5.4,5.4,0.0,2.0,-1.0,5.0,0,1,1
14.0,0.0,14.0,0.0,4.0,0.0,4.0,0.0,,,,left,2.184735399991041,586.989545599994,pz19,586.989545599994,None,582.9418293000199,584.9563348999945,True,4.0,['r'],True,0.4444444444444445,0.6666666666666666,0.3333333333333333,2.0,2.0,0.9656336071428248,0.0582098765432098,succ_gain,0.0,6.0,584.9563348999945,None,pz19,1,2023-04-20_11h51.13.410,threat_forest,2021.2.3,60.04282253858096,True,47.0,0.6333333333333333,0.5388888888888889,-0.07777777777777783,-0.6685185185185185,1,0,1,0.7814947228122804,0.0582098765432098,0.4444444444444445,0.4444444444444445,0.6666666666666666,0.6666666666666667,-0.3333333333333335,-0.5555555555555556,3.4444444444444446,3.4444444444444446,1.0,2.0,-1.0,4.0,0,0,1
14.0,0.0,14.0,0.0,5.0,0.0,5.0,0.0,,,,left,1.2552244999969844,593.2655288999958,pz19,589.2028086000064,591.2172362999991,593.2655288999958,None,False,6.0,['r'],False,0.6,0.6,0.0,0.0,2.0,0.6126016192893442,0.0,wait_cost,1.0,5.0,591.2172362999991,None,pz19,1,2023-04-20_11h51.13.410,threat_forest,2021.2.3,60.04282253858096,False,47.0,0.6333333333333333,0.5388888888888889,-0.07777777777777783,-0.6685185185185185,1,1,0,0.22731444104557857,0.0,0.0,0.6,0.6,1.0,0.3999999999999999,0.3999999999999999,6.4,6.0,0.0,2.0,1.0,6.0,0,1,1
14.0,0.0,14.0,0.0,6.0,0.0,6.0,0.0,,,,left,1.308937399997376,600.3591145999962,pz19,589.2028086000064,591.2172362999991,600.3591145999962,None,False,5.0,['r'],False,0.6,0.6,0.0,0.0,2.0,0.6126016192893442,0.0,wait_cost,1.0,4.0,596.5620679999993,None,pz19,1,2023-04-20_11h51.13.410,threat_forest,2021.2.3,60.04282253858096,False,47.0,0.6333333333333333,0.5388888888888889,-0.07777777777777783,-0.6685185185185185,1,1,0,0.2692156630167434,0.0,0.0,0.6,0.6,1.0,0.3999999999999999,0.3999999999999999,5.4,5.4,0.0,2.0,-1.0,5.0,0,1,1
14.0,0.0,14.0,0.0,7.0,0.0,7.0,0.0,,,,left,0.457809499988798,604.7713975000079,pz19,589.2028086000064,591.2172362999991,604.7713975000079,None,False,4.0,['r'],False,0.6,0.6,0.0,0.0,2.0,0.6126016192893442,0.0,wait_cost,1.0,3.0,603.7053597000195,None,pz19,1,2023-04-20_11h51.13.410,threat_forest,2021.2.3,60.04282253858096,False,47.0,0.6333333333333333,0.5388888888888889,-0.07777777777777783,-0.6685185185185185,1,1,0,-0.7813021202836131,0.0,0.0,0.6,0.6,1.0,0.3999999999999999,0.3999999999999999,4.4,4.4,0.0,2.0,-1.0,4.0,0,1,1
15.0,0.0,15.0,0.0,0.0,0.0,0.0,0.0,610.3802174000011,613.8792638000159,None,left,2.016714500001399,616.296295600012,pz19,610.3802174000011,613.8792638000159,616.296295600012,None,False,4.0,['p'],False,0.2962962962962963,0.3333333333333333,0.1111111111111111,1.0,1.0,0.8325252476189534,0.0071317107376875,wait_cost,1.0,3.0,,,pz19,1,2023-04-20_11h51.13.410,threat_forest,2021.2.3,60.04282253858096,False,4.0,0.4666666666666667,0.55,-0.9911111111111113,-0.5344444444444445,0,0,0,0.7014697021023073,0.0071317107376875,0.2962962962962963,0.2962962962962963,0.3333333333333333,0.8888888888888888,-1.3333333333333335,-1.2222222222222223,2.7777777777777777,2.7777777777777777,0.0,1.0,-1.0,4.0,0,0,0
15.0,0.0,15.0,0.0,1.0,0.0,1.0,0.0,,,,left,1.1871240000182297,621.5890029000002,pz19,621.5890029000002,None,618.3422438999987,620.3565620000008,True,3.0,['p'],True,0.48,0.6,0.2,1.0,1.0,0.9455672104350704,0.0733394424822562,unsucc_cost,0.0,1.0,620.3565620000008,None,pz19,1,2023-04-20_11h51.13.410,threat_forest,2021.2.3,60.04282253858096,True,4.0,0.4666666666666667,0.55,-0.9911111111111113,-0.5344444444444445,0,0,1,0.17153357522470578,0.0733394424822562,0.48,0.48,0.6,0.8,-0.8000000000000002,-0.7600000000000002,2.2399999999999998,2.2399999999999998,1.0,1.0,-1.0,3.0,0,0,0
15.0,0.0,15.0,0.0,2.0,0.0,2.0,0.0,,,,left,0.962487399985548,626.1181548000022,pz19,626.1181548000022,None,618.3422438999987,620.3565620000008,True,1.0,['p'],True,0.48,0.6,0.2,1.0,1.0,0.9455672104350704,0.0961925945942385,unsucc_cost,0.0,0.0,624.8190187000146,None,pz19,1,2023-04-20_11h51.13.410,threat_forest,2021.2.3,60.04282253858096,True,4.0,0.4666666666666667,0.55,-0.9911111111111113,-0.5344444444444445,0,0,1,-0.038234303829990636,0.0961925945942385,1.0,0.48,0.6,0.8,-0.8000000000000002,-0.7600000000000002,0.23999999999999977,0.23999999999999977,1.0,1.0,-1.0,1.0,1,0,0
16.0,0.0,16.0,0.0,0.0,0.0,0.0,0.0,631.8405676000111,635.3385629999975,None,right,1.357416100014234,638.6264547000173,pz19,638.6264547000173,None,631.8405676000111,635.3385629999975,False,5.0,['p'],True,0.2592592592592592,0.3333333333333333,0.2222222222222222,2.0,2.0,0.9327883776363324,-0.0183254353837554,wait_cost,0.0,4.0,,,pz19,1,2023-04-20_11h51.13.410,threat_forest,2021.2.3,60.04282253858096,False,31.0,0.41666666666666663,0.44166666666666665,-0.9675925925925928,-0.979351851851852,0,0,0,0.30558296613823127,-0.0183254353837554,0.2592592592592592,0.2592592592592592,0.3333333333333333,0.7777777777777778,-1.3333333333333335,-1.1851851851851856,3.8148148148148144,3.8148148148148144,1.0,2.0,-1.0,5.0,0,0,0
16.0,0.0,16.0,0.0,1.0,0.0,1.0,0.0,,,,left,0.691759599983925,644.4343726999941,pz19,644.4343726999941,None,631.8405676000111,635.3385629999975,True,4.0,['p'],True,0.2592592592592592,0.3333333333333333,0.2222222222222222,2.0,2.0,0.9327883776363324,0.0223412269304474,unsucc_cost,0.0,2.0,642.0195428000006,None,pz19,1,2023-04-20_11h51.13.410,threat_forest,2021.2.3,60.04282253858096,True,31.0,0.41666666666666663,0.44166666666666665,-0.9675925925925928,-0.979351851851852,0,0,1,-0.3685167825885934,0.0223412269304474,0.2592592592592592,0.2592592592592592,0.3333333333333333,0.7777777777777778,-1.3333333333333335,-1.1851851851851856,2.8148148148148144,2.8148148148148144,1.0,2.0,-1.0,4.0,0,0,0
16.0,0.0,16.0,0.0,2.0,0.0,2.0,0.0,,,,right,2.92555220000213,650.3453686000139,pz19,645.150407100009,647.1647815000033,650.3453686000139,None,True,2.0,['p'],False,0.375,0.5,0.25,1.0,2.0,0.9850568223215076,0.044282183751892,unsucc_cost,1.0,0.0,647.1647815000033,None,pz19,1,2023-04-20_11h51.13.410,threat_forest,2021.2.3,60.04282253858096,True,31.0,0.41666666666666663,0.44166666666666665,-0.9675925925925928,-0.979351851851852,1,0,1,1.0734832491914386,0.044282183751892,0.375,0.375,0.5,0.75,-0.75,-0.75,1.25,1.25,0.0,2.0,-1.0,2.0,0,0,1
17.0,0.0,17.0,0.0,0.0,0.0,0.0,0.0,657.8646519000176,661.368101,None,right,1.644533299986506,664.4857633000065,pz19,664.4857633000065,None,657.8646519000176,661.368101,False,5.0,['p'],True,0.16,0.2,0.2,2.0,2.0,0.8198746470064713,-0.013191945967,wait_cost,0.0,4.0,,,pz19,1,2023-04-20_11h51.13.410,threat_forest,2021.2.3,60.04282253858096,False,8.0,0.35,0.3833333333333333,-1.5300000000000002,-1.2487962962962964,0,0,0,0.49745663574965615,-0.013191945967,0.16,0.16,0.2,0.8,-1.8000000000000003,-1.5600000000000003,3.4399999999999995,3.4399999999999995,1.0,2.0,-1.0,5.0,0,0,0
17.0,0.0,17.0,0.0,1.0,0.0,1.0,0.0,,,,right,1.3112913999939335,670.7932998000178,pz19,670.7932998000178,None,657.8646519000176,661.368101,False,4.0,['p'],True,0.16,0.2,0.2,2.0,2.0,0.8198746470064713,0.0132497745506249,wait_cost,0.0,3.0,668.161920500017,None,pz19,1,2023-04-20_11h51.13.410,threat_forest,2021.2.3,60.04282253858096,False,8.0,0.35,0.3833333333333333,-1.5300000000000002,-1.2487962962962964,0,0,0,0.27101245315192596,0.0132497745506249,0.16,0.16,0.2,0.8,-1.8000000000000003,-1.5600000000000003,2.4399999999999995,2.4399999999999995,1.0,2.0,-1.0,4.0,0,0,0
17.0,0.0,17.0,0.0,2.0,0.0,2.0,0.0,,,,right,1.7013300999824423,677.7698352000152,pz19,677.7698352000152,None,657.8646519000176,661.368101,False,3.0,['p'],True,0.16,0.2,0.2,2.0,2.0,0.8198746470064713,0.0278844399999999,wait_cost,0.0,2.0,674.1394902000029,None,pz19,1,2023-04-20_11h51.13.410,threat_forest,2021.2.3,60.04282253858096,False,8.0,0.35,0.3833333333333333,-1.5300000000000002,-1.2487962962962964,0,0,0,0.5314103568920338,0.0278844399999999,0.16,0.16,0.2,0.8,-1.8000000000000003,-1.5600000000000003,1.4399999999999997,1.4399999999999997,1.0,2.0,-1.0,3.0,0,0,0
17.0,0.0,17.0,0.0,3.0,0.0,3.0,0.0,,,,right,2.5848642999771982,682.432444200007,pz19,679.501551399997,681.516127800016,682.432444200007,None,True,2.0,['p'],False,0.25,0.5,0.5,1.0,2.0,0.9463946303571862,0.0337707499999999,succ_gain,1.0,4.0,681.516127800016,None,pz19,1,2023-04-20_11h51.13.410,threat_forest,2021.2.3,60.04282253858096,True,8.0,0.35,0.3833333333333333,-1.5300000000000002,-1.2487962962962964,0,0,1,0.9496730114092418,0.0337707499999999,0.25,0.25,0.5,0.5,-1.5,-1.5,0.5,0.5,0.0,2.0,-1.0,2.0,0,0,0
17.0,0.0,17.0,0.0,4.0,0.0,4.0,0.0,,,,left,1.6362541999842506,689.6752884000016,pz19,679.501551399997,681.516127800016,689.6752884000016,None,False,4.0,['p'],False,0.25,0.5,0.5,1.0,2.0,0.9463946303571862,0.11315,wait_cost,1.0,3.0,687.0608775000146,None,pz19,1,2023-04-20_11h51.13.410,threat_forest,2021.2.3,60.04282253858096,False,8.0,0.35,0.3833333333333333,-1.5300000000000002,-1.2487962962962964,0,0,0,0.4924096050739728,0.11315,0.25,0.25,0.5,0.5,-1.5,-1.5,2.5,2.5,0.0,2.0,1.0,4.0,0,0,0
17.0,0.0,17.0,0.0,5.0,0.0,5.0,0.0,,,,right,1.2301979000039864,695.4228926000069,pz19,695.4228926000069,None,691.3406013000058,693.3549040000071,False,3.0,['p'],True,0.16,0.2,0.2,2.0,2.0,0.8198746470064713,0.0636999999999998,wait_cost,0.0,2.0,693.3549040000071,None,pz19,1,2023-04-20_11h51.13.410,threat_forest,2021.2.3,60.04282253858096,False,8.0,0.35,0.3833333333333333,-1.5300000000000002,-1.2487962962962964,0,0,0,0.20717505075440856,0.0636999999999998,0.16,0.16,0.2,0.8,-1.8000000000000003,-1.5600000000000003,1.4399999999999997,1.4399999999999997,1.0,2.0,-1.0,3.0,0,0,0
17.0,0.0,17.0,0.0,6.0,0.0,6.0,0.0,,,,right,1.7660104999959003,700.2486877000192,pz19,696.685519599996,698.6999498000077,700.2486877000192,None,True,2.0,['p'],False,0.25,0.5,0.5,1.0,2.0,0.9463946303571862,0.045,figh_cost,1.0,0.0,698.6999498000077,None,pz19,1,2023-04-20_11h51.13.410,threat_forest,2021.2.3,60.04282253858096,True,8.0,0.35,0.3833333333333333,-1.5300000000000002,-1.2487962962962964,0,0,1,0.5687230478016357,0.045,0.25,0.25,0.5,0.5,-1.5,-1.5,0.5,0.5,0.0,2.0,-1.0,2.0,0,0,0
0.0,0.0,0.0,0.0,0.0,0.0,0.0,0.0,11.158659599983366,14.664999000000536,None,left,1.7423127999936696,18.22442630000296,pz19,11.158659599983366,14.664999000000535,18.22442630000296,None,False,5.0,['p'],False,0.24,0.3,0.2,2.0,1.0,0.9003120349047065,-0.0090981991697076,wait_cost,1.0,4.0,,,pz19,2,2023-04-20_12h03.35.328,threat_forest,2021.2.3,60.03337855754742,False,9.0,0.4,0.375,-1.3025,-1.4162500000000002,0,0,0,0.5552134260269048,-0.0090981991697076,0.24,0.24,0.3,0.8,-1.7,-1.48,3.52,3.52,0.0,1.0,-1.0,5.0,0,0,0
0.0,0.0,0.0,0.0,1.0,0.0,1.0,0.0,,,,left,1.597669799986761,25.381714599992847,pz19,11.158659599983366,14.664999000000535,25.381714599992847,None,False,4.0,['p'],False,0.24,0.3,0.2,2.0,1.0,0.9003120349047065,0.0018466381927442,wait_cost,1.0,3.0,22.00035139999818,None,pz19,2,2023-04-20_12h03.35.328,threat_forest,2021.2.3,60.03337855754742,False,9.0,0.4,0.375,-1.3025,-1.4162500000000002,0,0,0,0.4685461926925821,0.0018466381927442,0.24,0.24,0.3,0.8,-1.7,-1.48,2.52,2.52,0.0,1.0,-1.0,4.0,0,0,0
0.0,0.0,0.0,0.0,2.0,0.0,2.0,0.0,,,,left,0.6519929000060074,31.01051950000692,pz19,11.158659599983366,14.664999000000535,31.01051950000692,None,False,3.0,['p'],False,0.24,0.3,0.2,2.0,1.0,0.9003120349047065,0.0003182842476561,wait_cost,1.0,2.0,29.01045259999228,None,pz19,2,2023-04-20_12h03.35.328,threat_forest,2021.2.3,60.03337855754742,False,9.0,0.4,0.375,-1.3025,-1.4162500000000002,0,0,0,-0.42772160667611414,0.0003182842476561,0.24,0.24,0.3,0.8,-1.7,-1.48,1.52,1.52,0.0,1.0,-1.0,3.0,0,0,0
0.0,0.0,0.0,0.0,3.0,0.0,3.0,0.0,,,,left,2.585008299996844,34.43908479998936,pz19,11.158659599983366,14.664999000000535,34.43908479998936,None,False,2.0,['p'],False,0.24,0.3,0.2,2.0,1.0,0.9003120349047065,-0.014262328125,wait_cost,1.0,1.0,33.68964900000719,None,pz19,2,2023-04-20_12h03.35.328,threat_forest,2021.2.3,60.03337855754742,False,9.0,0.4,0.375,-1.3025,-1.4162500000000002,0,0,0,0.9497287187857383,-0.014262328125,0.24,0.24,0.3,0.8,-1.7,-1.48,0.52,0.52,0.0,1.0,-1.0,2.0,0,0,0
0.0,0.0,0.0,0.0,4.0,0.0,4.0,0.0,,,,left,1.2312911999761127,39.86741549998988,pz19,39.86741549998988,None,37.053310799994506,39.051103300007526,True,1.0,['p'],True,0.375,0.5,0.25,1.0,1.0,0.9850568223215076,0.1279687499999999,unsucc_cost,0.0,0.0,39.051103300007526,None,pz19,2,2023-04-20_12h03.35.328,threat_forest,2021.2.3,60.03337855754742,True,9.0,0.4,0.375,-1.3025,-1.4162500000000002,1,0,1,0.20806337485385754,0.1279687499999999,1.0,0.375,0.5,0.75,-1.25,-1.125,-0.125,0.0,1.0,1.0,-1.0,1.0,1,0,1
1.0,0.0,1.0,0.0,0.0,0.0,0.0,0.0,45.408162799983984,48.908621599985054,None,right,2.126390099991113,52.62294309999561,pz19,52.62294309999561,None,45.408162799983984,48.908621599985054,False,5.0,['p'],True,0.4,0.4,0.0,0.0,1.0,0.6126016192893442,0.0454165613168723,wait_cost,0.0,4.0,,,pz19,2,2023-04-20_12h03.35.328,threat_forest,2021.2.3,60.03337855754742,False,7.0,0.45,0.42500000000000004,-1.0666666666666667,-1.1845833333333333,1,0,0,0.7544257532056187,0.0454165613168723,0.4,0.4,0.4,1.0,-0.7999999999999999,-0.7999999999999999,4.2,4.2,1.0,1.0,-1.0,5.0,0,0,1
1.0,0.0,1.0,0.0,1.0,0.0,1.0,0.0,,,,right,2.39871830001357,58.23570389999077,pz19,54.7699627999973,56.78449689998524,58.23570389999077,None,True,4.0,['p'],False,0.3333333333333333,0.5,0.3333333333333333,2.0,1.0,1.0,0.0180980452674897,succ_gain,1.0,5.0,56.78449689998524,None,pz19,2,2023-04-20_12h03.35.328,threat_forest,2021.2.3,60.03337855754742,True,7.0,0.45,0.42500000000000004,-1.0666666666666667,-1.1845833333333333,0,0,1,0.8749345530418496,0.0180980452674897,0.3333333333333333,0.3333333333333333,0.5,0.6666666666666667,-1.5,-1.3333333333333335,2.6666666666666665,2.6666666666666665,0.0,1.0,-1.0,4.0,0,0,0
1.0,0.0,1.0,0.0,2.0,0.0,2.0,0.0,,,,left,2.723820400016848,66.3593494000088,pz19,54.7699627999973,56.78449689998524,66.3593494000088,None,False,5.0,['p'],False,0.3333333333333333,0.5,0.3333333333333333,2.0,1.0,1.0,-0.0025265432098766,wait_cost,1.0,4.0,62.67898490000516,None,pz19,2,2023-04-20_12h03.35.328,threat_forest,2021.2.3,60.03337855754742,False,7.0,0.45,0.42500000000000004,-1.0666666666666667,-1.1845833333333333,0,0,0,1.0020354536675355,-0.0025265432098766,0.3333333333333333,0.3333333333333333,0.5,0.6666666666666667,-1.5,-1.3333333333333335,3.6666666666666665,3.6666666666666665,0.0,1.0,1.0,5.0,0,0,0
1.0,0.0,1.0,0.0,3.0,0.0,3.0,0.0,,,,right,1.860652699979255,74.58495469999616,pz19,74.58495469999616,None,69.10686090000672,71.12125619998551,False,4.0,['p'],True,0.4,0.4,0.0,0.0,1.0,0.6126016192893442,0.0844777777777778,wait_cost,0.0,3.0,71.12125619998551,None,pz19,2,2023-04-20_12h03.35.328,threat_forest,2021.2.3,60.03337855754742,False,7.0,0.45,0.42500000000000004,-1.0666666666666667,-1.1845833333333333,1,0,0,0.6209273401365452,0.0844777777777778,0.4,0.4,0.4,1.0,-0.7999999999999999,-0.7999999999999999,3.2,3.2,1.0,1.0,-1.0,4.0,0,0,1
1.0,0.0,1.0,0.0,4.0,0.0,4.0,0.0,,,,right,1.5041405000083614,79.81342049999512,pz19,79.81342049999512,None,69.10686090000672,71.12125619998551,False,3.0,['p'],True,0.4,0.4,0.0,0.0,1.0,0.6126016192893442,0.1009999999999999,wait_cost,0.0,2.0,78.48101610000595,None,pz19,2,2023-04-20_12h03.35.328,threat_forest,2021.2.3,60.03337855754742,False,7.0,0.45,0.42500000000000004,-1.0666666666666667,-1.1845833333333333,1,0,0,0.4082216387232506,0.1009999999999999,0.4,0.4,0.4,1.0,-0.7999999999999999,-0.7999999999999999,2.2,2.2,1.0,1.0,-1.0,3.0,0,0,1
1.0,0.0,1.0,0.0,5.0,0.0,5.0,0.0,,,,None,,85.1451068999886,pz19,81.34535029999097,83.35979119999683,85.1451068999886,None,False,2.0,['p'],False,0.3333333333333333,0.5,0.3333333333333333,2.0,1.0,1.0,-0.0333333333333334,wait_cost,1.0,1.0,83.35979119999683,None,pz19,2,2023-04-20_12h03.35.328,threat_forest,2021.2.3,60.03337855754742,None,7.0,0.45,0.42500000000000004,-1.0666666666666667,-1.1845833333333333,0,0,0,,-0.0333333333333334,0.3333333333333333,0.3333333333333333,0.5,0.6666666666666667,-1.5,-1.3333333333333335,0.6666666666666665,0.6666666666666665,0.0,1.0,-1.0,2.0,0,0,0
1.0,0.0,1.0,0.0,6.0,0.0,6.0,0.0,,,,right,0.9590735000092536,93.80033530000946,pz19,81.34535029999097,83.35979119999683,93.80033530000946,None,True,1.0,['p'],False,0.3333333333333333,0.5,0.3333333333333333,2.0,1.0,1.0,0.3333333333333332,unsucc_cost,1.0,0.0,90.17005179999978,None,pz19,2,2023-04-20_12h03.35.328,threat_forest,2021.2.3,60.03337855754742,True,7.0,0.45,0.42500000000000004,-1.0666666666666667,-1.1845833333333333,0,0,1,-0.041787564690157666,0.3333333333333332,1.0,0.3333333333333333,0.5,0.6666666666666667,-1.5,-1.3333333333333335,-0.3333333333333335,0.0,0.0,1.0,-1.0,1.0,1,0,0
2.0,0.0,2.0,0.0,0.0,0.0,0.0,0.0,99.9511819999898,103.45766739998362,None,left,1.7653616000025067,106.8394757999922,pz19,99.9511819999898,103.45766739998362,106.8394757999922,None,False,4.0,['r'],False,0.2448979591836734,0.2857142857142857,0.1428571428571428,1.0,1.0,0.8400769154957735,0.0043475630520346,wait_cost,1.0,3.0,,,pz19,2,2023-04-20_12h03.35.328,threat_forest,2021.2.3,60.03337855754742,False,69.0,0.39285714285714285,0.42142857142857143,-1.2665816326530612,-1.166624149659864,0,0,0,0.5683555419244174,0.0043475630520346,0.2448979591836734,0.2448979591836734,0.2857142857142857,0.8571428571428572,-1.5714285714285712,-1.4081632653061225,2.5918367346938775,2.5918367346938775,0.0,1.0,-1.0,4.0,0,0,0
2.0,0.0,2.0,0.0,1.0,0.0,1.0,0.0,,,,right,1.9384834000084084,112.9657968999818,pz19,99.9511819999898,103.45766739998362,112.9657968999818,None,True,3.0,['r'],False,0.2448979591836734,0.2857142857142857,0.1428571428571428,1.0,1.0,0.8400769154957735,0.0163749094113643,unsucc_cost,1.0,1.0,110.6508966999827,None,pz19,2,2023-04-20_12h03.35.328,threat_forest,2021.2.3,60.03337855754742,True,69.0,0.39285714285714285,0.42142857142857143,-1.2665816326530612,-1.166624149659864,0,0,1,0.6619059147743626,0.0163749094113643,0.2448979591836734,0.2448979591836734,0.2857142857142857,0.8571428571428572,-1.5714285714285712,-1.4081632653061225,1.5918367346938775,1.5918367346938775,0.0,1.0,-1.0,3.0,0,0,0
2.0,0.0,2.0,0.0,2.0,0.0,2.0,0.0,,,,left,1.6006612999772187,120.62547619998804,pz19,120.62547619998804,None,114.93063049999182,116.94530329998815,True,1.0,['r'],True,0.375,0.5,0.25,1.0,1.0,0.9850568223215076,0.0465261994774566,succ_gain,0.0,2.0,116.94530329998815,None,pz19,2,2023-04-20_12h03.35.328,threat_forest,2021.2.3,60.03337855754742,True,69.0,0.39285714285714285,0.42142857142857143,-1.2665816326530612,-1.166624149659864,1,0,1,0.47041685634141955,0.0465261994774566,1.0,0.375,0.5,0.75,-1.25,-1.125,-0.125,0.0,1.0,1.0,-1.0,1.0,1,0,1
2.0,0.0,2.0,0.0,3.0,0.0,3.0,0.0,,,,None,,125.92028419999406,pz19,125.92028419999406,None,114.93063049999182,116.94530329998815,False,2.0,['r'],True,0.375,0.5,0.25,1.0,1.0,0.9850568223215076,0.0358404932494761,wait_cost,0.0,1.0,124.27151069999672,None,pz19,2,2023-04-20_12h03.35.328,threat_forest,2021.2.3,60.03337855754742,None,69.0,0.39285714285714285,0.42142857142857143,-1.2665816326530612,-1.166624149659864,1,0,0,,0.0358404932494761,0.375,0.375,0.5,0.75,-1.25,-1.125,0.875,0.875,1.0,1.0,1.0,2.0,0,0,1
2.0,0.0,2.0,0.0,4.0,0.0,4.0,0.0,,,,left,1.9239518999820573,131.9479144999932,pz19,131.9479144999932,None,114.93063049999182,116.94530329998815,True,1.0,['r'],True,0.375,0.5,0.25,1.0,1.0,0.9850568223215076,0.1284279336734693,fight_cost,0.0,0.0,130.94853719999082,None,pz19,2,2023-04-20_12h03.35.328,threat_forest,2021.2.3,60.03337855754742,True,69.0,0.39285714285714285,0.42142857142857143,-1.2665816326530612,-1.166624149659864,1,0,1,0.6543813519216836,0.1284279336734693,1.0,0.375,0.5,0.75,-1.25,-1.125,-0.125,0.0,1.0,1.0,-1.0,1.0,1,0,1
3.0,0.0,3.0,0.0,0.0,0.0,0.0,0.0,138.84923309998703,142.3546177999815,None,None,,146.0851954999962,pz19,138.84923309998703,142.3546177999815,146.0851954999962,None,False,5.0,['r'],False,0.4444444444444445,0.6666666666666666,0.3333333333333333,1.0,1.0,0.9656336071428248,0.0498748920388152,wait_cost,1.0,4.0,,,pz19,2,2023-04-20_12h03.35.328,threat_forest,2021.2.3,60.03337855754742,None,56.0,0.4444444444444444,0.4186507936507936,-1.1666666666666667,-1.216624149659864,1,1,0,,0.0498748920388152,0.4444444444444445,0.4444444444444445,0.6666666666666666,0.6666666666666667,-1.0,-1.0,4.0,4.0,0.0,1.0,-1.0,5.0,0,1,1
3.0,0.0,3.0,0.0,1.0,0.0,1.0,0.0,,,,right,1.1521989000029862,151.8321608999977,pz19,151.8321608999977,None,149.09854449998238,151.11295390001033,False,4.0,['r'],True,0.2222222222222222,0.2222222222222222,0.0,0.0,1.0,0.4821593609696809,-0.0129193551118561,wait_cost,0.0,3.0,151.11295390001033,None,pz19,2,2023-04-20_12h03.35.328,threat_forest,2021.2.3,60.03337855754742,False,56.0,0.4444444444444444,0.4186507936507936,-1.1666666666666667,-1.216624149659864,0,0,0,0.14167220362291633,-0.0129193551118561,0.2222222222222222,0.2222222222222222,0.2222222222222222,1.0,-1.3333333333333335,-1.3333333333333335,2.6666666666666665,2.6666666666666665,1.0,1.0,-1.0,4.0,0,0,0
3.0,0.0,3.0,0.0,2.0,0.0,2.0,0.0,,,,right,2.0475051999965217,158.47332950000418,pz19,158.47332950000418,None,149.09854449998238,151.11295390001033,False,3.0,['r'],True,0.2222222222222222,0.2222222222222222,0.0,0.0,1.0,0.4821593609696809,-0.0085733882030176,wait_cost,0.0,2.0,155.0259729999816,None,pz19,2,2023-04-20_12h03.35.328,threat_forest,2021.2.3,60.03337855754742,False,56.0,0.4444444444444444,0.4186507936507936,-1.1666666666666667,-1.216624149659864,0,0,0,0.7166220764227034,-0.0085733882030176,0.2222222222222222,0.2222222222222222,0.2222222222222222,1.0,-1.3333333333333335,-1.3333333333333335,1.6666666666666665,1.6666666666666665,1.0,1.0,-1.0,3.0,0,0,0
3.0,0.0,3.0,0.0,3.0,0.0,3.0,0.0,,,,right,0.9915521999937482,165.44985179998912,pz19,160.53780339998775,162.55236820000573,165.44985179998912,None,True,2.0,['r'],False,0.4444444444444445,0.6666666666666666,0.3333333333333333,1.0,1.0,0.9656336071428248,0.0619570187471422,fight_cost,1.0,0.0,162.55236820000573,None,pz19,2,2023-04-20_12h03.35.328,threat_forest,2021.2.3,60.03337855754742,True,56.0,0.4444444444444444,0.4186507936507936,-1.1666666666666667,-1.216624149659864,1,1,1,-0.00848368491064047,0.0619570187471422,0.4444444444444445,0.4444444444444445,0.6666666666666666,0.6666666666666667,-1.0,-1.0,1.0,1.0,0.0,1.0,-1.0,2.0,0,1,1
4.0,0.0,4.0,0.0,0.0,0.0,0.0,0.0,172.06921230000444,175.5736184999987,None,right,2.124927900003968,176.50638499998604,pz19,172.06921230000444,175.5736184999987,176.50638499998604,None,True,5.0,['r'],False,0.5,0.5,0.0,0.0,2.0,0.6309297535714574,0.0540215703294548,unsucc_cost,1.0,3.0,,,pz19,2,2023-04-20_12h03.35.328,threat_forest,2021.2.3,60.03337855754742,True,58.0,0.5357142857142857,0.49007936507936506,-0.326530612244898,-0.7465986394557824,1,1,1,0.7537378723908672,0.0540215703294548,0.5,0.5,0.5,1.0,0.0,0.0,5.0,5.0,0.0,2.0,-1.0,5.0,0,1,1
4.0,0.0,4.0,0.0,1.0,0.0,1.0,0.0,,,,left,1.7138261000218336,183.10221149999416,pz19,183.10221149999416,None,178.65423419998842,180.66865609999513,True,3.0,['r'],True,0.4081632653061224,0.5714285714285714,0.2857142857142857,2.0,2.0,0.9885754083994552,0.0633701866529412,unsucc_cost,0.0,1.0,180.66865609999516,None,pz19,2,2023-04-20_12h03.35.328,threat_forest,2021.2.3,60.03337855754742,True,58.0,0.5357142857142857,0.49007936507936506,-0.326530612244898,-0.7465986394557824,1,0,1,0.5387283564646288,0.0633701866529412,0.4081632653061224,0.4081632653061224,0.5714285714285714,0.7142857142857143,-0.5714285714285715,-0.653061224489796,2.3469387755102042,2.3469387755102042,1.0,2.0,-1.0,3.0,0,0,1
4.0,0.0,4.0,0.0,2.0,0.0,2.0,0.0,,,,right,1.195310300012352,187.74566559999948,pz19,184.8486159000022,186.86288500000956,187.74566559999948,None,True,1.0,['r'],False,0.5,0.5,0.0,0.0,2.0,0.6309297535714574,0.285343093437332,succ_gain,1.0,3.0,186.8628850000096,None,pz19,2,2023-04-20_12h03.35.328,threat_forest,2021.2.3,60.03337855754742,True,58.0,0.5357142857142857,0.49007936507936506,-0.326530612244898,-0.7465986394557824,1,1,1,0.17840581695858237,0.285343093437332,1.0,0.5,0.5,1.0,0.0,0.0,1.0,1.0,0.0,2.0,-1.0,1.0,1,1,1
4.0,0.0,4.0,0.0,3.0,0.0,3.0,0.0,,,,left,2.073211000009905,192.30939459998623,pz19,192.30939459998623,None,188.9612264999887,190.97573229999398,True,3.0,['r'],True,0.4081632653061224,0.5714285714285714,0.2857142857142857,2.0,2.0,0.9885754083994552,0.0196828699073915,fight_cost,0.0,0.0,190.975732299994,None,pz19,2,2023-04-20_12h03.35.328,threat_forest,2021.2.3,60.03337855754742,True,58.0,0.5357142857142857,0.49007936507936506,-0.326530612244898,-0.7465986394557824,1,0,1,0.7290986131315638,0.0196828699073915,0.4081632653061224,0.4081632653061224,0.5714285714285714,0.7142857142857143,-0.5714285714285715,-0.653061224489796,2.3469387755102042,2.3469387755102042,1.0,2.0,1.0,3.0,0,0,1
5.0,0.0,5.0,0.0,0.0,0.0,0.0,0.0,198.1621049999958,201.6658024000062,None,left,1.8023090999922715,203.69767739999224,pz19,198.1621049999958,201.6658024000062,203.69767739999224,None,False,5.0,['r'],False,0.4,0.4,0.0,0.0,2.0,0.6126016192893442,0.0501704926254868,wait_cost,1.0,4.0,,,pz19,2,2023-04-20_12h03.35.328,threat_forest,2021.2.3,60.03337855754742,False,33.0,0.41428571428571426,0.475,-0.7306122448979593,-0.5285714285714287,1,0,0,0.5890686761035104,0.0501704926254868,0.4,0.4,0.4,1.0,-0.3999999999999999,-0.3999999999999999,4.6,4.6,0.0,2.0,-1.0,5.0,0,0,1
5.0,0.0,5.0,0.0,1.0,0.0,1.0,0.0,,,,right,1.1752590000105556,210.4744306000066,pz19,198.1621049999958,201.6658024000062,210.4744306000066,None,True,4.0,['r'],False,0.4,0.4,0.0,0.0,2.0,0.6126016192893442,0.0773262829540863,succ_gain,1.0,6.0,207.54364190000345,None,pz19,2,2023-04-20_12h03.35.328,threat_forest,2021.2.3,60.03337855754742,True,33.0,0.41428571428571426,0.475,-0.7306122448979593,-0.5285714285714287,1,0,1,0.16148854884688052,0.0773262829540863,0.4,0.4,0.4,1.0,-0.3999999999999999,-0.3999999999999999,3.6,3.6,0.0,2.0,-1.0,4.0,0,0,1
5.0,0.0,5.0,0.0,2.0,0.0,2.0,0.0,,,,right,1.1456252999778371,216.13987759998415,pz19,216.13987759998415,None,211.67349250000552,213.68785049999133,False,6.0,['r'],True,0.3061224489795918,0.4285714285714285,0.2857142857142857,2.0,2.0,0.9885754083994552,-0.0044231368164932,wait_cost,0.0,5.0,213.68785049999133,None,pz19,2,2023-04-20_12h03.35.328,threat_forest,2021.2.3,60.03337855754742,False,33.0,0.41428571428571426,0.475,-0.7306122448979593,-0.5285714285714287,0,0,0,0.13595060145824625,-0.0044231368164932,0.3061224489795918,0.3061224489795918,0.4285714285714285,0.7142857142857143,-1.1428571428571432,-1.0612244897959187,4.938775510204081,4.938775510204081,1.0,2.0,1.0,6.0,0,0,0
5.0,0.0,5.0,0.0,3.0,0.0,3.0,0.0,,,,None,,221.5655320000078,pz19,217.3181345000048,219.33258919999935,221.5655320000078,None,False,5.0,['r'],False,0.4,0.4,0.0,0.0,2.0,0.6126016192893442,0.1253190337359433,wait_cost,1.0,4.0,219.33258919999932,None,pz19,2,2023-04-20_12h03.35.328,threat_forest,2021.2.3,60.03337855754742,None,33.0,0.41428571428571426,0.475,-0.7306122448979593,-0.5285714285714287,1,0,0,,0.1253190337359433,0.4,0.4,0.4,1.0,-0.3999999999999999,-0.3999999999999999,4.6,4.6,0.0,2.0,-1.0,5.0,0,0,1
5.0,0.0,5.0,0.0,4.0,0.0,4.0,0.0,,,,right,0.7986230000096839,229.1403403999866,pz19,229.1403403999866,None,224.57805569999616,226.59247850000975,False,4.0,['r'],True,0.3061224489795918,0.4285714285714285,0.2857142857142857,2.0,2.0,0.9885754083994552,0.0296501457725947,wait_cost,0.0,3.0,226.59247850000972,None,pz19,2,2023-04-20_12h03.35.328,threat_forest,2021.2.3,60.03337855754742,False,33.0,0.41428571428571426,0.475,-0.7306122448979593,-0.5285714285714287,0,0,0,-0.2248662843549127,0.0296501457725947,0.3061224489795918,0.3061224489795918,0.4285714285714285,0.7142857142857143,-1.1428571428571432,-1.0612244897959187,2.9387755102040813,2.9387755102040813,1.0,2.0,-1.0,4.0,0,0,0
5.0,0.0,5.0,0.0,5.0,0.0,5.0,0.0,,,,left,1.1909703999990595,233.18690790000252,pz19,233.18690790000252,None,224.57805569999616,226.59247850000975,True,3.0,['r'],True,0.3061224489795918,0.4285714285714285,0.2857142857142857,2.0,2.0,0.9885754083994552,0.0736984589754268,fight_cost,0.0,0.0,231.9707506999839,None,pz19,2,2023-04-20_12h03.35.328,threat_forest,2021.2.3,60.03337855754742,True,33.0,0.41428571428571426,0.475,-0.7306122448979593,-0.5285714285714287,0,0,1,0.17476843699887928,0.0736984589754268,0.3061224489795918,0.3061224489795918,0.4285714285714285,0.7142857142857143,-1.1428571428571432,-1.0612244897959187,1.9387755102040813,1.9387755102040813,1.0,2.0,-1.0,3.0,0,0,0
6.0,0.0,6.0,0.0,0.0,0.0,0.0,0.0,238.35907030000817,241.86142139998265,None,left,1.8534023000102025,243.4630411999824,pz19,238.35907030000817,241.86142139998265,243.4630411999824,None,False,4.0,['r'],False,0.1975308641975308,0.2222222222222222,0.1111111111111111,1.0,2.0,0.7461067557824965,-0.0032005207389234,wait_cost,1.0,3.0,,,pz19,2,2023-04-20_12h03.35.328,threat_forest,2021.2.3,60.03337855754742,False,12.0,0.3111111111111111,0.3626984126984127,-1.1204938271604938,-0.9255530360292266,0,0,0,0.617023031137744,-0.0032005207389234,0.1975308641975308,0.1975308641975308,0.2222222222222222,0.8888888888888888,-1.4444444444444444,-1.3209876543209877,2.6790123456790123,2.6790123456790123,0.0,2.0,-1.0,4.0,0,0,0
6.0,0.0,6.0,0.0,1.0,0.0,1.0,0.0,,,,right,0.9791510000068228,250.77018150000367,pz19,238.35907030000817,241.86142139998265,250.77018150000367,None,True,3.0,['r'],False,0.1975308641975308,0.2222222222222222,0.1111111111111111,1.0,2.0,0.7461067557824965,0.0285033215499423,unsucc_cost,1.0,1.0,247.35632819999591,None,pz19,2,2023-04-20_12h03.35.328,threat_forest,2021.2.3,60.03337855754742,True,12.0,0.3111111111111111,0.3626984126984127,-1.1204938271604938,-0.9255530360292266,0,0,1,-0.021069409318865674,0.0285033215499423,0.1975308641975308,0.1975308641975308,0.2222222222222222,0.8888888888888888,-1.4444444444444444,-1.3209876543209877,1.6790123456790123,1.6790123456790123,0.0,2.0,-1.0,3.0,0,0,0
6.0,0.0,6.0,0.0,2.0,0.0,2.0,0.0,,,,left,1.723870199988596,257.0478879000002,pz19,257.0478879000002,None,251.76921030000085,253.7836835999915,True,1.0,['r'],True,0.32,0.4,0.2,1.0,2.0,0.9455672104350704,0.1056555783466974,succ_gain,0.0,3.0,253.7836835999915,None,pz19,2,2023-04-20_12h03.35.328,threat_forest,2021.2.3,60.03337855754742,True,12.0,0.3111111111111111,0.3626984126984127,-1.1204938271604938,-0.9255530360292266,1,0,1,0.544571879377248,0.1056555783466974,1.0,0.32,0.4,0.8,-1.0,-0.92,0.07999999999999996,0.07999999999999996,1.0,2.0,-1.0,1.0,1,0,1
6.0,0.0,6.0,0.0,3.0,0.0,3.0,0.0,,,,left,1.9970677999954205,261.7273729000008,pz19,258.79598510000505,260.81034799999907,261.7273729000008,None,False,3.0,['r'],False,0.1975308641975308,0.2222222222222222,0.1111111111111111,1.0,2.0,0.7461067557824965,-0.0184459793575449,wait_cost,1.0,2.0,260.81034799999907,None,pz19,2,2023-04-20_12h03.35.328,threat_forest,2021.2.3,60.03337855754742,False,12.0,0.3111111111111111,0.3626984126984127,-1.1204938271604938,-0.9255530360292266,0,0,0,0.691680004781455,-0.0184459793575449,0.1975308641975308,0.1975308641975308,0.2222222222222222,0.8888888888888888,-1.4444444444444444,-1.3209876543209877,1.6790123456790123,1.6790123456790123,0.0,2.0,1.0,3.0,0,0,0
6.0,0.0,6.0,0.0,4.0,0.0,4.0,0.0,,,,left,1.888677500013728,266.4392391000001,pz19,258.79598510000505,260.81034799999907,266.4392391000001,None,False,2.0,['r'],False,0.1975308641975308,0.2222222222222222,0.1111111111111111,1.0,2.0,0.7461067557824965,-0.0612345679012346,wait_cost,1.0,1.0,265.7557958999824,None,pz19,2,2023-04-20_12h03.35.328,threat_forest,2021.2.3,60.03337855754742,False,12.0,0.3111111111111111,0.3626984126984127,-1.1204938271604938,-0.9255530360292266,0,0,0,0.6358768486999705,-0.0612345679012346,0.1975308641975308,0.1975308641975308,0.2222222222222222,0.8888888888888888,-1.4444444444444444,-1.3209876543209877,0.6790123456790123,0.6790123456790123,0.0,2.0,-1.0,2.0,0,0,0
6.0,0.0,6.0,0.0,5.0,0.0,5.0,0.0,,,,right,0.8123808999953326,271.05151200000546,pz19,258.79598510000505,260.81034799999907,271.05151200000546,None,True,1.0,['r'],False,0.1975308641975308,0.2222222222222222,0.1111111111111111,1.0,2.0,0.7461067557824965,0.1975308641975308,unsucc_cost,1.0,0.0,270.36812729999656,None,pz19,2,2023-04-20_12h03.35.328,threat_forest,2021.2.3,60.03337855754742,True,12.0,0.3111111111111111,0.3626984126984127,-1.1204938271604938,-0.9255530360292266,0,0,1,-0.2077859601439492,0.1975308641975308,1.0,0.1975308641975308,0.2222222222222222,0.8888888888888888,-1.4444444444444444,-1.3209876543209877,-0.32098765432098775,0.0,0.0,2.0,-1.0,1.0,1,0,0
7.0,0.0,7.0,0.0,0.0,0.0,0.0,0.0,276.28985040000407,279.7926046999928,None,right,2.126983200025279,281.8915542000032,pz19,281.8915542000032,None,276.28985040000407,279.7926046999928,False,4.0,['p'],True,0.2,0.2,0.0,0.0,2.0,0.4554859150035951,0.0111872651087291,wait_cost,0.0,3.0,,,pz19,2,2023-04-20_12h03.35.328,threat_forest,2021.2.3,60.03337855754742,False,26.0,0.2111111111111111,0.2611111111111111,-1.3654320987654323,-1.242962962962963,1,0,0,0.7547046377502731,0.0111872651087291,0.2,0.2,0.2,1.0,-1.2000000000000002,-1.2000000000000002,2.8,2.8,1.0,2.0,-1.0,4.0,0,0,1
7.0,0.0,7.0,0.0,1.0,0.0,1.0,0.0,,,,right,0.9002968999848235,289.03438150000875,pz19,289.03438150000875,None,276.28985040000407,279.7926046999928,False,3.0,['p'],True,0.2,0.2,0.0,0.0,2.0,0.4554859150035951,0.042656268684952,wait_cost,0.0,2.0,286.0535011999891,None,pz19,2,2023-04-20_12h03.35.328,threat_forest,2021.2.3,60.03337855754742,False,26.0,0.2111111111111111,0.2611111111111111,-1.3654320987654323,-1.242962962962963,1,0,0,-0.10503068118717014,0.042656268684952,0.2,0.2,0.2,1.0,-1.2000000000000002,-1.2000000000000002,1.7999999999999998,1.7999999999999998,1.0,2.0,-1.0,3.0,0,0,1
7.0,0.0,7.0,0.0,2.0,0.0,2.0,0.0,,,,right,1.205723899998702,295.7115886999818,pz19,295.7115886999818,None,276.28985040000407,279.7926046999928,False,2.0,['p'],True,0.2,0.2,0.0,0.0,2.0,0.4554859150035951,0.0080294181291996,wait_cost,0.0,1.0,291.981157000002,None,pz19,2,2023-04-20_12h03.35.328,threat_forest,2021.2.3,60.03337855754742,False,26.0,0.2111111111111111,0.2611111111111111,-1.3654320987654323,-1.242962962962963,1,0,0,0.18708013345333366,0.0080294181291996,0.2,0.2,0.2,1.0,-1.2000000000000002,-1.2000000000000002,0.7999999999999998,0.7999999999999998,1.0,2.0,-1.0,2.0,0,0,1
7.0,0.0,7.0,0.0,3.0,0.0,3.0,0.0,,,,right,1.497607099998277,301.67319880001014,pz19,296.9435567999899,298.9579193999816,301.67319880001014,None,True,1.0,['p'],False,0.1728395061728395,0.2222222222222222,0.2222222222222222,2.0,2.0,0.8571721972794328,0.0548547439885143,unsucc_cost,1.0,0.0,298.9579193999816,None,pz19,2,2023-04-20_12h03.35.328,threat_forest,2021.2.3,60.03337855754742,True,26.0,0.2111111111111111,0.2611111111111111,-1.3654320987654323,-1.242962962962963,0,0,1,0.40386856764760526,0.0548547439885143,1.0,0.1728395061728395,0.2222222222222222,0.7777777777777778,-1.7777777777777777,-1.5308641975308643,-0.5308641975308643,0.0,0.0,2.0,-1.0,1.0,1,0,0
8.0,0.0,8.0,0.0,0.0,0.0,0.0,0.0,307.12724870000966,310.6278362000012,None,left,1.3512021000206005,313.69493279999006,pz19,313.69493279999006,None,307.12724870000966,310.6278362000012,True,5.0,['p'],True,0.4444444444444445,0.6666666666666666,0.3333333333333333,1.0,1.0,0.9656336071428248,0.0469296874463657,unsucc_cost,0.0,3.0,,,pz19,2,2023-04-20_12h03.35.328,threat_forest,2021.2.3,60.03337855754742,True,6.0,0.4833333333333333,0.3472222222222222,-1.145,-1.255216049382716,1,1,1,0.30099464069955906,0.0469296874463657,0.4444444444444445,0.4444444444444445,0.6666666666666666,0.6666666666666667,-1.0,-1.0,4.0,4.0,1.0,1.0,-1.0,5.0,0,1,1
8.0,0.0,8.0,0.0,1.0,0.0,1.0,0.0,,,,left,1.9741252000094391,318.84359000000404,pz19,315.07657979999203,317.0910972999991,318.84359000000404,None,False,3.0,['p'],False,0.27,0.3,0.1,1.0,1.0,0.7963326591781347,0.0245610646182661,wait_cost,1.0,2.0,317.0910972999991,None,pz19,2,2023-04-20_12h03.35.328,threat_forest,2021.2.3,60.03337855754742,False,6.0,0.4833333333333333,0.3472222222222222,-1.145,-1.255216049382716,0,0,0,0.6801253635235652,0.0245610646182661,0.27,0.27,0.3,0.9,-1.4,-1.29,1.71,1.71,0.0,1.0,-1.0,3.0,0,0,0
8.0,0.0,8.0,0.0,2.0,0.0,2.0,0.0,,,,left,1.0404485000181012,325.5171393000055,pz19,325.5171393000055,None,320.83804780000355,322.852341299993,True,2.0,['p'],True,0.4444444444444445,0.6666666666666666,0.3333333333333333,1.0,1.0,0.9656336071428248,0.0498588341135115,succ_gain,0.0,3.0,322.852341299993,None,pz19,2,2023-04-20_12h03.35.328,threat_forest,2021.2.3,60.03337855754742,True,6.0,0.4833333333333333,0.3472222222222222,-1.145,-1.255216049382716,1,1,1,0.039651870209123016,0.0498588341135115,0.4444444444444445,0.4444444444444445,0.6666666666666666,0.6666666666666667,-1.0,-1.0,1.0,1.0,1.0,1.0,-1.0,2.0,0,1,1
8.0,0.0,8.0,0.0,3.0,0.0,3.0,0.0,,,,left,2.540823100018315,332.2272636999842,pz19,332.2272636999842,None,320.83804780000355,322.852341299993,True,3.0,['p'],True,0.4444444444444445,0.6666666666666666,0.3333333333333333,1.0,1.0,0.9656336071428248,0.0954820524691357,succ_gain,0.0,4.0,328.5969635999936,None,pz19,2,2023-04-20_12h03.35.328,threat_forest,2021.2.3,60.03337855754742,True,6.0,0.4833333333333333,0.3472222222222222,-1.145,-1.255216049382716,1,1,1,0.9324880836612444,0.0954820524691357,0.4444444444444445,0.4444444444444445,0.6666666666666666,0.6666666666666667,-1.0,-1.0,2.0,2.0,1.0,1.0,1.0,3.0,0,1,1
8.0,0.0,8.0,0.0,4.0,0.0,4.0,0.0,,,,left,1.3988836999924388,339.8570270999917,pz19,334.79137240001,336.80619000000297,339.8570270999917,None,False,4.0,['p'],False,0.27,0.3,0.1,1.0,1.0,0.7963326591781347,0.0274050771604937,wait_cost,1.0,3.0,336.80619000000297,None,pz19,2,2023-04-20_12h03.35.328,threat_forest,2021.2.3,60.03337855754742,False,6.0,0.4833333333333333,0.3472222222222222,-1.145,-1.255216049382716,0,0,0,0.335674561414662,0.0274050771604937,0.27,0.27,0.3,0.9,-1.4,-1.29,2.71,2.71,0.0,1.0,1.0,4.0,0,0,0
8.0,0.0,8.0,0.0,5.0,0.0,5.0,0.0,,,,right,2.533095899998443,343.999619899987,pz19,343.999619899987,None,341.2854500999965,343.2746521999943,False,3.0,['p'],True,0.4444444444444445,0.6666666666666666,0.3333333333333333,1.0,1.0,0.9656336071428248,0.1229938271604937,wait_cost,0.0,2.0,343.2746521999943,None,pz19,2,2023-04-20_12h03.35.328,threat_forest,2021.2.3,60.03337855754742,False,6.0,0.4833333333333333,0.3472222222222222,-1.145,-1.255216049382716,1,1,0,0.9294422305470117,0.1229938271604937,0.4444444444444445,0.4444444444444445,0.6666666666666666,0.6666666666666667,-1.0,-1.0,2.0,2.0,1.0,1.0,-1.0,3.0,0,1,1
8.0,0.0,8.0,0.0,6.0,0.0,6.0,0.0,,,,left,1.8539110000128856,352.12516209998284,pz19,352.12516209998284,None,341.2854500999965,343.2746521999943,True,2.0,['p'],True,0.4444444444444445,0.6666666666666666,0.3333333333333333,1.0,1.0,0.9656336071428248,0.0872222222222222,succ_gain,0.0,3.0,348.57837040000595,None,pz19,2,2023-04-20_12h03.35.328,threat_forest,2021.2.3,60.03337855754742,True,6.0,0.4833333333333333,0.3472222222222222,-1.145,-1.255216049382716,1,1,1,0.6172974616833753,0.0872222222222222,0.4444444444444445,0.4444444444444445,0.6666666666666666,0.6666666666666667,-1.0,-1.0,1.0,1.0,1.0,1.0,-1.0,2.0,0,1,1
8.0,0.0,8.0,0.0,7.0,0.0,7.0,0.0,,,,right,2.3576983000093605,358.3046934999875,pz19,354.0067896999826,356.0213586000027,358.3046934999875,None,True,3.0,['p'],False,0.27,0.3,0.1,1.0,1.0,0.7963326591781347,-0.1,fight_cost,1.0,0.0,356.0213586000027,None,pz19,2,2023-04-20_12h03.35.328,threat_forest,2021.2.3,60.03337855754742,True,6.0,0.4833333333333333,0.3472222222222222,-1.145,-1.255216049382716,0,0,1,0.8576858465201189,-0.1,0.0,0.27,0.3,0.9,-1.4,-1.29,1.71,1.71,0.0,1.0,1.0,3.0,0,0,0
9.0,0.0,9.0,0.0,0.0,0.0,0.0,0.0,363.7897524999862,367.294108800008,None,right,1.7108171999861952,368.09370589998434,pz19,363.7897524999862,367.29410880000796,368.09370589998434,None,True,4.0,['r'],False,0.6,0.6,0.0,0.0,2.0,0.6126016192893442,0.0913331728581944,succ_gain,1.0,6.0,,,pz19,2,2023-04-20_12h03.35.328,threat_forest,2021.2.3,60.03337855754742,True,62.0,0.6125,0.5479166666666666,0.012499999999999956,-0.56625,1,1,1,0.5369711510880197,0.0913331728581944,0.6,0.6,0.6,1.0,0.3999999999999999,0.3999999999999999,4.4,4.4,0.0,2.0,-1.0,4.0,0,1,1
9.0,0.0,9.0,0.0,1.0,0.0,1.0,0.0,,,,None,,373.5054780000064,pz19,363.7897524999862,367.29410880000796,373.5054780000064,None,False,6.0,['r'],False,0.6,0.6,0.0,0.0,2.0,0.6126016192893442,-0.0002662081003189,wait_cost,1.0,5.0,371.839890800009,None,pz19,2,2023-04-20_12h03.35.328,threat_forest,2021.2.3,60.03337855754742,None,62.0,0.6125,0.5479166666666666,0.012499999999999956,-0.56625,1,1,0,,-0.0002662081003189,0.6,0.6,0.6,1.0,0.3999999999999999,0.3999999999999999,6.4,6.0,0.0,2.0,1.0,6.0,0,1,1
9.0,0.0,9.0,0.0,2.0,0.0,2.0,0.0,,,,left,1.774167800002033,381.9669397999824,pz19,381.9669397999824,None,376.5193146000093,378.53370229998836,True,5.0,['r'],True,0.46875,0.625,0.25,2.0,2.0,0.9634951148421658,-0.0122776407927275,unsucc_cost,0.0,3.0,378.5337022999884,None,pz19,2,2023-04-20_12h03.35.328,threat_forest,2021.2.3,60.03337855754742,True,62.0,0.6125,0.5479166666666666,0.012499999999999956,-0.56625,1,0,1,0.5733314679158872,-0.0122776407927275,0.46875,0.46875,0.625,0.75,-0.25,-0.375,4.625,4.625,1.0,2.0,-1.0,5.0,0,0,1
9.0,0.0,9.0,0.0,3.0,0.0,3.0,0.0,,,,right,1.0443681000033394,387.3091551999969,pz19,383.76244689998566,385.77693329998874,387.3091551999969,None,True,3.0,['r'],False,0.6,0.6,0.0,0.0,2.0,0.6126016192893442,0.1859422485351562,unsucc_cost,1.0,1.0,385.7769332999888,None,pz19,2,2023-04-20_12h03.35.328,threat_forest,2021.2.3,60.03337855754742,True,62.0,0.6125,0.5479166666666666,0.012499999999999956,-0.56625,1,1,1,0.04341201352663133,0.1859422485351562,0.6,0.6,0.6,1.0,0.3999999999999999,0.3999999999999999,3.4,3.4,0.0,2.0,-1.0,3.0,0,1,1
9.0,0.0,9.0,0.0,4.0,0.0,4.0,0.0,,,,left,0.8001799999910872,393.503366799996,pz19,393.503366799996,None,388.3747538999887,390.3893165999907,True,1.0,['r'],True,0.46875,0.625,0.25,2.0,2.0,0.9634951148421658,0.3358108520507812,unsucc_cost,0.0,0.0,390.3893165999907,None,pz19,2,2023-04-20_12h03.35.328,threat_forest,2021.2.3,60.03337855754742,True,62.0,0.6125,0.5479166666666666,0.012499999999999956,-0.56625,1,0,1,-0.22291857663405196,0.3358108520507812,1.0,0.46875,0.625,0.75,-0.25,-0.375,0.625,0.625,1.0,2.0,-1.0,1.0,1,0,1
10.0,0.0,10.0,0.0,0.0,0.0,0.0,0.0,400.0215229000023,403.526953099994,None,left,2.0073738000064623,405.5940494000097,pz19,400.0215229000023,403.526953099994,405.5940494000097,None,False,4.0,['r'],False,0.4081632653061224,0.5714285714285714,0.2857142857142857,2.0,2.0,0.9885754083994552,0.0102904310319958,wait_cost,1.0,3.0,,,pz19,2,2023-04-20_12h03.35.328,threat_forest,2021.2.3,60.03337855754742,False,14.0,0.5357142857142857,0.5741071428571429,-0.326530612244898,-0.15701530612244902,0,0,0,0.69682730060693,0.0102904310319958,0.4081632653061224,0.4081632653061224,0.5714285714285714,0.7142857142857143,-0.5714285714285715,-0.653061224489796,3.3469387755102042,3.3469387755102042,0.0,2.0,-1.0,4.0,0,0,0
10.0,0.0,10.0,0.0,1.0,0.0,1.0,0.0,,,,right,1.3199737999821082,413.0184377999976,pz19,400.0215229000023,403.526953099994,413.0184377999976,None,True,3.0,['r'],False,0.4081632653061224,0.5714285714285714,0.2857142857142857,2.0,2.0,0.9885754083994552,0.0633701866529412,succ_gain,1.0,5.0,409.6378585000057,None,pz19,2,2023-04-20_12h03.35.328,threat_forest,2021.2.3,60.03337855754742,True,14.0,0.5357142857142857,0.5741071428571429,-0.326530612244898,-0.15701530612244902,0,0,1,0.27761188790289254,0.0633701866529412,0.4081632653061224,0.4081632653061224,0.5714285714285714,0.7142857142857143,-0.5714285714285715,-0.653061224489796,2.3469387755102042,2.3469387755102042,0.0,2.0,-1.0,3.0,0,0,0
10.0,0.0,10.0,0.0,2.0,0.0,2.0,0.0,,,,left,1.501039299997501,420.1450257999823,pz19,420.1450257999823,None,414.3672253999976,416.38154119998217,True,5.0,['r'],True,0.5,0.5,0.0,0.0,2.0,0.6309297535714574,0.0975307235914345,unsucc_cost,0.0,3.0,416.38154119998217,None,pz19,2,2023-04-20_12h03.35.328,threat_forest,2021.2.3,60.03337855754742,True,14.0,0.5357142857142857,0.5741071428571429,-0.326530612244898,-0.15701530612244902,1,0,1,0.4061577348518733,0.0975307235914345,0.5,0.5,0.5,1.0,0.0,0.0,5.0,5.0,1.0,2.0,1.0,5.0,0,0,1
10.0,0.0,10.0,0.0,3.0,0.0,3.0,0.0,,,,left,0.862681699974928,426.9720293999999,pz19,426.9720293999999,None,414.3672253999976,416.38154119998217,True,3.0,['r'],True,0.5,0.5,0.0,0.0,2.0,0.6309297535714574,0.1676078711888753,unsucc_cost,0.0,1.0,423.6914251999988,None,pz19,2,2023-04-20_12h03.35.328,threat_forest,2021.2.3,60.03337855754742,True,14.0,0.5357142857142857,0.5741071428571429,-0.326530612244898,-0.15701530612244902,1,0,1,-0.1477094856261246,0.1676078711888753,0.5,0.5,0.5,1.0,0.0,0.0,3.0,3.0,1.0,2.0,-1.0,3.0,0,0,1
10.0,0.0,10.0,0.0,4.0,0.0,4.0,0.0,,,,left,0.8273937999911141,433.5658196999866,pz19,433.5658196999866,None,414.3672253999976,416.38154119998217,True,1.0,['r'],True,0.5,0.5,0.0,0.0,2.0,0.6309297535714574,0.3185521657642649,succ_gain,0.0,3.0,429.8690181999991,None,pz19,2,2023-04-20_12h03.35.328,threat_forest,2021.2.3,60.03337855754742,True,14.0,0.5357142857142857,0.5741071428571429,-0.326530612244898,-0.15701530612244902,1,0,1,-0.1894745183463119,0.3185521657642649,1.0,0.5,0.5,1.0,0.0,0.0,1.0,1.0,1.0,2.0,-1.0,1.0,1,0,1
10.0,0.0,10.0,0.0,5.0,0.0,5.0,0.0,,,,left,1.2806067999918014,437.9949938000064,pz19,437.9949938000064,None,414.3672253999976,416.38154119998217,True,3.0,['r'],True,0.5,0.5,0.0,0.0,2.0,0.6309297535714574,0.25,unsucc_cost,0.0,1.0,436.4294599999848,None,pz19,2,2023-04-20_12h03.35.328,threat_forest,2021.2.3,60.03337855754742,True,14.0,0.5357142857142857,0.5741071428571429,-0.326530612244898,-0.15701530612244902,1,0,1,0.24733402809299693,0.25,0.5,0.5,0.5,1.0,0.0,0.0,3.0,3.0,1.0,2.0,1.0,3.0,0,0,1
10.0,0.0,10.0,0.0,6.0,0.0,6.0,0.0,,,,left,0.7013116000161972,444.6387690999836,pz19,444.6387690999836,None,414.3672253999976,416.38154119998217,True,1.0,['r'],True,0.5,0.5,0.0,0.0,2.0,0.6309297535714574,0.5,succ_gain,0.0,3.0,441.3110300999833,None,pz19,2,2023-04-20_12h03.35.328,threat_forest,2021.2.3,60.03337855754742,True,14.0,0.5357142857142857,0.5741071428571429,-0.326530612244898,-0.15701530612244902,1,0,1,-0.35480298284286294,0.5,1.0,0.5,0.5,1.0,0.0,0.0,1.0,1.0,1.0,2.0,-1.0,1.0,1,0,1
10.0,0.0,10.0,0.0,7.0,0.0,7.0,0.0,,,,left,2.4863744000031147,449.1527060999943,pz19,445.3714457000024,447.3859289000102,449.1527060999943,None,False,3.0,['r'],False,0.4081632653061224,0.5714285714285714,0.2857142857142857,2.0,2.0,0.9885754083994552,-0.2857142857142857,wait_cost,1.0,2.0,447.3859289000102,None,pz19,2,2023-04-20_12h03.35.328,threat_forest,2021.2.3,60.03337855754742,False,14.0,0.5357142857142857,0.5741071428571429,-0.326530612244898,-0.15701530612244902,0,0,0,0.9108255851291437,-0.2857142857142857,0.0,0.4081632653061224,0.5714285714285714,0.7142857142857143,-0.5714285714285715,-0.653061224489796,2.3469387755102042,2.3469387755102042,0.0,2.0,1.0,3.0,0,0,0
11.0,0.0,11.0,0.0,0.0,0.0,0.0,0.0,457.0536845999886,460.5568505999981,None,right,2.0253372000006493,463.6380729000084,pz19,457.0536845999886,460.55685059999814,463.6380729000084,None,True,5.0,['r'],False,0.4444444444444445,0.6666666666666666,0.3333333333333333,1.0,1.0,0.9656336071428248,0.0468159241685405,fight_cost,1.0,2.0,,,pz19,2,2023-04-20_12h03.35.328,threat_forest,2021.2.3,60.03337855754742,True,23.0,0.43333333333333335,0.4845238095238095,-1.3600000000000003,-0.8432653061224491,0,0,1,0.705736205214672,0.0468159241685405,0.4444444444444445,0.4444444444444445,0.6666666666666666,0.6666666666666667,-1.0,-1.0,4.0,4.0,0.0,1.0,-1.0,5.0,0,0,0
11.0,0.0,11.0,0.0,1.0,0.0,1.0,0.0,,,,right,0.7563326000235975,470.9474836000009,pz19,457.0536845999886,460.55685059999814,470.9474836000009,None,True,2.0,['r'],False,0.4444444444444445,0.6666666666666666,0.3333333333333333,1.0,1.0,0.9656336071428248,0.0366186597420974,unsucc_cost,1.0,0.0,467.7003300999932,None,pz19,2,2023-04-20_12h03.35.328,threat_forest,2021.2.3,60.03337855754742,True,23.0,0.43333333333333335,0.4845238095238095,-1.3600000000000003,-0.8432653061224491,0,0,1,-0.279274052429803,0.0366186597420974,0.4444444444444445,0.4444444444444445,0.6666666666666666,0.6666666666666667,-1.0,-1.0,1.0,1.0,0.0,1.0,-1.0,2.0,0,0,0
12.0,0.0,12.0,0.0,0.0,0.0,0.0,0.0,475.582994700002,479.08949330000905,None,left,0.9730997000006028,481.6374238999852,pz19,475.582994700002,479.08949330000905,481.6374238999852,None,False,4.0,['r'],False,0.24,0.4,0.4,2.0,1.0,0.9801625908629508,0.0009688829723073,wait_cost,1.0,3.0,,,pz19,2,2023-04-20_12h03.35.328,threat_forest,2021.2.3,60.03337855754742,False,28.0,0.3666666666666667,0.4,-1.3400000000000003,-1.3500000000000003,0,0,0,-0.027268735446705807,0.0009688829723073,0.24,0.24,0.4,0.6,-2.0,-1.6800000000000002,2.32,2.32,0.0,1.0,-1.0,4.0,0,0,0
12.0,0.0,12.0,0.0,1.0,0.0,1.0,0.0,,,,left,1.7788247999851592,487.1158118000021,pz19,475.582994700002,479.08949330000905,487.1158118000021,None,False,3.0,['r'],False,0.24,0.4,0.4,2.0,1.0,0.9801625908629508,0.0090883802469137,wait_cost,1.0,2.0,484.65103400000953,None,pz19,2,2023-04-20_12h03.35.328,threat_forest,2021.2.3,60.03337855754742,False,28.0,0.3666666666666667,0.4,-1.3400000000000003,-1.3500000000000003,0,0,0,0.5759529215322323,0.0090883802469137,0.24,0.24,0.4,0.6,-2.0,-1.6800000000000002,1.3199999999999998,1.3199999999999998,0.0,1.0,-1.0,3.0,0,0,0
12.0,0.0,12.0,0.0,2.0,0.0,2.0,0.0,,,,left,0.5917974000039976,494.3923242999881,pz19,475.582994700002,479.08949330000905,494.3923242999881,None,False,2.0,['r'],False,0.24,0.4,0.4,2.0,1.0,0.9801625908629508,0.0087973116049383,wait_cost,1.0,1.0,490.9286207999976,None,pz19,2,2023-04-20_12h03.35.328,threat_forest,2021.2.3,60.03337855754742,False,28.0,0.3666666666666667,0.4,-1.3400000000000003,-1.3500000000000003,0,0,0,-0.5245909323950643,0.0087973116049383,0.24,0.24,0.4,0.6,-2.0,-1.6800000000000002,0.31999999999999984,0.31999999999999984,0.0,1.0,-1.0,2.0,0,0,0
12.0,0.0,12.0,0.0,3.0,0.0,3.0,0.0,,,,right,1.8440416999801528,500.3867435999855,pz19,500.3867435999855,None,495.0083938000025,497.02278149998165,False,1.0,['r'],True,0.3333333333333333,0.3333333333333333,0.0,0.0,1.0,0.5793801642856949,0.04145412345679,wait_cost,0.0,0.0,497.0227814999817,None,pz19,2,2023-04-20_12h03.35.328,threat_forest,2021.2.3,60.03337855754742,False,28.0,0.3666666666666667,0.4,-1.3400000000000003,-1.3500000000000003,1,0,0,0.6119597387508126,0.04145412345679,1.0,0.3333333333333333,0.3333333333333333,1.0,-1.0000000000000002,-1.0000000000000002,-2.220446049250313e-16,0.0,1.0,1.0,-1.0,1.0,1,0,1
13.0,0.0,13.0,0.0,0.0,0.0,0.0,0.0,506.7581436999899,510.2604310000024,None,right,2.2563865999982227,513.260895799991,pz19,513.260895799991,None,506.7581436999899,510.2604310000024,False,5.0,['p'],True,0.2,0.2,0.0,0.0,1.0,0.4554859150035951,-0.0133483179397582,wait_cost,0.0,4.0,,,pz19,2,2023-04-20_12h03.35.328,threat_forest,2021.2.3,60.03337855754742,False,50.0,0.35,0.35833333333333334,-1.2625000000000002,-1.3012500000000002,0,0,0,0.8137646842019048,-0.0133483179397582,0.2,0.2,0.2,1.0,-1.4000000000000001,-1.4000000000000001,3.5999999999999996,3.5999999999999996,1.0,1.0,-1.0,5.0,0,0,0
