miniblock.thisRepN,miniblock.thisTrialN,miniblock.thisN,miniblock.thisIndex,day.thisRepN,day.thisTrialN,day.thisN,day.thisIndex,forest.started,fixation_forest.started,fixation_forest.stopped,key_resp.keys,key_resp.rt,key_resp.started,Subject_ID,weather_left.started,weather_left.stopped,weather_right.started,weather_right.stopped,foraging T/F,in_LP,p/r heuristic,good_weather.T/F,p_succ_correct,p_succ_uncorrected,r_threat,n_oponents,gain_if_succ,weather_entropy,OP_value_difference,action_outcome,forest_side_L=0_R=1,out_LP,fixation_day.started,fixation_day.stopped,participant,session,date,expName,psychopyVersion,frameRate,foraging T/F NaNs,fora_NR,forest_mean_p,mvt_cutoff_p,forest_mean_ev,mvt_cutoff_ev,mvt_policy_eg,mvt_policy_p,fora_response,logRT,optimal policy values,multi-heuristic policy,** $\mathit{p}$ success,* $\mathit{p}$ gain,* $\mathit{r}$ predator,expected gain naive,expected gain correct,expected state no bounds,expected state with bounds,weather type,gain magnitude,win stay lose shift,continuous energy state,** binary energy state,** wait when safe,$\mathit{p}$ success based MVT,marginal value,$\mathit{OP}$ values + cap
0.0,0.0,0.0,0.0,0.0,0.0,0.0,0.0,37.854533600155264,41.35452349996194,,left,1.1693091997876763,43.63273950014264,lb11,37.854533600155264,41.35452349996194,43.63273950014264,,False,5.0,['r'],False,0.3061224489795918,0.4285714285714285,0.2857142857142857,2.0,1.0,0.9885754083994552,-0.0051042852935925,wait_cost,1.0,4.0,,,lb11,1,2022-05-13_14h22.34.969,threat_forest,2021.2.3,59.94758171456369,False,36.0,0.41428571428571426,0.41428571428571426,-1.083673469387755,-1.083673469387755,0,0,0.0,0.15641314690678998,-0.0051042852935925,0.3061224489795918,0.3061224489795918,0.4285714285714285,0.2857142857142857,-0.5714285714285716,-0.36734693877551017,4.63265306122449,4.63265306122449,0.0,1.0,,5.0,0,1,0,0,-0.0051042852935925
0.0,0.0,0.0,0.0,1.0,0.0,1.0,0.0,,,,right,1.576432100031525,48.96234309999272,lb11,48.96234309999272,,44.82337650004774,46.82285270001739,False,4.0,['r'],True,0.4,0.4,0.0,0.0,1.0,0.6126016192893442,0.0646553318748115,wait_cost,0.0,3.0,46.82285270001739,,lb11,1,2022-05-13_14h22.34.969,threat_forest,2021.2.3,59.94758171456369,False,36.0,0.41428571428571426,0.41428571428571426,-1.083673469387755,-1.083673469387755,1,0,0.0,0.45516412900345715,0.0646553318748115,0.4,0.4,0.4,0.0,0.20000000000000007,0.20000000000000007,4.2,4.2,1.0,1.0,-1.0,4.0,0,1,0,1,0.0646553318748115
0.0,0.0,0.0,0.0,2.0,0.0,2.0,0.0,,,,right,1.65861380007118,54.11679140012711,lb11,54.11679140012711,,44.82337650004774,46.82285270001739,False,3.0,['r'],True,0.4,0.4,0.0,0.0,1.0,0.6126016192893442,0.0757459364998027,wait_cost,0.0,2.0,52.55660609994084,,lb11,1,2022-05-13_14h22.34.969,threat_forest,2021.2.3,59.94758171456369,False,36.0,0.41428571428571426,0.41428571428571426,-1.083673469387755,-1.083673469387755,1,0,0.0,0.5059821933133758,0.0757459364998027,0.4,0.4,0.4,0.0,0.20000000000000007,0.20000000000000007,3.2,3.2,1.0,1.0,-1.0,3.0,0,1,0,1,0.0757459364998027
0.0,0.0,0.0,0.0,3.0,0.0,3.0,0.0,,,,left,0.8348014000803232,59.08061299985275,lb11,55.81059439992532,57.82316430006176,59.08061299985275,,False,2.0,['r'],False,0.3061224489795918,0.4285714285714285,0.2857142857142857,2.0,1.0,0.9885754083994552,-0.0018730078453705,wait_cost,1.0,1.0,57.82316430006176,,lb11,1,2022-05-13_14h22.34.969,threat_forest,2021.2.3,59.94758171456369,False,36.0,0.41428571428571426,0.41428571428571426,-1.083673469387755,-1.083673469387755,0,0,0.0,-0.18056142663588443,-0.0018730078453705,0.3061224489795918,0.3061224489795918,0.4285714285714285,0.2857142857142857,-0.5714285714285716,-0.36734693877551017,1.6326530612244898,1.6326530612244898,0.0,1.0,-1.0,2.0,0,1,0,0,-0.0018730078453705
0.0,0.0,0.0,0.0,4.0,0.0,4.0,0.0,,,,,,62.61879640026018,lb11,62.61879640026018,,59.94197130016983,61.95663359994069,True,1.0,['r'],True,0.4,0.4,0.0,0.0,1.0,0.6126016192893442,0.1506122448979592,wait_cost,0.0,0.0,61.95663359994069,,lb11,1,2022-05-13_14h22.34.969,threat_forest,2021.2.3,59.94758171456369,,36.0,0.41428571428571426,0.41428571428571426,-1.083673469387755,-1.083673469387755,1,0,,,0.1506122448979592,1.0,0.4,0.4,0.0,0.20000000000000007,0.20000000000000007,1.2000000000000002,1.2000000000000002,1.0,1.0,-1.0,1.0,1,1,0,1,0.625
1.0,0.0,1.0,0.0,0.0,0.0,0.0,0.0,70.6157090999186,74.12317690020427,,right,1.431182200089097,75.45355470012873,lb11,70.6157090999186,74.12317690020427,75.45355470012873,,True,5.0,['r'],False,0.5,0.5,0.0,0.0,1.0,0.6309297535714574,0.07495910506875,succ_gain,1.0,6.0,,,lb11,1,2022-05-13_14h22.34.969,threat_forest,2021.2.3,59.94758171456369,True,24.0,0.55,0.48214285714285715,-0.9100000000000001,-0.9968367346938776,1,1,1.0,0.35850081608157786,0.07495910506875,0.5,0.5,0.5,0.0,0.5,0.5,5.5,5.5,0.0,1.0,-1.0,5.0,0,1,1,1,0.07495910506875
1.0,0.0,1.0,0.0,1.0,0.0,1.0,0.0,,,,left,1.081574299838394,81.16029130015522,lb11,81.16029130015522,,76.90663240011781,78.90663419989869,True,6.0,['r'],True,0.36,0.6,0.4,2.0,1.0,0.9801625908629508,-0.1431121019999999,succ_gain,0.0,6.0,78.90663419989869,,lb11,1,2022-05-13_14h22.34.969,threat_forest,2021.2.3,59.94758171456369,True,24.0,0.55,0.48214285714285715,-0.9100000000000001,-0.9968367346938776,0,0,1.0,0.0784176647801713,-0.1431121019999999,0.36,0.36,0.6,0.4,-0.40000000000000036,-0.3200000000000003,5.68,5.68,1.0,1.0,1.0,6.0,0,1,0,0,-0.1431121019999999
1.0,0.0,1.0,0.0,2.0,0.0,2.0,0.0,,,,right,1.0955814998596909,86.33885250007734,lb11,82.28685080027208,84.2896993001923,86.33885250007734,,True,6.0,['r'],False,0.5,0.5,0.0,0.0,1.0,0.6309297535714574,0.0760874999999999,succ_gain,1.0,6.0,84.2896993001923,,lb11,1,2022-05-13_14h22.34.969,threat_forest,2021.2.3,59.94758171456369,True,24.0,0.55,0.48214285714285715,-0.9100000000000001,-0.9968367346938776,1,1,1.0,0.09128527241143537,0.0760874999999999,0.5,0.5,0.5,0.0,0.5,0.5,6.5,6.5,0.0,1.0,-1.0,6.0,0,1,1,1,0.0760874999999999
1.0,0.0,1.0,0.0,3.0,0.0,3.0,0.0,,,,left,0.9639975996688008,90.11171380011363,lb11,90.11171380011363,,87.45731149986386,89.45691569987684,True,6.0,['r'],True,0.36,0.6,0.4,2.0,1.0,0.9801625908629508,-0.268305,unsucc_cost,0.0,4.0,89.45691569987684,,lb11,1,2022-05-13_14h22.34.969,threat_forest,2021.2.3,59.94758171456369,True,24.0,0.55,0.48214285714285715,-0.9100000000000001,-0.9968367346938776,0,0,1.0,-0.036666474344815035,-0.268305,0.0,0.36,0.6,0.4,-0.40000000000000036,-0.3200000000000003,5.68,5.68,1.0,1.0,-1.0,6.0,0,0,0,0,-0.84
1.0,0.0,1.0,0.0,4.0,0.0,4.0,0.0,,,,right,1.1165054999291897,93.88703679991886,lb11,91.1081850999035,93.10703800013287,93.88703679991886,,True,4.0,['r'],False,0.5,0.5,0.0,0.0,1.0,0.6309297535714574,0.1425,unsucc_cost,1.0,2.0,93.10703800013287,,lb11,1,2022-05-13_14h22.34.969,threat_forest,2021.2.3,59.94758171456369,True,24.0,0.55,0.48214285714285715,-0.9100000000000001,-0.9968367346938776,1,1,1.0,0.11020371833089529,0.1425,0.5,0.5,0.5,0.0,0.5,0.5,4.5,4.5,0.0,1.0,-1.0,4.0,0,1,1,1,0.1425
1.0,0.0,1.0,0.0,5.0,0.0,5.0,0.0,,,,right,1.5347082000225782,98.1760678999126,lb11,91.1081850999035,93.10703800013287,98.1760678999126,,True,2.0,['r'],False,0.5,0.5,0.0,0.0,1.0,0.6309297535714574,0.07,unsucc_cost,1.0,0.0,97.02373320003971,,lb11,1,2022-05-13_14h22.34.969,threat_forest,2021.2.3,59.94758171456369,True,24.0,0.55,0.48214285714285715,-0.9100000000000001,-0.9968367346938776,1,1,1.0,0.4283402652631408,0.07,0.5,0.5,0.5,0.0,0.5,0.5,2.5,2.5,0.0,1.0,-1.0,2.0,0,1,1,1,0.07
2.0,0.0,2.0,0.0,0.0,0.0,0.0,0.0,104.08432530006394,107.57701379992068,,left,0.7093698997050524,110.3730498002842,lb11,110.3730498002842,,104.08432530006394,107.57701379992068,True,4.0,['r'],True,0.6,0.6,0.0,0.0,2.0,0.6126016192893442,0.1103326303155006,unsucc_cost,0.0,2.0,,,lb11,1,2022-05-13_14h22.34.969,threat_forest,2021.2.3,59.94758171456369,True,47.0,0.6333333333333333,0.5916666666666667,-0.07777777777777783,-0.493888888888889,1,1,1.0,-0.34337816818131456,0.1103326303155006,0.6,0.6,0.6,0.0,1.4,1.4,5.4,5.4,1.0,2.0,-1.0,4.0,0,1,1,1,0.1103326303155006
2.0,0.0,2.0,0.0,1.0,0.0,1.0,0.0,,,,left,0.8198677003383636,114.8623652998358,lb11,114.8623652998358,,104.08432530006394,107.57701379992068,True,2.0,['r'],True,0.6,0.6,0.0,0.0,2.0,0.6126016192893442,0.0858461728395062,unsucc_cost,0.0,0.0,113.1237862999551,,lb11,1,2022-05-13_14h22.34.969,threat_forest,2021.2.3,59.94758171456369,True,47.0,0.6333333333333333,0.5916666666666667,-0.07777777777777783,-0.493888888888889,1,1,1.0,-0.19861229279148174,0.0858461728395062,0.6,0.6,0.6,0.0,1.4,1.4,3.4,3.4,1.0,2.0,-1.0,2.0,0,1,1,1,0.0858461728395062
3.0,0.0,3.0,0.0,0.0,0.0,0.0,0.0,120.91242920001967,124.40654679993168,,left,1.1469745002686975,124.98884540004656,lb11,124.98884540004656,,120.91242920001967,124.40654679993168,True,5.0,['r'],True,0.5,0.5,0.0,0.0,2.0,0.6309297535714574,0.0630973775,unsucc_cost,0.0,3.0,,,lb11,1,2022-05-13_14h22.34.969,threat_forest,2021.2.3,59.94758171456369,True,18.0,0.55,0.5916666666666667,-0.4800000000000001,-0.27888888888888896,1,0,1.0,0.13712760622503872,0.0630973775,0.5,0.5,0.5,0.0,1.0,1.0,6.0,6.0,1.0,2.0,-1.0,5.0,0,1,0,1,0.0630973775
3.0,0.0,3.0,0.0,1.0,0.0,1.0,0.0,,,,right,0.9508696999400854,131.57491330010816,lb11,126.15792299993336,128.15726230014116,131.57491330010816,,True,3.0,['r'],False,0.36,0.6,0.4,2.0,2.0,0.9801625908629508,0.02233521,unsucc_cost,1.0,1.0,128.15726230014116,,lb11,1,2022-05-13_14h22.34.969,threat_forest,2021.2.3,59.94758171456369,True,18.0,0.55,0.5916666666666667,-0.4800000000000001,-0.27888888888888896,0,0,1.0,-0.05037823955680861,0.02233521,0.36,0.36,0.6,0.4,0.19999999999999973,0.039999999999999813,3.04,3.04,0.0,2.0,-1.0,3.0,0,1,0,0,0.02233521
3.0,0.0,3.0,0.0,2.0,0.0,2.0,0.0,,,,left,0.9398912000469865,135.11767560010776,lb11,135.11767560010776,,132.56266569998115,134.5741071999073,True,1.0,['r'],True,0.5,0.5,0.0,0.0,2.0,0.6309297535714574,0.2729625,succ_gain,0.0,3.0,134.5741071999073,,lb11,1,2022-05-13_14h22.34.969,threat_forest,2021.2.3,59.94758171456369,True,18.0,0.55,0.5916666666666667,-0.4800000000000001,-0.27888888888888896,1,0,1.0,-0.06199115504787965,0.2729625,1.0,0.5,0.5,0.0,1.0,1.0,2.0,2.0,1.0,2.0,-1.0,1.0,1,1,0,1,0.625
3.0,0.0,3.0,0.0,3.0,0.0,3.0,0.0,,,,right,0.94557850016281,139.6065376000479,lb11,136.07953460002318,138.0907339998521,139.6065376000479,,True,3.0,['r'],False,0.36,0.6,0.4,2.0,2.0,0.9801625908629508,-0.044112,figh_cost,1.0,0.0,138.0907339998521,,lb11,1,2022-05-13_14h22.34.969,threat_forest,2021.2.3,59.94758171456369,True,18.0,0.55,0.5916666666666667,-0.4800000000000001,-0.27888888888888896,0,0,1.0,-0.055958369303242765,-0.044112,0.36,0.36,0.6,0.4,0.19999999999999973,0.039999999999999813,3.04,3.04,0.0,2.0,1.0,3.0,0,1,0,0,-0.044112
4.0,0.0,4.0,0.0,0.0,0.0,0.0,0.0,143.42582210013643,146.94086119998246,,left,1.364212800282985,149.03438099985942,lb11,143.42582210013643,146.94086119998246,149.03438099985942,,False,4.0,['r'],False,0.5,0.5,0.0,0.0,1.0,0.6309297535714574,0.0773127614393294,wait_cost,1.0,3.0,,,lb11,1,2022-05-13_14h22.34.969,threat_forest,2021.2.3,59.94758171456369,False,27.0,0.5357142857142857,0.5428571428571429,-0.7806122448979592,-0.6303061224489797,1,0,0.0,0.3105775591903459,0.0773127614393294,0.5,0.5,0.5,0.0,0.5,0.5,4.5,4.5,0.0,1.0,-1.0,4.0,0,1,0,1,0.0773127614393294
4.0,0.0,4.0,0.0,1.0,0.0,1.0,0.0,,,,right,1.101999199949205,154.42952590016648,lb11,143.42582210013643,146.94086119998246,154.42952590016648,,True,3.0,['r'],False,0.5,0.5,0.0,0.0,1.0,0.6309297535714574,0.0991686602835485,succ_gain,1.0,4.0,152.4412219002843,,lb11,1,2022-05-13_14h22.34.969,threat_forest,2021.2.3,59.94758171456369,True,27.0,0.5357142857142857,0.5428571428571429,-0.7806122448979592,-0.6303061224489797,1,0,1.0,0.09712598473155261,0.0991686602835485,0.5,0.5,0.5,0.0,0.5,0.5,3.5,3.5,0.0,1.0,-1.0,3.0,0,1,0,1,0.0991686602835485
4.0,0.0,4.0,0.0,2.0,0.0,2.0,0.0,,,,right,1.61187560018152,160.91354259988293,lb11,160.91354259988293,,155.56007659994066,157.57449229992926,False,4.0,['r'],True,0.4081632653061224,0.5714285714285714,0.2857142857142857,2.0,1.0,0.9885754083994552,0.0111203127993457,wait_cost,0.0,3.0,157.57449229992926,,lb11,1,2022-05-13_14h22.34.969,threat_forest,2021.2.3,59.94758171456369,False,27.0,0.5357142857142857,0.5428571428571429,-0.7806122448979592,-0.6303061224489797,0,0,0.0,0.4773984700033183,0.0111203127993457,0.4081632653061224,0.4081632653061224,0.5714285714285714,0.2857142857142857,-0.1428571428571428,-0.061224489795918435,3.9387755102040813,3.9387755102040813,1.0,1.0,1.0,4.0,0,1,0,0,0.0111203127993457
4.0,0.0,4.0,0.0,3.0,0.0,3.0,0.0,,,,right,0.9533724999055266,165.53256910014898,lb11,162.54969649994746,164.5577869000845,165.53256910014898,,True,3.0,['r'],False,0.5,0.5,0.0,0.0,1.0,0.6309297535714574,0.1629165462519868,succ_gain,1.0,4.0,164.5577869000845,,lb11,1,2022-05-13_14h22.34.969,threat_forest,2021.2.3,59.94758171456369,True,27.0,0.5357142857142857,0.5428571428571429,-0.7806122448979592,-0.6303061224489797,1,0,1.0,-0.04774958086327938,0.1629165462519868,0.5,0.5,0.5,0.0,0.5,0.5,3.5,3.5,0.0,1.0,-1.0,3.0,0,1,0,1,0.1629165462519868
4.0,0.0,4.0,0.0,4.0,0.0,4.0,0.0,,,,right,0.738092599902302,171.32985740015283,lb11,162.54969649994746,164.5577869000845,171.32985740015283,,True,4.0,['r'],False,0.5,0.5,0.0,0.0,1.0,0.6309297535714574,0.1014160766347355,unsucc_cost,1.0,2.0,168.50792020000517,,lb11,1,2022-05-13_14h22.34.969,threat_forest,2021.2.3,59.94758171456369,True,27.0,0.5357142857142857,0.5428571428571429,-0.7806122448979592,-0.6303061224489797,1,0,1.0,-0.3036859881305234,0.1014160766347355,0.5,0.5,0.5,0.0,0.5,0.5,4.5,4.5,0.0,1.0,1.0,4.0,0,1,0,1,0.1014160766347355
4.0,0.0,4.0,0.0,5.0,0.0,5.0,0.0,,,,left,0.7736974996514618,176.74245089991018,lb11,176.74245089991018,,172.09123519994318,174.0916487001814,True,2.0,['r'],True,0.4081632653061224,0.5714285714285714,0.2857142857142857,2.0,1.0,0.9885754083994552,-0.0459183673469387,succ_gain,0.0,3.0,174.0916487001814,,lb11,1,2022-05-13_14h22.34.969,threat_forest,2021.2.3,59.94758171456369,True,27.0,0.5357142857142857,0.5428571428571429,-0.7806122448979592,-0.6303061224489797,0,0,1.0,-0.2565743091090061,-0.0459183673469387,0.4081632653061224,0.4081632653061224,0.5714285714285714,0.2857142857142857,-0.1428571428571428,-0.061224489795918435,1.9387755102040816,1.9387755102040816,1.0,1.0,-1.0,2.0,0,1,0,0,-0.0459183673469387
4.0,0.0,4.0,0.0,6.0,0.0,6.0,0.0,,,,right,0.8985419999808073,180.2881550001912,lb11,177.54181340010837,179.54148950008675,180.2881550001912,,True,3.0,['r'],False,0.5,0.5,0.0,0.0,1.0,0.6309297535714574,-0.2729591836734694,succ_gain,1.0,4.0,179.54148950008675,,lb11,1,2022-05-13_14h22.34.969,threat_forest,2021.2.3,59.94758171456369,True,27.0,0.5357142857142857,0.5428571428571429,-0.7806122448979592,-0.6303061224489797,1,0,1.0,-0.10698182929808622,-0.2729591836734694,0.0,0.5,0.5,0.0,0.5,0.5,3.5,3.5,0.0,1.0,1.0,3.0,0,0,0,1,-0.84
4.0,0.0,4.0,0.0,7.0,0.0,7.0,0.0,,,,right,1.0668240999802947,186.16552190016955,lb11,177.54181340010837,179.54148950008675,186.16552190016955,,True,4.0,['r'],False,0.5,0.5,0.0,0.0,1.0,0.6309297535714574,0.0,unsucc_cost,1.0,2.0,183.20808409992603,,lb11,1,2022-05-13_14h22.34.969,threat_forest,2021.2.3,59.94758171456369,True,27.0,0.5357142857142857,0.5428571428571429,-0.7806122448979592,-0.6303061224489797,1,0,1.0,0.06468610397821427,0.0,0.0,0.5,0.5,0.0,0.5,0.5,4.5,4.5,0.0,1.0,1.0,4.0,0,0,0,1,-0.84
5.0,0.0,5.0,0.0,0.0,0.0,0.0,0.0,190.96426719985905,194.46667149988932,,right,1.0057358001358807,195.56587170017883,lb11,195.56587170017883,,190.96426719985905,194.46667149988932,False,4.0,['p'],True,0.2,0.2,0.0,0.0,2.0,0.4554859150035951,-0.0012731594242116,wait_cost,0.0,3.0,,,lb11,1,2022-05-13_14h22.34.969,threat_forest,2021.2.3,59.94758171456369,False,37.0,0.26666666666666666,0.4011904761904762,-1.1277777777777778,-0.9541950113378685,0,0,0.0,0.0057194130663915,-0.0012731594242116,0.2,0.2,0.2,0.0,-0.20000000000000018,-0.20000000000000018,3.8,3.8,1.0,2.0,-1.0,4.0,0,1,0,0,-0.0012731594242116
5.0,0.0,5.0,0.0,1.0,0.0,1.0,0.0,,,,left,0.9967167996801436,200.34396150009707,lb11,200.34396150009707,,190.96426719985905,194.46667149988932,True,3.0,['p'],True,0.2,0.2,0.0,0.0,2.0,0.4554859150035951,0.0423369907978965,unsucc_cost,0.0,1.0,198.5919110001996,,lb11,1,2022-05-13_14h22.34.969,threat_forest,2021.2.3,59.94758171456369,True,37.0,0.26666666666666666,0.4011904761904762,-1.1277777777777778,-0.9541950113378685,0,0,1.0,-0.0032886018481332146,0.0423369907978965,0.2,0.2,0.2,0.0,-0.20000000000000018,-0.20000000000000018,2.8,2.8,1.0,2.0,-1.0,3.0,0,1,0,0,0.0423369907978965
5.0,0.0,5.0,0.0,2.0,0.0,2.0,0.0,,,,right,0.6006029001437128,205.8584079998545,lb11,201.35909679997712,203.3584607001394,205.8584079998545,,True,1.0,['p'],False,0.2777777777777778,0.3333333333333333,0.1666666666666666,1.0,2.0,0.8929352898779304,0.0843845143440192,unsucc_cost,1.0,0.0,203.3584607001394,,lb11,1,2022-05-13_14h22.34.969,threat_forest,2021.2.3,59.94758171456369,True,37.0,0.26666666666666666,0.4011904761904762,-1.1277777777777778,-0.9541950113378685,0,0,1.0,-0.509821294700455,0.0843845143440192,1.0,0.2777777777777778,0.3333333333333333,0.1666666666666666,-0.16666666666666652,-0.05555555555555558,0.9444444444444444,1.0,0.0,2.0,-1.0,1.0,1,1,0,0,0.625
6.0,0.0,6.0,0.0,0.0,0.0,0.0,0.0,210.09694459987804,213.60848330007863,,right,1.204796599689871,216.43226670008156,lb11,216.43226670008156,,210.09694459987804,213.60848330007863,False,5.0,['p'],True,0.1975308641975308,0.2222222222222222,0.1111111111111111,1.0,1.0,0.7461067557824965,-0.0426399353164329,wait_cost,0.0,4.0,,,lb11,1,2022-05-13_14h22.34.969,threat_forest,2021.2.3,59.94758171456369,False,5.0,0.4444444444444444,0.3555555555555555,-1.259259259259259,-1.1935185185185184,0,0,0.0,0.18631075575694553,-0.0426399353164329,0.1975308641975308,0.1975308641975308,0.2222222222222222,0.1111111111111111,-0.6666666666666667,-0.5185185185185184,4.481481481481482,4.481481481481482,1.0,1.0,-1.0,5.0,0,1,0,0,-0.0426399353164329
6.0,0.0,6.0,0.0,1.0,0.0,1.0,0.0,,,,right,1.3020688001997769,222.00693550007415,lb11,222.00693550007415,,210.09694459987804,213.60848330007863,False,4.0,['p'],True,0.1975308641975308,0.2222222222222222,0.1111111111111111,1.0,1.0,0.7461067557824965,-0.0303802278310122,wait_cost,0.0,3.0,219.65890270005912,,lb11,1,2022-05-13_14h22.34.969,threat_forest,2021.2.3,59.94758171456369,False,5.0,0.4444444444444444,0.3555555555555555,-1.259259259259259,-1.1935185185185184,0,0,0.0,0.26395438432560414,-0.0303802278310122,0.1975308641975308,0.1975308641975308,0.2222222222222222,0.1111111111111111,-0.6666666666666667,-0.5185185185185184,3.481481481481482,3.481481481481482,1.0,1.0,-1.0,4.0,0,1,0,0,-0.0303802278310122
6.0,0.0,6.0,0.0,2.0,0.0,2.0,0.0,,,,left,1.0031254002824426,227.9578081001528,lb11,227.9578081001528,,210.09694459987804,213.60848330007863,True,3.0,['p'],True,0.1975308641975308,0.2222222222222222,0.1111111111111111,1.0,1.0,0.7461067557824965,-0.025907886353424,unsucc_cost,0.0,1.0,225.34241349995136,,lb11,1,2022-05-13_14h22.34.969,threat_forest,2021.2.3,59.94758171456369,True,5.0,0.4444444444444444,0.3555555555555555,-1.259259259259259,-1.1935185185185184,0,0,1.0,0.0031205263716207864,-0.025907886353424,0.1975308641975308,0.1975308641975308,0.2222222222222222,0.1111111111111111,-0.6666666666666667,-0.5185185185185184,2.481481481481482,2.481481481481482,1.0,1.0,-1.0,3.0,0,1,0,0,-0.025907886353424
6.0,0.0,6.0,0.0,3.0,0.0,3.0,0.0,,,,right,1.0584157998673618,231.8233260000125,lb11,229.00196539983156,231.00907689984888,231.8233260000125,,True,1.0,['p'],False,0.4444444444444445,0.6666666666666666,0.3333333333333333,1.0,1.0,0.9656336071428248,0.0734832276772021,unsucc_cost,1.0,0.0,231.00907689984888,,lb11,1,2022-05-13_14h22.34.969,threat_forest,2021.2.3,59.94758171456369,True,5.0,0.4444444444444444,0.3555555555555555,-1.259259259259259,-1.1935185185185184,1,1,1.0,0.05677326177536644,0.0734832276772021,1.0,0.4444444444444445,0.6666666666666666,0.3333333333333333,0.0,0.0,1.0,1.0,0.0,1.0,-1.0,1.0,1,1,1,1,0.625
7.0,0.0,7.0,0.0,0.0,0.0,0.0,0.0,236.39713450009003,239.8931963001378,,left,0.8465275997295976,240.49006000021475,lb11,240.49006000021475,,236.39713450009003,239.8931963001378,True,4.0,['p'],True,0.375,0.5,0.25,1.0,2.0,0.9850568223215076,0.0640175729863931,succ_gain,0.0,6.0,,,lb11,1,2022-05-13_14h22.34.969,threat_forest,2021.2.3,59.94758171456369,True,59.0,0.3611111111111111,0.4027777777777778,-1.1404320987654322,-1.1998456790123457,1,0,1.0,-0.16661247341642568,0.0640175729863931,0.375,0.375,0.5,0.25,0.25,0.25,4.25,4.25,1.0,2.0,-1.0,4.0,0,1,0,1,0.0640175729863931
7.0,0.0,7.0,0.0,1.0,0.0,1.0,0.0,,,,right,1.015596400015056,245.5232195998542,lb11,241.36010710010305,243.3590057999827,245.5232195998542,,True,6.0,['p'],False,0.1728395061728395,0.2222222222222222,0.2222222222222222,2.0,2.0,0.8571721972794328,-0.10870870610332,succ_gain,1.0,6.0,243.3590057999827,,lb11,1,2022-05-13_14h22.34.969,threat_forest,2021.2.3,59.94758171456369,True,59.0,0.3611111111111111,0.4027777777777778,-1.1404320987654322,-1.1998456790123457,0,0,1.0,0.01547602615428971,-0.10870870610332,0.1728395061728395,0.1728395061728395,0.2222222222222222,0.2222222222222222,-0.7777777777777777,-0.5308641975308643,5.469135802469136,5.469135802469136,0.0,2.0,1.0,6.0,0,1,0,0,-0.10870870610332
7.0,0.0,7.0,0.0,2.0,0.0,2.0,0.0,,,,left,0.6737625999376178,249.7416387000121,lb11,249.7416387000121,,246.55902819987384,248.5591553002596,True,6.0,['p'],True,0.375,0.5,0.25,1.0,2.0,0.9850568223215076,0.08919661698378,succ_gain,0.0,6.0,248.5591553002596,,lb11,1,2022-05-13_14h22.34.969,threat_forest,2021.2.3,59.94758171456369,True,59.0,0.3611111111111111,0.4027777777777778,-1.1404320987654322,-1.1998456790123457,1,0,1.0,-0.3948774557276838,0.08919661698378,0.375,0.375,0.5,0.25,0.25,0.25,6.25,6.25,1.0,2.0,-1.0,6.0,0,1,0,1,0.08919661698378
7.0,0.0,7.0,0.0,3.0,0.0,3.0,0.0,,,,left,0.6134151997976005,253.90124989999455,lb11,253.90124989999455,,246.55902819987384,248.5591553002596,True,6.0,['p'],True,0.375,0.5,0.25,1.0,2.0,0.9850568223215076,-0.3363780396828799,succ_gain,0.0,6.0,252.45920150028545,,lb11,1,2022-05-13_14h22.34.969,threat_forest,2021.2.3,59.94758171456369,True,59.0,0.3611111111111111,0.4027777777777778,-1.1404320987654322,-1.1998456790123457,1,0,1.0,-0.48871324802373145,-0.3363780396828799,0.0,0.375,0.5,0.25,0.25,0.25,6.25,6.25,1.0,2.0,-1.0,6.0,0,0,0,1,-0.84
7.0,0.0,7.0,0.0,4.0,0.0,4.0,0.0,,,,right,1.0855827000923457,258.90099349990487,lb11,254.54308200022209,256.5425924002193,258.90099349990487,,True,6.0,['p'],False,0.1728395061728395,0.2222222222222222,0.2222222222222222,2.0,2.0,0.8571721972794328,-0.1315262271588003,figh_cost,1.0,3.0,256.5425924002193,,lb11,1,2022-05-13_14h22.34.969,threat_forest,2021.2.3,59.94758171456369,True,59.0,0.3611111111111111,0.4027777777777778,-1.1404320987654322,-1.1998456790123457,0,0,1.0,0.08211689360862207,-0.1315262271588003,0.0,0.1728395061728395,0.2222222222222222,0.2222222222222222,-0.7777777777777777,-0.5308641975308643,5.469135802469136,5.469135802469136,0.0,2.0,-1.0,6.0,0,0,0,0,-0.84
7.0,0.0,7.0,0.0,5.0,0.0,5.0,0.0,,,,left,1.4182764999568462,265.6069058999419,lb11,254.54308200022209,256.5425924002193,265.6069058999419,,False,3.0,['p'],False,0.1728395061728395,0.2222222222222222,0.2222222222222222,2.0,2.0,0.8571721972794328,0.0140841716201798,wait_cost,1.0,2.0,262.0096256998368,,lb11,1,2022-05-13_14h22.34.969,threat_forest,2021.2.3,59.94758171456369,False,59.0,0.3611111111111111,0.4027777777777778,-1.1404320987654322,-1.1998456790123457,0,0,0.0,0.34944240201866883,0.0140841716201798,0.1728395061728395,0.1728395061728395,0.2222222222222222,0.2222222222222222,-0.7777777777777777,-0.5308641975308643,2.4691358024691357,2.4691358024691357,0.0,2.0,-1.0,3.0,0,1,0,0,0.0140841716201798
7.0,0.0,7.0,0.0,6.0,0.0,6.0,0.0,,,,right,0.5942235998809338,270.20656039984897,lb11,270.20656039984897,,267.05267809983343,269.05942470021546,False,2.0,['p'],True,0.375,0.5,0.25,1.0,2.0,0.9850568223215076,0.1010802469135803,wait_cost,0.0,1.0,269.05942470021546,,lb11,1,2022-05-13_14h22.34.969,threat_forest,2021.2.3,59.94758171456369,False,59.0,0.3611111111111111,0.4027777777777778,-1.1404320987654322,-1.1998456790123457,1,0,0.0,-0.5204995996757988,0.1010802469135803,0.375,0.375,0.5,0.25,0.25,0.25,2.25,2.25,1.0,2.0,-1.0,2.0,0,1,0,1,0.1010802469135803
7.0,0.0,7.0,0.0,7.0,0.0,7.0,0.0,,,,left,0.8650201000273228,274.7642776998691,lb11,274.7642776998691,,267.05267809983343,269.05942470021546,True,1.0,['p'],True,0.375,0.5,0.25,1.0,2.0,0.9850568223215076,0.375,succ_gain,0.0,3.0,272.8262375001796,,lb11,1,2022-05-13_14h22.34.969,threat_forest,2021.2.3,59.94758171456369,True,59.0,0.3611111111111111,0.4027777777777778,-1.1404320987654322,-1.1998456790123457,1,0,1.0,-0.14500253529442655,0.375,1.0,0.375,0.5,0.25,0.25,0.25,1.25,1.25,1.0,2.0,-1.0,1.0,1,1,0,1,0.625
8.0,0.0,8.0,0.0,0.0,0.0,0.0,0.0,279.99231779994443,283.49325780011714,,right,0.9309094999916852,285.8165406002663,lb11,279.99231779994443,283.49325780011714,285.8165406002663,,True,4.0,['r'],False,0.28125,0.375,0.25,2.0,2.0,0.9634951148421658,-0.0007636143604934,succ_gain,1.0,6.0,,,lb11,1,2022-05-13_14h22.34.969,threat_forest,2021.2.3,59.94758171456369,True,40.0,0.35416666666666663,0.35763888888888884,-0.8958333333333335,-1.018132716049383,0,0,1.0,-0.07159321374291235,-0.0007636143604934,0.28125,0.28125,0.375,0.25,-0.25,-0.125,3.875,3.875,0.0,2.0,1.0,4.0,0,1,0,0,-0.0007636143604934
8.0,0.0,8.0,0.0,1.0,0.0,1.0,0.0,,,,right,0.9791069999337196,290.7412465000525,lb11,279.99231779994443,283.49325780011714,290.7412465000525,,True,6.0,['r'],False,0.28125,0.375,0.25,2.0,2.0,0.9634951148421658,-0.1073108765070514,unsucc_cost,1.0,4.0,288.77665279991925,,lb11,1,2022-05-13_14h22.34.969,threat_forest,2021.2.3,59.94758171456369,True,40.0,0.35416666666666663,0.35763888888888884,-0.8958333333333335,-1.018132716049383,0,0,1.0,-0.021114347292423664,-0.1073108765070514,0.28125,0.28125,0.375,0.25,-0.25,-0.125,5.875,5.875,0.0,2.0,1.0,6.0,0,1,0,0,-0.1073108765070514
8.0,0.0,8.0,0.0,2.0,0.0,2.0,0.0,,,,left,0.6204105000942945,295.7239871998317,lb11,295.7239871998317,,291.755745800212,293.75971220014617,True,4.0,['r'],True,0.3333333333333333,0.3333333333333333,0.0,0.0,2.0,0.5793801642856949,0.050074399989328,unsucc_cost,0.0,2.0,293.75971220014617,,lb11,1,2022-05-13_14h22.34.969,threat_forest,2021.2.3,59.94758171456369,True,40.0,0.35416666666666663,0.35763888888888884,-0.8958333333333335,-1.018132716049383,1,0,1.0,-0.47737392310618787,0.050074399989328,0.3333333333333333,0.3333333333333333,0.3333333333333333,0.0,0.33333333333333315,0.33333333333333315,4.333333333333333,4.333333333333333,1.0,2.0,-1.0,4.0,0,1,0,1,0.050074399989328
8.0,0.0,8.0,0.0,3.0,0.0,3.0,0.0,,,,left,0.980565500445664,299.6336961002089,lb11,299.6336961002089,,291.755745800212,293.75971220014617,True,2.0,['r'],True,0.3333333333333333,0.3333333333333333,0.0,0.0,2.0,0.5793801642856949,0.0278132403338395,unsucc_cost,0.0,0.0,298.3932957001962,,lb11,1,2022-05-13_14h22.34.969,threat_forest,2021.2.3,59.94758171456369,True,40.0,0.35416666666666663,0.35763888888888884,-0.8958333333333335,-1.018132716049383,1,0,1.0,-0.01962583247072858,0.0278132403338395,0.3333333333333333,0.3333333333333333,0.3333333333333333,0.0,0.33333333333333315,0.33333333333333315,2.333333333333333,2.333333333333333,1.0,2.0,-1.0,2.0,0,1,0,1,0.0278132403338395
9.0,0.0,9.0,0.0,0.0,0.0,0.0,0.0,304.3976751998998,307.9101734999567,,right,1.239704899955541,311.56494509987533,lb11,311.56494509987533,,304.3976751998998,307.9101734999567,False,5.0,['p'],True,0.2448979591836734,0.2857142857142857,0.1428571428571428,1.0,1.0,0.8400769154957735,-0.0213375421468753,wait_cost,0.0,4.0,,,lb11,1,2022-05-13_14h22.34.969,threat_forest,2021.2.3,59.94758171456369,False,13.0,0.47619047619047616,0.4151785714285714,-1.2040816326530612,-1.0499574829931975,0,0,0.0,0.21487336738746005,-0.0213375421468753,0.2448979591836734,0.2448979591836734,0.2857142857142857,0.1428571428571428,-0.5714285714285712,-0.40816326530612246,4.591836734693878,4.591836734693878,1.0,1.0,-1.0,5.0,0,1,0,0,-0.0213375421468753
9.0,0.0,9.0,0.0,1.0,0.0,1.0,0.0,,,,right,0.939299300312996,317.9055869001895,lb11,317.9055869001895,,304.3976751998998,307.9101734999567,False,4.0,['p'],True,0.2448979591836734,0.2857142857142857,0.1428571428571428,1.0,1.0,0.8400769154957735,-0.0095054482418793,wait_cost,0.0,3.0,314.8436320000328,,lb11,1,2022-05-13_14h22.34.969,threat_forest,2021.2.3,59.94758171456369,False,13.0,0.47619047619047616,0.4151785714285714,-1.2040816326530612,-1.0499574829931975,0,0,0.0,-0.06262110688453605,-0.0095054482418793,0.2448979591836734,0.2448979591836734,0.2857142857142857,0.1428571428571428,-0.5714285714285712,-0.40816326530612246,3.5918367346938775,3.5918367346938775,1.0,1.0,-1.0,4.0,0,1,0,0,-0.0095054482418793
9.0,0.0,9.0,0.0,2.0,0.0,2.0,0.0,,,,left,0.9250310999341308,322.9878692999482,lb11,322.9878692999482,,304.3976751998998,307.9101734999567,True,3.0,['p'],True,0.2448979591836734,0.2857142857142857,0.1428571428571428,1.0,1.0,0.8400769154957735,-0.0093268589937369,unsucc_cost,0.0,1.0,320.89359610015526,,lb11,1,2022-05-13_14h22.34.969,threat_forest,2021.2.3,59.94758171456369,True,13.0,0.47619047619047616,0.4151785714285714,-1.2040816326530612,-1.0499574829931975,0,0,1.0,-0.07792792048449185,-0.0093268589937369,0.2448979591836734,0.2448979591836734,0.2857142857142857,0.1428571428571428,-0.5714285714285712,-0.40816326530612246,2.5918367346938775,2.5918367346938775,1.0,1.0,-1.0,3.0,0,1,0,0,-0.0093268589937369
9.0,0.0,9.0,0.0,3.0,0.0,3.0,0.0,,,,right,0.7661505001597106,329.22224220028147,lb11,323.95106110023335,325.96031410014257,329.22224220028147,,True,1.0,['p'],False,0.4444444444444445,0.6666666666666666,0.3333333333333333,1.0,1.0,0.9656336071428248,0.0784655024537925,unsucc_cost,1.0,0.0,325.96031410014257,,lb11,1,2022-05-13_14h22.34.969,threat_forest,2021.2.3,59.94758171456369,True,13.0,0.47619047619047616,0.4151785714285714,-1.2040816326530612,-1.0499574829931975,1,1,1.0,-0.26637665313598824,0.0784655024537925,1.0,0.4444444444444445,0.6666666666666666,0.3333333333333333,0.0,0.0,1.0,1.0,0.0,1.0,-1.0,1.0,1,1,1,1,0.625
10.0,0.0,10.0,0.0,0.0,0.0,0.0,0.0,333.4485487998463,336.9532844000496,,right,0.888542499858886,338.96138500003144,lb11,333.4485487998463,336.9532844000496,338.96138500003144,,True,4.0,['r'],False,0.5714285714285714,0.5714285714285714,0.0,0.0,2.0,0.6216097450797566,0.0806960090466623,succ_gain,1.0,6.0,,,lb11,1,2022-05-13_14h22.34.969,threat_forest,2021.2.3,59.94758171456369,True,19.0,0.5982142857142857,0.5372023809523809,-0.044642857142857206,-0.6243622448979592,1,1,1.0,-0.11817279926310369,0.0806960090466623,0.5714285714285714,0.5714285714285714,0.5714285714285714,0.0,1.2857142857142856,1.2857142857142856,5.285714285714286,5.285714285714286,0.0,2.0,-1.0,4.0,0,1,1,1,0.0806960090466623
10.0,0.0,10.0,0.0,1.0,0.0,1.0,0.0,,,,left,0.9552020002156496,344.65206630015746,lb11,344.65206630015746,,339.8819090998732,341.8937336001545,True,6.0,['r'],True,0.46875,0.625,0.25,2.0,2.0,0.9634951148421658,-0.055384245573103,succ_gain,0.0,6.0,341.8937336001545,,lb11,1,2022-05-13_14h22.34.969,threat_forest,2021.2.3,59.94758171456369,True,19.0,0.5982142857142857,0.5372023809523809,-0.044642857142857206,-0.6243622448979592,1,0,1.0,-0.045832442317883006,-0.055384245573103,0.46875,0.46875,0.625,0.25,0.75,0.625,6.625,6.625,1.0,2.0,1.0,6.0,0,1,0,1,-0.055384245573103
10.0,0.0,10.0,0.0,2.0,0.0,2.0,0.0,,,,right,0.8747225999832153,350.4630535002798,lb11,345.6276559000835,347.62747000018135,350.4630535002798,,True,6.0,['r'],False,0.5714285714285714,0.5714285714285714,0.0,0.0,2.0,0.6216097450797566,0.0585643106180149,succ_gain,1.0,6.0,347.62747000018135,,lb11,1,2022-05-13_14h22.34.969,threat_forest,2021.2.3,59.94758171456369,True,19.0,0.5982142857142857,0.5372023809523809,-0.044642857142857206,-0.6243622448979592,1,1,1.0,-0.13384847147932105,0.0585643106180149,0.5714285714285714,0.5714285714285714,0.5714285714285714,0.0,1.2857142857142856,1.2857142857142856,7.285714285714286,7.0,0.0,2.0,-1.0,6.0,0,1,1,1,0.0585643106180149
10.0,0.0,10.0,0.0,3.0,0.0,3.0,0.0,,,,left,1.0021409997716546,355.04946510028094,lb11,355.04946510028094,,351.3616720000282,353.3607272002846,True,6.0,['r'],True,0.46875,0.625,0.25,2.0,2.0,0.9634951148421658,-0.1360449499013472,succ_gain,0.0,6.0,353.3607272002846,,lb11,1,2022-05-13_14h22.34.969,threat_forest,2021.2.3,59.94758171456369,True,19.0,0.5982142857142857,0.5372023809523809,-0.044642857142857206,-0.6243622448979592,1,0,1.0,0.0021387110977615126,-0.1360449499013472,0.0,0.46875,0.625,0.25,0.75,0.625,6.625,6.625,1.0,2.0,-1.0,6.0,0,0,0,1,-0.84
10.0,0.0,10.0,0.0,4.0,0.0,4.0,0.0,,,,left,0.8336664997041225,359.49281449988484,lb11,359.49281449988484,,351.3616720000282,353.3607272002846,True,6.0,['r'],True,0.46875,0.625,0.25,2.0,2.0,0.9634951148421658,-0.0738313636001275,succ_gain,0.0,6.0,358.0777365998365,,lb11,1,2022-05-13_14h22.34.969,threat_forest,2021.2.3,59.94758171456369,True,19.0,0.5982142857142857,0.5372023809523809,-0.044642857142857206,-0.6243622448979592,1,0,1.0,-0.1819218370475907,-0.0738313636001275,0.0,0.46875,0.625,0.25,0.75,0.625,6.625,6.625,1.0,2.0,-1.0,6.0,0,0,0,1,-0.84
10.0,0.0,10.0,0.0,5.0,0.0,5.0,0.0,,,,left,0.7568756002001464,363.7445514001884,lb11,363.7445514001884,,351.3616720000282,353.3607272002846,True,6.0,['r'],True,0.46875,0.625,0.25,2.0,2.0,0.9634951148421658,0.0,figh_cost,0.0,3.0,362.36080999998376,,lb11,1,2022-05-13_14h22.34.969,threat_forest,2021.2.3,59.94758171456369,True,19.0,0.5982142857142857,0.5372023809523809,-0.044642857142857206,-0.6243622448979592,1,0,1.0,-0.27855637167737857,0.0,0.0,0.46875,0.625,0.25,0.75,0.625,6.625,6.625,1.0,2.0,-1.0,6.0,0,0,0,1,-0.84
10.0,0.0,10.0,0.0,6.0,0.0,6.0,0.0,,,,right,1.9804150997661052,368.6163571001962,lb11,364.5280683999881,366.5274342000485,368.6163571001962,,True,3.0,['r'],False,0.5714285714285714,0.5714285714285714,0.0,0.0,2.0,0.6216097450797566,-0.2056760204081633,unsucc_cost,1.0,1.0,366.5274342000485,,lb11,1,2022-05-13_14h22.34.969,threat_forest,2021.2.3,59.94758171456369,True,19.0,0.5982142857142857,0.5372023809523809,-0.044642857142857206,-0.6243622448979592,1,1,1.0,0.6833064690802373,-0.2056760204081633,0.0,0.5714285714285714,0.5714285714285714,0.0,1.2857142857142856,1.2857142857142856,4.285714285714286,4.285714285714286,0.0,2.0,-1.0,3.0,0,0,1,1,-0.84
10.0,0.0,10.0,0.0,7.0,0.0,7.0,0.0,,,,left,0.8112980998121202,374.9332795999944,lb11,374.9332795999944,,370.6333293002099,372.6443266998977,True,1.0,['r'],True,0.46875,0.625,0.25,2.0,2.0,0.9634951148421658,0.46875,figh_cost,0.0,0.0,372.6443266998977,,lb11,1,2022-05-13_14h22.34.969,threat_forest,2021.2.3,59.94758171456369,True,19.0,0.5982142857142857,0.5372023809523809,-0.044642857142857206,-0.6243622448979592,1,0,1.0,-0.20911972173581397,0.46875,1.0,0.46875,0.625,0.25,0.75,0.625,1.625,1.625,1.0,2.0,-1.0,1.0,1,1,0,1,0.625
11.0,0.0,11.0,0.0,0.0,0.0,0.0,0.0,379.464476400055,382.9640823001973,,right,1.1146145998500288,385.6784383999184,lb11,385.6784383999184,,379.464476400055,382.9640823001973,False,4.0,['p'],True,0.32,0.4,0.2,1.0,1.0,0.9455672104350704,0.0193852844836012,wait_cost,0.0,3.0,,,lb11,1,2022-05-13_14h22.34.969,threat_forest,2021.2.3,59.94758171456369,False,61.0,0.325,0.4616071428571429,-1.354375,-0.6995089285714287,0,0,0.0,0.10850869480250923,0.0193852844836012,0.32,0.32,0.4,0.2,-0.3999999999999999,-0.24,3.76,3.76,1.0,1.0,-1.0,4.0,0,1,0,0,0.0193852844836012
11.0,0.0,11.0,0.0,1.0,0.0,1.0,0.0,,,,left,1.3254232998006046,391.4332767999731,lb11,386.8196898000315,388.82812680024654,391.4332767999731,,False,3.0,['p'],False,0.21875,0.25,0.125,1.0,1.0,0.7908280489481783,0.0119374428081254,wait_cost,1.0,2.0,388.82812680024654,,lb11,1,2022-05-13_14h22.34.969,threat_forest,2021.2.3,59.94758171456369,False,61.0,0.325,0.4616071428571429,-1.354375,-0.6995089285714287,0,0,0.0,0.2817318799656428,0.0119374428081254,0.21875,0.21875,0.25,0.125,-0.625,-0.46875,2.53125,2.53125,0.0,1.0,-1.0,3.0,0,1,0,0,0.0119374428081254
11.0,0.0,11.0,0.0,2.0,0.0,2.0,0.0,,,,left,1.2889690999872985,398.5727869002149,lb11,386.8196898000315,388.82812680024654,398.5727869002149,,False,2.0,['p'],False,0.21875,0.25,0.125,1.0,1.0,0.7908280489481783,0.0057226981557463,wait_cost,1.0,1.0,394.7947173002176,,lb11,1,2022-05-13_14h22.34.969,threat_forest,2021.2.3,59.94758171456369,False,61.0,0.325,0.4616071428571429,-1.354375,-0.6995089285714287,0,0,0.0,0.25384275158848846,0.0057226981557463,0.21875,0.21875,0.25,0.125,-0.625,-0.46875,1.53125,1.53125,0.0,1.0,-1.0,2.0,0,1,0,0,0.0057226981557463
11.0,0.0,11.0,0.0,3.0,0.0,3.0,0.0,,,,right,0.4542231000959873,404.8246245998889,lb11,404.8246245998889,,399.8874560999684,401.8945932001807,False,1.0,['p'],True,0.32,0.4,0.2,1.0,1.0,0.9455672104350704,0.0364120585156251,wait_cost,0.0,0.0,401.8945932001807,,lb11,1,2022-05-13_14h22.34.969,threat_forest,2021.2.3,59.94758171456369,False,61.0,0.325,0.4616071428571429,-1.354375,-0.6995089285714287,0,0,0.0,-0.7891667917400385,0.0364120585156251,1.0,0.32,0.4,0.2,-0.3999999999999999,-0.24,0.76,1.0,1.0,1.0,-1.0,1.0,1,1,0,0,0.625
12.0,0.0,12.0,0.0,0.0,0.0,0.0,0.0,409.8664386002347,413.3664289000444,,right,0.5800787000916898,417.0245273001492,lb11,409.8664386002347,413.3664289000444,417.0245273001492,,True,4.0,['p'],False,0.25,0.5,0.5,1.0,2.0,0.9463946303571862,0.0192737415335937,succ_gain,1.0,6.0,,,lb11,1,2022-05-13_14h22.34.969,threat_forest,2021.2.3,59.94758171456369,True,8.0,0.35,0.3375,-1.5300000000000002,-1.4421875000000002,0,0,1.0,-0.5445914948334437,0.0192737415335937,0.25,0.25,0.5,0.5,-0.5,-0.5,3.5,3.5,0.0,2.0,-1.0,4.0,0,1,0,0,0.0192737415335937
12.0,0.0,12.0,0.0,1.0,0.0,1.0,0.0,,,,left,0.8215152998454869,420.8536879001185,lb11,420.8536879001185,,417.62972269998863,419.645175000187,True,6.0,['p'],True,0.16,0.2,0.2,2.0,2.0,0.8198746470064713,-0.0746401575431251,unsucc_cost,0.0,4.0,419.645175000187,,lb11,1,2022-05-13_14h22.34.969,threat_forest,2021.2.3,59.94758171456369,True,8.0,0.35,0.3375,-1.5300000000000002,-1.4421875000000002,0,0,1.0,-0.196604717398893,-0.0746401575431251,0.16,0.16,0.2,0.2,-0.8000000000000003,-0.5600000000000003,5.4399999999999995,5.4399999999999995,1.0,2.0,1.0,6.0,0,1,0,0,-0.0746401575431251
12.0,0.0,12.0,0.0,2.0,0.0,2.0,0.0,,,,right,0.8380616996437311,424.8322275001556,lb11,424.8322275001556,,417.62972269998863,419.645175000187,False,4.0,['p'],True,0.16,0.2,0.2,2.0,2.0,0.8198746470064713,-0.0245241806250002,wait_cost,0.0,3.0,423.7000842001289,,lb11,1,2022-05-13_14h22.34.969,threat_forest,2021.2.3,59.94758171456369,False,8.0,0.35,0.3375,-1.5300000000000002,-1.4421875000000002,0,0,0.0,-0.17666355395058533,-0.0245241806250002,0.16,0.16,0.2,0.2,-0.8000000000000003,-0.5600000000000003,3.4399999999999995,3.4399999999999995,1.0,2.0,-1.0,4.0,0,1,0,0,-0.0245241806250002
12.0,0.0,12.0,0.0,3.0,0.0,3.0,0.0,,,,right,0.6815244001336396,429.39409970026463,lb11,429.39409970026463,,417.62972269998863,419.645175000187,False,3.0,['p'],True,0.16,0.2,0.2,2.0,2.0,0.8198746470064713,-0.0286352800000001,wait_cost,0.0,2.0,427.6952042002231,,lb11,1,2022-05-13_14h22.34.969,threat_forest,2021.2.3,59.94758171456369,False,8.0,0.35,0.3375,-1.5300000000000002,-1.4421875000000002,0,0,0.0,-0.3834232249154778,-0.0286352800000001,0.16,0.16,0.2,0.2,-0.8000000000000003,-0.5600000000000003,2.4399999999999995,2.4399999999999995,1.0,2.0,-1.0,3.0,0,1,0,0,-0.0286352800000001
12.0,0.0,12.0,0.0,4.0,0.0,4.0,0.0,,,,right,1.1753787999041378,433.00955360010266,lb11,430.0957289002836,432.0952197001316,433.00955360010266,,True,2.0,['p'],False,0.25,0.5,0.5,1.0,2.0,0.9463946303571862,0.045,figh_cost,1.0,0.0,432.0952197001316,,lb11,1,2022-05-13_14h22.34.969,threat_forest,2021.2.3,59.94758171456369,True,8.0,0.35,0.3375,-1.5300000000000002,-1.4421875000000002,0,0,1.0,0.1615904785390605,0.045,0.25,0.25,0.5,0.5,-0.5,-0.5,1.5,1.5,0.0,2.0,-1.0,2.0,0,1,0,0,0.045
13.0,0.0,13.0,0.0,0.0,0.0,0.0,0.0,439.004059900064,442.5090554999188,,left,1.0708026997745037,443.1799612999894,lb11,443.1799612999894,,439.004059900064,442.5090554999188,True,4.0,['p'],True,0.32,0.4,0.2,1.0,2.0,0.9455672104350704,0.0381787567431899,unsucc_cost,0.0,2.0,,,lb11,1,2022-05-13_14h22.34.969,threat_forest,2021.2.3,59.94758171456369,True,12.0,0.3111111111111111,0.33055555555555555,-1.1204938271604938,-1.325246913580247,1,0,1.0,0.06840855392956309,0.0381787567431899,0.32,0.32,0.4,0.2,0.0,0.07999999999999996,4.08,4.08,1.0,2.0,-1.0,4.0,0,1,0,1,0.0381787567431899
13.0,0.0,13.0,0.0,1.0,0.0,1.0,0.0,,,,right,0.8360338001511991,447.1657378999517,lb11,444.2934050001204,446.2955188001506,447.1657378999517,,True,2.0,['p'],False,0.1975308641975308,0.2222222222222222,0.1111111111111111,1.0,2.0,0.7461067557824965,-0.0130550838348044,figh_cost,1.0,0.0,446.2955188001506,,lb11,1,2022-05-13_14h22.34.969,threat_forest,2021.2.3,59.94758171456369,True,12.0,0.3111111111111111,0.33055555555555555,-1.1204938271604938,-1.325246913580247,1,0,1.0,-0.17908623591186856,-0.0130550838348044,0.1975308641975308,0.1975308641975308,0.2222222222222222,0.1111111111111111,-0.4444444444444444,-0.32098765432098775,1.6790123456790123,1.6790123456790123,0.0,2.0,-1.0,2.0,0,1,0,1,-0.0130550838348044
14.0,0.0,14.0,0.0,0.0,0.0,0.0,0.0,452.34848689986393,455.8624304002151,,left,0.7503379001282156,458.44956640014425,lb11,458.44956640014425,,452.34848689986393,455.8624304002151,True,4.0,['r'],True,0.3333333333333333,0.5,0.3333333333333333,2.0,2.0,1.0,0.0039043511659807,figh_cost,0.0,1.0,,,lb11,1,2022-05-13_14h22.34.969,threat_forest,2021.2.3,59.94758171456369,True,2.0,0.45,0.38055555555555554,-0.7,-0.9102469135802469,0,0,1.0,-0.2872316404072399,0.0039043511659807,0.3333333333333333,0.3333333333333333,0.5,0.3333333333333333,0.0,0.0,4.0,4.0,1.0,2.0,-1.0,4.0,0,1,0,0,0.0039043511659807
14.0,0.0,14.0,0.0,1.0,0.0,1.0,0.0,,,,left,0.7608005995862186,463.0230016000569,lb11,463.0230016000569,,452.34848689986393,455.8624304002151,True,1.0,['r'],True,0.3333333333333333,0.5,0.3333333333333333,2.0,2.0,1.0,0.1139699588477365,figh_cost,0.0,0.0,461.229022399988,,lb11,1,2022-05-13_14h22.34.969,threat_forest,2021.2.3,59.94758171456369,True,2.0,0.45,0.38055555555555554,-0.7,-0.9102469135802469,0,0,1.0,-0.27338397965161065,0.1139699588477365,1.0,0.3333333333333333,0.5,0.3333333333333333,0.0,0.0,1.0,1.0,1.0,2.0,-1.0,1.0,1,1,0,0,0.625
15.0,0.0,15.0,0.0,0.0,0.0,0.0,0.0,466.58620799984783,470.0960209998302,,right,0.8282161001116037,473.3005152000114,lb11,466.58620799984783,470.0960209998302,473.3005152000114,,True,4.0,['r'],False,0.36,0.6,0.4,2.0,2.0,0.9801625908629508,-0.0020350304999999,unsucc_cost,1.0,2.0,,,lb11,1,2022-05-13_14h22.34.969,threat_forest,2021.2.3,59.94758171456369,True,67.0,0.55,0.5,-0.4800000000000001,-0.5900000000000001,0,0,1.0,-0.18848116817601476,-0.0020350304999999,0.36,0.36,0.6,0.4,0.19999999999999973,0.039999999999999813,4.04,4.04,0.0,2.0,-1.0,4.0,0,1,0,0,-0.0020350304999999
15.0,0.0,15.0,0.0,1.0,0.0,1.0,0.0,,,,left,0.8433948997408152,479.4903226001188,lb11,479.4903226001188,,474.1462400001474,476.1458024000749,True,2.0,['r'],True,0.5,0.5,0.0,0.0,2.0,0.6309297535714574,0.0640913125000001,succ_gain,0.0,4.0,476.1458024000749,,lb11,1,2022-05-13_14h22.34.969,threat_forest,2021.2.3,59.94758171456369,True,67.0,0.55,0.5,-0.4800000000000001,-0.5900000000000001,1,0,1.0,-0.17031998494808187,0.0640913125000001,0.5,0.5,0.5,0.0,1.0,1.0,3.0,3.0,1.0,2.0,-1.0,2.0,0,1,0,1,0.0640913125000001
15.0,0.0,15.0,0.0,2.0,0.0,2.0,0.0,,,,left,0.6679398003034294,484.2846752000041,lb11,484.2846752000041,,474.1462400001474,476.1458024000749,True,4.0,['r'],True,0.5,0.5,0.0,0.0,2.0,0.6309297535714574,0.10350625,unsucc_cost,0.0,2.0,482.3792317998596,,lb11,1,2022-05-13_14h22.34.969,threat_forest,2021.2.3,59.94758171456369,True,67.0,0.55,0.5,-0.4800000000000001,-0.5900000000000001,1,0,1.0,-0.40355722881272343,0.10350625,0.5,0.5,0.5,0.0,1.0,1.0,5.0,5.0,1.0,2.0,1.0,4.0,0,1,0,1,0.10350625
15.0,0.0,15.0,0.0,3.0,0.0,3.0,0.0,,,,right,0.8170730001293123,487.5972207002342,lb11,484.9794939002022,486.97936460003257,487.5972207002342,,True,2.0,['r'],False,0.36,0.6,0.4,2.0,2.0,0.9801625908629508,-0.0060019999999999,succ_gain,1.0,4.0,486.97936460003257,,lb11,1,2022-05-13_14h22.34.969,threat_forest,2021.2.3,59.94758171456369,True,67.0,0.55,0.5,-0.4800000000000001,-0.5900000000000001,0,0,1.0,-0.20202683667026994,-0.0060019999999999,0.36,0.36,0.6,0.4,0.19999999999999973,0.039999999999999813,2.04,2.04,0.0,2.0,-1.0,2.0,0,1,0,0,-0.0060019999999999
15.0,0.0,15.0,0.0,4.0,0.0,4.0,0.0,,,,left,0.8916388000361621,491.4583393000066,lb11,491.4583393000066,,488.4464934999123,490.446160200052,True,4.0,['r'],True,0.5,0.5,0.0,0.0,2.0,0.6309297535714574,0.1425,succ_gain,0.0,6.0,490.446160200052,,lb11,1,2022-05-13_14h22.34.969,threat_forest,2021.2.3,59.94758171456369,True,67.0,0.55,0.5,-0.4800000000000001,-0.5900000000000001,1,0,1.0,-0.11469416110439593,0.1425,0.5,0.5,0.5,0.0,1.0,1.0,5.0,5.0,1.0,2.0,1.0,4.0,0,1,0,1,0.1425
15.0,0.0,15.0,0.0,5.0,0.0,5.0,0.0,,,,right,0.5935047999955714,497.20427539991215,lb11,497.20427539991215,,488.4464934999123,490.446160200052,False,6.0,['r'],True,0.5,0.5,0.0,0.0,2.0,0.6309297535714574,0.0,wait_cost,0.0,5.0,494.39628100022674,,lb11,1,2022-05-13_14h22.34.969,threat_forest,2021.2.3,59.94758171456369,False,67.0,0.55,0.5,-0.4800000000000001,-0.5900000000000001,1,0,0.0,-0.5217099773567425,0.0,0.0,0.5,0.5,0.0,1.0,1.0,7.0,7.0,1.0,2.0,1.0,6.0,0,0,0,1,-0.84
15.0,0.0,15.0,0.0,6.0,0.0,6.0,0.0,,,,right,0.5098117999732494,503.2536144000478,lb11,503.2536144000478,,488.4464934999123,490.446160200052,False,5.0,['r'],True,0.5,0.5,0.0,0.0,2.0,0.6309297535714574,0.0,wait_cost,0.0,4.0,499.8459910000674,,lb11,1,2022-05-13_14h22.34.969,threat_forest,2021.2.3,59.94758171456369,False,67.0,0.55,0.5,-0.4800000000000001,-0.5900000000000001,1,0,0.0,-0.6737136410285708,0.0,0.0,0.5,0.5,0.0,1.0,1.0,6.0,6.0,1.0,2.0,-1.0,5.0,0,0,0,1,-0.84
15.0,0.0,15.0,0.0,7.0,0.0,7.0,0.0,,,,left,0.7911029001697898,506.4477468999103,lb11,503.7797678001225,505.7801103000529,506.4477468999103,,False,4.0,['r'],False,0.36,0.6,0.4,2.0,2.0,0.9801625908629508,0.0,wait_cost,1.0,3.0,505.7801103000529,,lb11,1,2022-05-13_14h22.34.969,threat_forest,2021.2.3,59.94758171456369,False,67.0,0.55,0.5,-0.4800000000000001,-0.5900000000000001,0,0,0.0,-0.2343272309650584,0.0,0.0,0.36,0.6,0.4,0.19999999999999973,0.039999999999999813,4.04,4.04,0.0,2.0,-1.0,4.0,0,0,0,0,-0.84
16.0,0.0,16.0,0.0,0.0,0.0,0.0,0.0,511.2194690001197,514.7146471999586,,right,0.9770352998748422,516.0282141999342,lb11,511.2194690001197,514.7146471999586,516.0282141999342,,True,5.0,['p'],False,0.4444444444444445,0.6666666666666666,0.3333333333333333,1.0,2.0,0.9656336071428248,0.0210978181405199,figh_cost,1.0,2.0,,,lb11,1,2022-05-13_14h22.34.969,threat_forest,2021.2.3,59.94758171456369,True,53.0,0.5,0.525,-0.8703703703703706,-0.6751851851851853,1,0,1.0,-0.023232496706857213,0.0210978181405199,0.4444444444444445,0.4444444444444445,0.6666666666666666,0.3333333333333333,0.6666666666666665,0.4444444444444444,5.444444444444445,5.444444444444445,0.0,2.0,-1.0,5.0,0,1,0,1,0.0210978181405199
16.0,0.0,16.0,0.0,1.0,0.0,1.0,0.0,,,,left,0.9862259002402424,520.8523201001808,lb11,520.8523201001808,,517.0299713001586,519.0297811999917,True,2.0,['p'],True,0.2592592592592592,0.3333333333333333,0.2222222222222222,2.0,2.0,0.9327883776363324,-0.0266009982502498,unsucc_cost,0.0,0.0,519.0297811999917,,lb11,1,2022-05-13_14h22.34.969,threat_forest,2021.2.3,59.94758171456369,True,53.0,0.5,0.525,-0.8703703703703706,-0.6751851851851853,0,0,1.0,-0.013869842871949424,-0.0266009982502498,0.2592592592592592,0.2592592592592592,0.3333333333333333,0.2222222222222222,-0.3333333333333335,-0.18518518518518556,1.8148148148148144,1.8148148148148144,1.0,2.0,-1.0,2.0,0,1,0,0,-0.0266009982502498
17.0,0.0,17.0,0.0,0.0,0.0,0.0,0.0,526.1760256001726,529.6803864999674,,left,0.6970911999233067,532.3192750001326,lb11,532.3192750001326,,526.1760256001726,529.6803864999674,True,5.0,['p'],True,0.2040816326530612,0.2857142857142857,0.2857142857142857,2.0,2.0,0.9335459102197724,-0.0417655517413427,figh_cost,0.0,2.0,,,lb11,1,2022-05-13_14h22.34.969,threat_forest,2021.2.3,59.94758171456369,True,21.0,0.47619047619047616,0.4880952380952381,-1.012471655328798,-0.9414210128495843,0,0,1.0,-0.3608390304063514,-0.0417655517413427,0.2040816326530612,0.2040816326530612,0.2857142857142857,0.2857142857142857,-0.7142857142857144,-0.46938775510204067,4.530612244897959,4.530612244897959,1.0,2.0,-1.0,5.0,0,1,0,0,-0.0417655517413427
17.0,0.0,17.0,0.0,1.0,0.0,1.0,0.0,,,,right,0.6607312001287937,536.3461176999845,lb11,533.0607745000161,535.062849199865,536.3461176999845,,True,2.0,['p'],False,0.4444444444444445,0.6666666666666666,0.3333333333333333,1.0,2.0,0.9656336071428248,0.0754537458767131,succ_gain,1.0,4.0,535.062849199865,,lb11,1,2022-05-13_14h22.34.969,threat_forest,2021.2.3,59.94758171456369,True,21.0,0.47619047619047616,0.4880952380952381,-1.012471655328798,-0.9414210128495843,1,0,1.0,-0.41440817822367315,0.0754537458767131,0.4444444444444445,0.4444444444444445,0.6666666666666666,0.3333333333333333,0.6666666666666665,0.4444444444444444,2.4444444444444446,2.4444444444444446,0.0,2.0,-1.0,2.0,0,1,0,1,0.0754537458767131
17.0,0.0,17.0,0.0,2.0,0.0,2.0,0.0,,,,right,0.5585826998576522,540.9376551001333,lb11,533.0607745000161,535.062849199865,540.9376551001333,,True,4.0,['p'],False,0.4444444444444445,0.6666666666666666,0.3333333333333333,1.0,2.0,0.9656336071428248,0.1066513781123434,unsucc_cost,1.0,2.0,539.0300790001638,,lb11,1,2022-05-13_14h22.34.969,threat_forest,2021.2.3,59.94758171456369,True,21.0,0.47619047619047616,0.4880952380952381,-1.012471655328798,-0.9414210128495843,1,0,1.0,-0.5823525964883373,0.1066513781123434,0.4444444444444445,0.4444444444444445,0.6666666666666666,0.3333333333333333,0.6666666666666665,0.4444444444444444,4.444444444444445,4.444444444444445,0.0,2.0,1.0,4.0,0,1,0,1,0.1066513781123434
17.0,0.0,17.0,0.0,3.0,0.0,3.0,0.0,,,,right,1.0203945999965072,546.4662168002687,lb11,546.4662168002687,,541.5137741998769,543.5136306001805,False,2.0,['p'],True,0.2040816326530612,0.2857142857142857,0.2857142857142857,2.0,2.0,0.9335459102197724,-0.0306724464080636,wait_cost,0.0,1.0,543.5136306001805,,lb11,1,2022-05-13_14h22.34.969,threat_forest,2021.2.3,59.94758171456369,False,21.0,0.47619047619047616,0.4880952380952381,-1.012471655328798,-0.9414210128495843,0,0,0.0,0.020189415225757013,-0.0306724464080636,0.2040816326530612,0.2040816326530612,0.2857142857142857,0.2857142857142857,-0.7142857142857144,-0.46938775510204067,1.5306122448979593,1.5306122448979593,1.0,2.0,-1.0,2.0,0,1,0,0,-0.0306724464080636
17.0,0.0,17.0,0.0,4.0,0.0,4.0,0.0,,,,right,0.8628913001157343,551.7925833999179,lb11,547.515412400011,549.530330600217,551.7925833999179,,True,1.0,['p'],False,0.4444444444444445,0.6666666666666666,0.3333333333333333,1.0,2.0,0.9656336071428248,0.2001903642115282,succ_gain,1.0,3.0,549.530330600217,,lb11,1,2022-05-13_14h22.34.969,threat_forest,2021.2.3,59.94758171456369,True,21.0,0.47619047619047616,0.4880952380952381,-1.012471655328798,-0.9414210128495843,1,0,1.0,-0.1474665516652593,0.2001903642115282,1.0,0.4444444444444445,0.6666666666666666,0.3333333333333333,0.6666666666666665,0.4444444444444444,1.4444444444444444,1.4444444444444444,0.0,2.0,-1.0,1.0,1,1,0,1,0.625
17.0,0.0,17.0,0.0,5.0,0.0,5.0,0.0,,,,right,0.9866895000450312,557.2345039001666,lb11,557.2345039001666,,552.6816217000596,554.6804112000391,False,3.0,['p'],True,0.2040816326530612,0.2857142857142857,0.2857142857142857,2.0,2.0,0.9335459102197724,-0.0148317830533574,wait_cost,0.0,2.0,554.6804112000391,,lb11,1,2022-05-13_14h22.34.969,threat_forest,2021.2.3,59.94758171456369,False,21.0,0.47619047619047616,0.4880952380952381,-1.012471655328798,-0.9414210128495843,0,0,0.0,-0.013399878662379572,-0.0148317830533574,0.2040816326530612,0.2040816326530612,0.2857142857142857,0.2857142857142857,-0.7142857142857144,-0.46938775510204067,2.5306122448979593,2.5306122448979593,1.0,2.0,1.0,3.0,0,1,0,0,-0.0148317830533574
17.0,0.0,17.0,0.0,6.0,0.0,6.0,0.0,,,,right,0.5934232999570668,564.0632651001215,lb11,558.234933800064,560.2472450998612,564.0632651001215,,True,2.0,['p'],False,0.4444444444444445,0.6666666666666666,0.3333333333333333,1.0,2.0,0.9656336071428248,0.1201814058956916,figh_cost,1.0,0.0,560.2472450998612,,lb11,1,2022-05-13_14h22.34.969,threat_forest,2021.2.3,59.94758171456369,True,21.0,0.47619047619047616,0.4880952380952381,-1.012471655328798,-0.9414210128495843,1,0,1.0,-0.5218473067175284,0.1201814058956916,0.4444444444444445,0.4444444444444445,0.6666666666666666,0.3333333333333333,0.6666666666666665,0.4444444444444444,2.4444444444444446,2.4444444444444446,0.0,2.0,-1.0,2.0,0,1,0,1,0.1201814058956916
0.0,0.0,0.0,0.0,0.0,0.0,0.0,0.0,13.168848800007254,16.6621288000606,,right,1.5060768998228014,17.51643420010805,lb11,13.168848800007254,16.6621288000606,17.51643420010805,,True,4.0,['r'],False,0.4444444444444445,0.6666666666666666,0.3333333333333333,1.0,1.0,0.9656336071428248,0.0532959044563323,succ_gain,1.0,5.0,,,lb11,2,2022-05-13_14h32.06.640,threat_forest,2021.2.3,59.93953298528319,True,23.0,0.43333333333333335,0.45476190476190476,-1.3600000000000003,-1.1862358276643992,1,0,1.0,0.4095081903734039,0.0532959044563323,0.4444444444444445,0.4444444444444445,0.6666666666666666,0.3333333333333333,0.0,0.0,4.0,4.0,0.0,1.0,-1.0,4.0,0,1,0,1,0.0532959044563323
0.0,0.0,0.0,0.0,1.0,0.0,1.0,0.0,,,,right,0.6279730000533164,23.508277100045238,lb11,13.168848800007254,16.6621288000606,23.508277100045238,,True,5.0,['r'],False,0.4444444444444445,0.6666666666666666,0.3333333333333333,1.0,1.0,0.9656336071428248,0.0752131950978565,fight_cost,1.0,2.0,21.06424150010571,,lb11,2,2022-05-13_14h32.06.640,threat_forest,2021.2.3,59.93953298528319,True,23.0,0.43333333333333335,0.45476190476190476,-1.3600000000000003,-1.1862358276643992,1,0,1.0,-0.46525810698386194,0.0752131950978565,0.4444444444444445,0.4444444444444445,0.6666666666666666,0.3333333333333333,0.0,0.0,5.0,5.0,0.0,1.0,1.0,5.0,0,1,0,1,0.0752131950978565
0.0,0.0,0.0,0.0,2.0,0.0,2.0,0.0,,,,right,0.7177685000933707,27.338192000053823,lb11,13.168848800007254,16.6621288000606,27.338192000053823,,True,2.0,['r'],False,0.4444444444444445,0.6666666666666666,0.3333333333333333,1.0,1.0,0.9656336071428248,0.0429449461972261,fight_cost,1.0,0.0,26.164525600150228,,lb11,2,2022-05-13_14h32.06.640,threat_forest,2021.2.3,59.93953298528319,True,23.0,0.43333333333333335,0.45476190476190476,-1.3600000000000003,-1.1862358276643992,1,0,1.0,-0.3316081851917562,0.0429449461972261,0.4444444444444445,0.4444444444444445,0.6666666666666666,0.3333333333333333,0.0,0.0,2.0,2.0,0.0,1.0,-1.0,2.0,0,1,0,1,0.0429449461972261
1.0,0.0,1.0,0.0,0.0,0.0,0.0,0.0,30.77560329996049,34.2840741998516,,right,0.8445955999195576,35.6062973998487,lb11,35.6062973998487,,30.77560329996049,34.2840741998516,False,4.0,['r'],True,0.16,0.2,0.2,2.0,1.0,0.8198746470064713,0.0014137909252576,wait_cost,0.0,3.0,,,lb11,2,2022-05-13_14h32.06.640,threat_forest,2021.2.3,59.93953298528319,False,71.0,0.35,0.39166666666666666,-1.7350000000000003,-1.5475000000000003,0,0,0.0,-0.1688973461577662,0.0014137909252576,0.16,0.16,0.2,0.2,-1.0,-0.7200000000000004,3.2799999999999994,3.2799999999999994,1.0,1.0,-1.0,4.0,0,1,0,0,0.0014137909252576
1.0,0.0,1.0,0.0,1.0,0.0,1.0,0.0,,,,right,0.6893461998552084,41.49860360007733,lb11,41.49860360007733,,30.77560329996049,34.2840741998516,False,3.0,['r'],True,0.16,0.2,0.2,2.0,1.0,0.8198746470064713,0.0047856218393748,wait_cost,0.0,2.0,38.49785639997572,,lb11,2,2022-05-13_14h32.06.640,threat_forest,2021.2.3,59.93953298528319,False,71.0,0.35,0.39166666666666666,-1.7350000000000003,-1.5475000000000003,0,0,0.0,-0.3720116670289889,0.0047856218393748,0.16,0.16,0.2,0.2,-1.0,-0.7200000000000004,2.2799999999999994,2.2799999999999994,1.0,1.0,-1.0,3.0,0,1,0,0,0.0047856218393748
1.0,0.0,1.0,0.0,2.0,0.0,2.0,0.0,,,,right,0.6666196999140084,47.7964049000293,lb11,47.7964049000293,,30.77560329996049,34.2840741998516,False,2.0,['r'],True,0.16,0.2,0.2,2.0,1.0,0.8198746470064713,0.0014517228749999,wait_cost,0.0,1.0,44.21459549991414,,lb11,2,2022-05-13_14h32.06.640,threat_forest,2021.2.3,59.93953298528319,False,71.0,0.35,0.39166666666666666,-1.7350000000000003,-1.5475000000000003,0,0,0.0,-0.4055355607188787,0.0014517228749999,0.16,0.16,0.2,0.2,-1.0,-0.7200000000000004,1.2799999999999996,1.2799999999999996,1.0,1.0,-1.0,2.0,0,1,0,0,0.0014517228749999
1.0,0.0,1.0,0.0,3.0,0.0,3.0,0.0,,,,left,1.1122149000875652,51.53003480006009,lb11,51.53003480006009,,30.77560329996049,34.2840741998516,True,1.0,['r'],True,0.16,0.2,0.2,2.0,1.0,0.8198746470064713,0.0097161799999998,unsucc_cost,0.0,0.0,50.48108599986881,,lb11,2,2022-05-13_14h32.06.640,threat_forest,2021.2.3,59.93953298528319,True,71.0,0.35,0.39166666666666666,-1.7350000000000003,-1.5475000000000003,0,0,1.0,0.1063534326313861,0.0097161799999998,1.0,0.16,0.2,0.2,-1.0,-0.7200000000000004,0.2799999999999996,1.0,1.0,1.0,-1.0,1.0,1,1,0,0,0.625
2.0,0.0,2.0,0.0,0.0,0.0,0.0,0.0,57.63993109995499,61.13552889972925,,left,1.4623080999590456,61.754814099986106,lb11,57.63993109995499,61.13552889972925,61.754814099986106,,False,4.0,['r'],False,0.1975308641975308,0.2222222222222222,0.1111111111111111,1.0,2.0,0.7461067557824965,-0.0011819097279037,wait_cost,1.0,3.0,,,lb11,2,2022-05-13_14h32.06.640,threat_forest,2021.2.3,59.93953298528319,False,54.0,0.2777777777777778,0.3138888888888889,-1.1882716049382718,-1.461635802469136,1,0,0.0,0.3800160778113868,-0.0011819097279037,0.1975308641975308,0.1975308641975308,0.2222222222222222,0.1111111111111111,-0.4444444444444444,-0.32098765432098775,3.6790123456790123,3.6790123456790123,0.0,2.0,-1.0,4.0,0,1,0,1,-0.0011819097279037
2.0,0.0,2.0,0.0,1.0,0.0,1.0,0.0,,,,left,1.3134912000969052,65.99389539984986,lb11,57.63993109995499,61.13552889972925,65.99389539984986,,False,3.0,['r'],False,0.1975308641975308,0.2222222222222222,0.1111111111111111,1.0,2.0,0.7461067557824965,0.0316550362114402,wait_cost,1.0,2.0,65.26504499977455,,lb11,2,2022-05-13_14h32.06.640,threat_forest,2021.2.3,59.93953298528319,False,54.0,0.2777777777777778,0.3138888888888889,-1.1882716049382718,-1.461635802469136,1,0,0.0,0.2726886305373877,0.0316550362114402,0.1975308641975308,0.1975308641975308,0.2222222222222222,0.1111111111111111,-0.4444444444444444,-0.32098765432098775,2.6790123456790123,2.6790123456790123,0.0,2.0,-1.0,3.0,0,1,0,1,0.0316550362114402
2.0,0.0,2.0,0.0,2.0,0.0,2.0,0.0,,,,right,0.8136008000001311,71.66163850016892,lb11,57.63993109995499,61.13552889972925,71.66163850016892,,True,2.0,['r'],False,0.1975308641975308,0.2222222222222222,0.1111111111111111,1.0,2.0,0.7461067557824965,-0.0104942922720588,unsucc_cost,1.0,0.0,69.34806959982961,,lb11,2,2022-05-13_14h32.06.640,threat_forest,2021.2.3,59.93953298528319,True,54.0,0.2777777777777778,0.3138888888888889,-1.1882716049382718,-1.461635802469136,1,0,1.0,-0.20628545096394,-0.0104942922720588,0.1975308641975308,0.1975308641975308,0.2222222222222222,0.1111111111111111,-0.4444444444444444,-0.32098765432098775,1.6790123456790123,1.6790123456790123,0.0,2.0,-1.0,2.0,0,1,0,1,-0.0104942922720588
3.0,0.0,3.0,0.0,0.0,0.0,0.0,0.0,76.36372039979324,79.86516569973901,,left,0.5942785004153848,80.49639869993553,lb11,80.49639869993553,,76.36372039979324,79.86516569973901,True,5.0,['r'],True,0.4444444444444445,0.6666666666666666,0.3333333333333333,1.0,1.0,0.9656336071428248,0.0498748920388152,fight_cost,0.0,2.0,,,lb11,2,2022-05-13_14h32.06.640,threat_forest,2021.2.3,59.93953298528319,True,56.0,0.4444444444444444,0.3611111111111111,-1.1666666666666667,-1.1774691358024691,1,1,1.0,-0.5204072135799285,0.0498748920388152,0.4444444444444445,0.4444444444444445,0.6666666666666666,0.3333333333333333,0.0,0.0,5.0,5.0,1.0,1.0,-1.0,5.0,0,1,1,1,0.0498748920388152
3.0,0.0,3.0,0.0,1.0,0.0,1.0,0.0,,,,left,1.2927634003572166,85.73380339983851,lb11,81.11522849975154,83.1153539000079,85.73380339983851,,False,2.0,['r'],False,0.2222222222222222,0.2222222222222222,0.0,0.0,1.0,0.4821593609696809,-0.0105928974241731,wait_cost,1.0,1.0,83.1153539000079,,lb11,2,2022-05-13_14h32.06.640,threat_forest,2021.2.3,59.93953298528319,False,56.0,0.4444444444444444,0.3611111111111111,-1.1666666666666667,-1.1774691358024691,0,0,0.0,0.2567820980166959,-0.0105928974241731,0.2222222222222222,0.2222222222222222,0.2222222222222222,0.0,-0.3333333333333335,-0.3333333333333335,1.6666666666666665,1.6666666666666665,0.0,1.0,-1.0,2.0,0,1,0,0,-0.0105928974241731
3.0,0.0,3.0,0.0,2.0,0.0,2.0,0.0,,,,left,0.7466151998378336,91.17728789988904,lb11,91.17728789988904,,87.04906790005043,89.0484973997809,True,1.0,['r'],True,0.4444444444444445,0.6666666666666666,0.3333333333333333,1.0,1.0,0.9656336071428248,0.0713813951125336,fight_cost,0.0,0.0,89.0484973997809,,lb11,2,2022-05-13_14h32.06.640,threat_forest,2021.2.3,59.93953298528319,True,56.0,0.4444444444444444,0.3611111111111111,-1.1666666666666667,-1.1774691358024691,1,1,1.0,-0.292205353965475,0.0713813951125336,1.0,0.4444444444444445,0.6666666666666666,0.3333333333333333,0.0,0.0,1.0,1.0,1.0,1.0,-1.0,1.0,1,1,1,1,0.625
4.0,0.0,4.0,0.0,0.0,0.0,0.0,0.0,96.30453109974042,99.81560839992017,,right,1.0353591004386544,101.13901899987832,lb11,101.13901899987832,,96.30453109974042,99.81560839992017,False,4.0,['r'],True,0.1875,0.25,0.25,2.0,1.0,0.895754137500101,-0.0017291066874999,wait_cost,0.0,3.0,,,lb11,2,2022-05-13_14h32.06.640,threat_forest,2021.2.3,59.93953298528319,False,57.0,0.4583333333333333,0.45138888888888884,-1.34375,-1.2552083333333335,0,0,0.0,0.03474832348724969,-0.0017291066874999,0.1875,0.1875,0.25,0.25,-1.0,-0.6875,3.3125,3.3125,1.0,1.0,-1.0,4.0,0,1,0,0,-0.0017291066874999
4.0,0.0,4.0,0.0,1.0,0.0,1.0,0.0,,,,right,1.3213998000137508,105.22761899977922,lb11,105.22761899977922,,96.30453109974042,99.81560839992017,False,3.0,['r'],True,0.1875,0.25,0.25,2.0,1.0,0.895754137500101,0.0033269309357997,wait_cost,0.0,2.0,104.21556519996376,,lb11,2,2022-05-13_14h32.06.640,threat_forest,2021.2.3,59.93953298528319,False,57.0,0.4583333333333333,0.45138888888888884,-1.34375,-1.2552083333333335,0,0,0.0,0.27869162926941915,0.0033269309357997,0.1875,0.1875,0.25,0.25,-1.0,-0.6875,2.3125,2.3125,1.0,1.0,-1.0,3.0,0,1,0,0,0.0033269309357997
4.0,0.0,4.0,0.0,2.0,0.0,2.0,0.0,,,,left,1.0331304999999702,111.9269627998583,lb11,111.9269627998583,,96.30453109974042,99.81560839992017,True,2.0,['r'],True,0.1875,0.25,0.25,2.0,1.0,0.895754137500101,-0.0114500663971287,fight_cost,0.0,0.0,108.58214499987662,,lb11,2,2022-05-13_14h32.06.640,threat_forest,2021.2.3,59.93953298528319,True,57.0,0.4583333333333333,0.45138888888888884,-1.34375,-1.2552083333333335,0,0,1.0,0.03259351323291462,-0.0114500663971287,0.1875,0.1875,0.25,0.25,-1.0,-0.6875,1.3125,1.3125,1.0,1.0,-1.0,2.0,0,1,0,0,-0.0114500663971287
5.0,0.0,5.0,0.0,0.0,0.0,0.0,0.0,117.19193219998851,120.68519910005853,,left,1.3593703000806272,122.90864080004394,lb11,117.19193219998851,120.68519910005853,122.90864080004394,,False,5.0,['r'],False,0.24,0.3,0.2,2.0,2.0,0.9003120349047065,-0.0006443703968158,wait_cost,1.0,4.0,,,lb11,2,2022-05-13_14h32.06.640,threat_forest,2021.2.3,59.93953298528319,False,55.0,0.2928571428571428,0.3755952380952381,-1.0485714285714285,-1.1961607142857142,0,0,0.0,0.3070215778769826,-0.0006443703968158,0.24,0.24,0.3,0.2,-0.3999999999999999,-0.24,4.76,4.76,0.0,2.0,-1.0,5.0,0,1,0,0,-0.0006443703968158
5.0,0.0,5.0,0.0,1.0,0.0,1.0,0.0,,,,left,1.2914181002415717,129.86551949987188,lb11,117.19193219998851,120.68519910005853,129.86551949987188,,False,4.0,['r'],False,0.24,0.3,0.2,2.0,2.0,0.9003120349047065,0.006419000614582,wait_cost,1.0,3.0,126.3158514997922,,lb11,2,2022-05-13_14h32.06.640,threat_forest,2021.2.3,59.93953298528319,False,55.0,0.2928571428571428,0.3755952380952381,-1.0485714285714285,-1.1961607142857142,0,0,0.0,0.2557409170958781,0.006419000614582,0.24,0.24,0.3,0.2,-0.3999999999999999,-0.24,3.76,3.76,0.0,2.0,-1.0,4.0,0,1,0,0,0.006419000614582
5.0,0.0,5.0,0.0,2.0,0.0,2.0,0.0,,,,left,1.0192893999628725,136.61728260014206,lb11,136.61728260014206,,131.1953509999439,133.19889569981024,True,3.0,['r'],True,0.2857142857142857,0.2857142857142857,0.0,0.0,2.0,0.5445684476282007,0.1192447946688879,unsucc_cost,0.0,1.0,133.19889569981024,,lb11,2,2022-05-13_14h32.06.640,threat_forest,2021.2.3,59.93953298528319,True,55.0,0.2928571428571428,0.3755952380952381,-1.0485714285714285,-1.1961607142857142,1,0,1.0,0.019105717808099238,0.1192447946688879,0.2857142857142857,0.2857142857142857,0.2857142857142857,0.0,0.1428571428571428,0.1428571428571428,3.142857142857143,3.142857142857143,1.0,2.0,-1.0,3.0,0,1,0,1,0.1192447946688879
5.0,0.0,5.0,0.0,3.0,0.0,3.0,0.0,,,,right,0.7058906001038849,142.07852119999006,lb11,137.67294989991933,139.68256689980626,142.07852119999006,,True,1.0,['r'],False,0.24,0.3,0.2,2.0,2.0,0.9003120349047065,0.1032803265306122,succ_gain,1.0,3.0,139.68256689980626,,lb11,2,2022-05-13_14h32.06.640,threat_forest,2021.2.3,59.93953298528319,True,55.0,0.2928571428571428,0.3755952380952381,-1.0485714285714285,-1.1961607142857142,0,0,1.0,-0.3482950108559634,0.1032803265306122,1.0,0.24,0.3,0.2,-0.3999999999999999,-0.24,0.76,1.0,0.0,2.0,-1.0,1.0,1,1,0,0,0.625
5.0,0.0,5.0,0.0,4.0,0.0,4.0,0.0,,,,right,1.39230029983446,147.35396499978378,lb11,147.35396499978378,,142.83274749992415,144.83255389984697,False,3.0,['r'],True,0.2857142857142857,0.2857142857142857,0.0,0.0,2.0,0.5445684476282007,0.1991836734693877,wait_cost,0.0,2.0,144.83255389984697,,lb11,2,2022-05-13_14h32.06.640,threat_forest,2021.2.3,59.93953298528319,False,55.0,0.2928571428571428,0.3755952380952381,-1.0485714285714285,-1.1961607142857142,1,0,0.0,0.33095727128498653,0.1991836734693877,0.2857142857142857,0.2857142857142857,0.2857142857142857,0.0,0.1428571428571428,0.1428571428571428,3.142857142857143,3.142857142857143,1.0,2.0,1.0,3.0,0,1,0,1,0.1991836734693877
5.0,0.0,5.0,0.0,5.0,0.0,5.0,0.0,,,,left,0.652269700076431,152.57791930017993,lb11,152.57791930017993,,142.83274749992415,144.83255389984697,True,2.0,['r'],True,0.2857142857142857,0.2857142857142857,0.0,0.0,2.0,0.5445684476282007,0.0228571428571427,succ_gain,0.0,4.0,150.76604350004345,,lb11,2,2022-05-13_14h32.06.640,threat_forest,2021.2.3,59.93953298528319,True,55.0,0.2928571428571428,0.3755952380952381,-1.0485714285714285,-1.1961607142857142,1,0,1.0,-0.4272971521612613,0.0228571428571427,0.2857142857142857,0.2857142857142857,0.2857142857142857,0.0,0.1428571428571428,0.1428571428571428,2.142857142857143,2.142857142857143,1.0,2.0,-1.0,2.0,0,1,0,1,0.0228571428571427
5.0,0.0,5.0,0.0,6.0,0.0,6.0,0.0,,,,left,0.9564547999762,155.85991539992392,lb11,153.24968450004235,155.24966059997678,155.85991539992392,,False,4.0,['r'],False,0.24,0.3,0.2,2.0,2.0,0.9003120349047065,-0.1474285714285714,wait_cost,1.0,3.0,155.24966059997678,,lb11,2,2022-05-13_14h32.06.640,threat_forest,2021.2.3,59.93953298528319,False,55.0,0.2928571428571428,0.3755952380952381,-1.0485714285714285,-1.1961607142857142,0,0,0.0,-0.04452174686274093,-0.1474285714285714,0.0,0.24,0.3,0.2,-0.3999999999999999,-0.24,3.76,3.76,0.0,2.0,1.0,4.0,0,0,0,0,-0.84
5.0,0.0,5.0,0.0,7.0,0.0,7.0,0.0,,,,left,0.6642222995869815,159.98104530014098,lb11,153.24968450004235,155.24966059997678,159.98104530014098,,False,3.0,['r'],False,0.24,0.3,0.2,2.0,2.0,0.9003120349047065,-0.2,wait_cost,1.0,2.0,158.84958569984883,,lb11,2,2022-05-13_14h32.06.640,threat_forest,2021.2.3,59.93953298528319,False,55.0,0.2928571428571428,0.3755952380952381,-1.0485714285714285,-1.1961607142857142,0,0,0.0,-0.409138397000269,-0.2,0.0,0.24,0.3,0.2,-0.3999999999999999,-0.24,2.76,2.76,0.0,2.0,-1.0,3.0,0,0,0,0,-0.84
6.0,0.0,6.0,0.0,0.0,0.0,0.0,0.0,163.27364559983835,166.7738104001619,,left,1.1565854996442797,169.9708920000121,lb11,163.27364559983835,166.7738104001619,169.9708920000121,,False,4.0,['p'],False,0.2040816326530612,0.2857142857142857,0.2857142857142857,2.0,1.0,0.9335459102197724,0.0023337396678889,wait_cost,1.0,3.0,,,lb11,2,2022-05-13_14h32.06.640,threat_forest,2021.2.3,59.93953298528319,False,32.0,0.26785714285714285,0.28035714285714286,-1.461734693877551,-1.2551530612244899,0,0,0.0,0.14547212961020067,0.0023337396678889,0.2040816326530612,0.2040816326530612,0.2857142857142857,0.2857142857142857,-1.0,-0.6734693877551021,3.326530612244898,3.326530612244898,0.0,1.0,-1.0,4.0,0,1,0,0,0.0023337396678889
6.0,0.0,6.0,0.0,1.0,0.0,1.0,0.0,,,,left,0.9283121000044048,176.74388920003548,lb11,163.27364559983835,166.7738104001619,176.74388920003548,,False,3.0,['p'],False,0.2040816326530612,0.2857142857142857,0.2857142857142857,2.0,1.0,0.9335459102197724,0.006782822473906,wait_cost,1.0,2.0,173.1495689000003,,lb11,2,2022-05-13_14h32.06.640,threat_forest,2021.2.3,59.93953298528319,False,32.0,0.26785714285714285,0.28035714285714286,-1.461734693877551,-1.2551530612244899,0,0,0.0,-0.07438728807711606,0.006782822473906,0.2040816326530612,0.2040816326530612,0.2857142857142857,0.2857142857142857,-1.0,-0.6734693877551021,2.326530612244898,2.326530612244898,0.0,1.0,-1.0,3.0,0,1,0,0,0.006782822473906
6.0,0.0,6.0,0.0,2.0,0.0,2.0,0.0,,,,right,0.8165281997062266,183.19640369992703,lb11,163.27364559983835,166.7738104001619,183.19640369992703,,True,2.0,['p'],False,0.2040816326530612,0.2857142857142857,0.2857142857142857,2.0,1.0,0.9335459102197724,0.0063965869811275,succ_gain,1.0,3.0,179.69971919991076,,lb11,2,2022-05-13_14h32.06.640,threat_forest,2021.2.3,59.93953298528319,True,32.0,0.26785714285714285,0.28035714285714286,-1.461734693877551,-1.2551530612244899,0,0,1.0,-0.20269382986706497,0.0063965869811275,0.2040816326530612,0.2040816326530612,0.2857142857142857,0.2857142857142857,-1.0,-0.6734693877551021,1.3265306122448979,1.3265306122448979,0.0,1.0,-1.0,2.0,0,1,0,0,0.0063965869811275
6.0,0.0,6.0,0.0,3.0,0.0,3.0,0.0,,,,right,0.8366586999036372,188.5326729998924,lb11,188.5326729998924,,184.0335721997544,186.03328720014545,False,3.0,['p'],True,0.25,0.25,0.0,0.0,1.0,0.5118595071429148,0.0564614140897925,wait_cost,0.0,2.0,186.03328720014545,,lb11,2,2022-05-13_14h32.06.640,threat_forest,2021.2.3,59.93953298528319,False,32.0,0.26785714285714285,0.28035714285714286,-1.461734693877551,-1.2551530612244899,1,0,0.0,-0.17833905759727725,0.0564614140897925,0.25,0.25,0.25,0.0,-0.25,-0.25,2.75,2.75,1.0,1.0,1.0,3.0,0,1,0,1,0.0564614140897925
6.0,0.0,6.0,0.0,4.0,0.0,4.0,0.0,,,,right,0.7653904999606311,194.5399330998771,lb11,189.40396660007536,191.41670090006664,194.5399330998771,,True,2.0,['p'],False,0.2040816326530612,0.2857142857142857,0.2857142857142857,2.0,1.0,0.9335459102197724,0.0213766824409896,unsucc_cost,1.0,0.0,191.41670090006664,,lb11,2,2022-05-13_14h32.06.640,threat_forest,2021.2.3,59.93953298528319,True,32.0,0.26785714285714285,0.28035714285714286,-1.461734693877551,-1.2551530612244899,0,0,1.0,-0.2673691179298165,0.0213766824409896,0.2040816326530612,0.2040816326530612,0.2857142857142857,0.2857142857142857,-1.0,-0.6734693877551021,1.3265306122448979,1.3265306122448979,0.0,1.0,-1.0,2.0,0,1,0,0,0.0213766824409896
7.0,0.0,7.0,0.0,0.0,0.0,0.0,0.0,199.85621530003849,203.373334699776,,right,0.6809716001152992,204.70149269979447,lb11,199.85621530003849,203.373334699776,204.70149269979447,,True,5.0,['r'],False,0.3333333333333333,0.3333333333333333,0.0,0.0,2.0,0.5793801642856949,0.0388172421765338,unsucc_cost,1.0,3.0,,,lb11,2,2022-05-13_14h32.06.640,threat_forest,2021.2.3,59.93953298528319,True,10.0,0.35416666666666663,0.31101190476190477,-0.8958333333333335,-1.1787840136054424,1,1,1.0,-0.38423467691030516,0.0388172421765338,0.3333333333333333,0.3333333333333333,0.3333333333333333,0.0,0.33333333333333315,0.33333333333333315,5.333333333333333,5.333333333333333,0.0,2.0,-1.0,5.0,0,1,1,1,0.0388172421765338
7.0,0.0,7.0,0.0,1.0,0.0,1.0,0.0,,,,left,0.7605699002742767,208.7214635000564,lb11,208.7214635000564,,205.40060660010204,207.4000637000427,True,3.0,['r'],True,0.28125,0.375,0.25,2.0,2.0,0.9634951148421658,0.0525198115612938,unsucc_cost,0.0,1.0,207.4000637000427,,lb11,2,2022-05-13_14h32.06.640,threat_forest,2021.2.3,59.93953298528319,True,10.0,0.35416666666666663,0.31101190476190477,-0.8958333333333335,-1.1787840136054424,1,0,1.0,-0.27368725793094006,0.0525198115612938,0.28125,0.28125,0.375,0.25,-0.25,-0.125,2.875,2.875,1.0,2.0,-1.0,3.0,0,1,0,1,0.0525198115612938
7.0,0.0,7.0,0.0,2.0,0.0,2.0,0.0,,,,left,0.6122159999795258,215.27922770008445,lb11,215.27922770008445,,205.40060660010204,207.4000637000427,True,1.0,['r'],True,0.28125,0.375,0.25,2.0,2.0,0.9634951148421658,0.1100623609705103,unsucc_cost,0.0,0.0,211.5004977998324,,lb11,2,2022-05-13_14h32.06.640,threat_forest,2021.2.3,59.93953298528319,True,10.0,0.35416666666666663,0.31101190476190477,-0.8958333333333335,-1.1787840136054424,1,0,1.0,-0.49067011759586904,0.1100623609705103,1.0,0.28125,0.375,0.25,-0.25,-0.125,0.875,1.0,1.0,2.0,-1.0,1.0,1,1,0,1,0.625
8.0,0.0,8.0,0.0,0.0,0.0,0.0,0.0,221.6239947997965,225.12800779985264,,left,0.8190110996365547,225.78204960003492,lb11,225.78204960003492,,221.6239947997965,225.12800779985264,True,5.0,['p'],True,0.4444444444444445,0.6666666666666666,0.3333333333333333,1.0,1.0,0.9656336071428248,0.0469296874463657,succ_gain,0.0,6.0,,,lb11,2,2022-05-13_14h32.06.640,threat_forest,2021.2.3,59.93953298528319,True,6.0,0.4833333333333333,0.41874999999999996,-1.145,-1.0204166666666667,1,1,1.0,-0.19965764255111826,0.0469296874463657,0.4444444444444445,0.4444444444444445,0.6666666666666666,0.3333333333333333,0.0,0.0,5.0,5.0,1.0,1.0,-1.0,5.0,0,1,1,1,0.0469296874463657
8.0,0.0,8.0,0.0,1.0,0.0,1.0,0.0,,,,left,0.5844594999216497,230.9750453000888,lb11,230.9750453000888,,221.6239947997965,225.12800779985264,True,6.0,['p'],True,0.4444444444444445,0.6666666666666666,0.3333333333333333,1.0,1.0,0.9656336071428248,-0.1136311593387568,unsucc_cost,0.0,4.0,228.6339839999564,,lb11,2,2022-05-13_14h32.06.640,threat_forest,2021.2.3,59.93953298528319,True,6.0,0.4833333333333333,0.41874999999999996,-1.145,-1.0204166666666667,1,1,1.0,-0.537067790596178,-0.1136311593387568,0.4444444444444445,0.4444444444444445,0.6666666666666666,0.3333333333333333,0.0,0.0,6.0,6.0,1.0,1.0,1.0,6.0,0,1,1,1,-0.1136311593387568
8.0,0.0,8.0,0.0,2.0,0.0,2.0,0.0,,,,left,0.4170907000079751,235.5567139000632,lb11,235.5567139000632,,221.6239947997965,225.12800779985264,True,4.0,['p'],True,0.4444444444444445,0.6666666666666666,0.3333333333333333,1.0,1.0,0.9656336071428248,0.0584692485569717,fight_cost,0.0,1.0,233.58412289991972,,lb11,2,2022-05-13_14h32.06.640,threat_forest,2021.2.3,59.93953298528319,True,6.0,0.4833333333333333,0.41874999999999996,-1.145,-1.0204166666666667,1,1,1.0,-0.8744515748200106,0.0584692485569717,0.4444444444444445,0.4444444444444445,0.6666666666666666,0.3333333333333333,0.0,0.0,4.0,4.0,1.0,1.0,-1.0,4.0,0,1,1,1,0.0584692485569717
8.0,0.0,8.0,0.0,3.0,0.0,3.0,0.0,,,,right,0.9086464000865816,241.240767700132,lb11,236.00280220014972,238.01742039993405,241.240767700132,,True,1.0,['p'],False,0.27,0.3,0.1,1.0,1.0,0.7963326591781347,0.0498965023148147,unsucc_cost,1.0,0.0,238.01742039993405,,lb11,2,2022-05-13_14h32.06.640,threat_forest,2021.2.3,59.93953298528319,True,6.0,0.4833333333333333,0.41874999999999996,-1.145,-1.0204166666666667,0,0,1.0,-0.09579925928896077,0.0498965023148147,1.0,0.27,0.3,0.1,-0.3999999999999999,-0.29000000000000004,0.71,1.0,0.0,1.0,-1.0,1.0,1,1,0,0,0.625
9.0,0.0,9.0,0.0,0.0,0.0,0.0,0.0,247.1721596000716,250.6669095000252,,left,0.97212059982121,251.26823669997972,lb11,251.26823669997972,,247.1721596000716,250.6669095000252,True,5.0,['r'],True,0.5,0.5,0.0,0.0,2.0,0.6309297535714574,0.0540215703294548,unsucc_cost,0.0,3.0,,,lb11,2,2022-05-13_14h32.06.640,threat_forest,2021.2.3,59.93953298528319,True,64.0,0.5357142857142857,0.5095238095238095,-0.326530612244898,-0.735765306122449,1,0,1.0,-0.0282754083280927,0.0540215703294548,0.5,0.5,0.5,0.0,1.0,1.0,6.0,6.0,1.0,2.0,-1.0,5.0,0,1,0,1,0.0540215703294548
9.0,0.0,9.0,0.0,1.0,0.0,1.0,0.0,,,,right,0.5901373000815511,257.42152620013803,lb11,252.26897430000827,254.28432809980583,257.42152620013803,,True,3.0,['r'],False,0.4081632653061224,0.5714285714285714,0.2857142857142857,2.0,2.0,0.9885754083994552,0.0633701866529412,unsucc_cost,1.0,1.0,254.28432809980583,,lb11,2,2022-05-13_14h32.06.640,threat_forest,2021.2.3,59.93953298528319,True,64.0,0.5357142857142857,0.5095238095238095,-0.326530612244898,-0.735765306122449,1,0,1.0,-0.527400057152981,0.0633701866529412,0.4081632653061224,0.4081632653061224,0.5714285714285714,0.2857142857142857,0.4285714285714285,0.346938775510204,3.3469387755102042,3.3469387755102042,0.0,2.0,-1.0,3.0,0,1,0,1,0.0633701866529412
9.0,0.0,9.0,0.0,2.0,0.0,2.0,0.0,,,,right,0.5173990996554494,261.680230199825,lb11,252.26897430000827,254.28432809980583,261.680230199825,,True,1.0,['r'],False,0.4081632653061224,0.5714285714285714,0.2857142857142857,2.0,2.0,0.9885754083994552,0.2329331374998628,fight_cost,1.0,0.0,260.0507347001694,,lb11,2,2022-05-13_14h32.06.640,threat_forest,2021.2.3,59.93953298528319,True,64.0,0.5357142857142857,0.5095238095238095,-0.326530612244898,-0.735765306122449,1,0,1.0,-0.6589407493642129,0.2329331374998628,1.0,0.4081632653061224,0.5714285714285714,0.2857142857142857,0.4285714285714285,0.346938775510204,1.346938775510204,1.346938775510204,0.0,2.0,-1.0,1.0,1,1,0,1,0.625
10.0,0.0,10.0,0.0,0.0,0.0,0.0,0.0,265.5937263998203,269.08547829976305,,right,0.6700619999319315,271.31344790011644,lb11,265.5937263998203,269.08547829976305,271.31344790011644,,True,5.0,['p'],False,0.2962962962962963,0.3333333333333333,0.1111111111111111,1.0,2.0,0.8325252476189534,-0.0036833572583059,unsucc_cost,1.0,3.0,,,lb11,2,2022-05-13_14h32.06.640,threat_forest,2021.2.3,59.93953298528319,True,22.0,0.41666666666666663,0.47619047619047616,-0.7129629629629629,-0.5197467876039304,0,0,1.0,-0.40038503366659095,-0.0036833572583059,0.2962962962962963,0.2962962962962963,0.3333333333333333,0.1111111111111111,-2.220446049250313e-16,0.07407407407407396,5.074074074074074,5.074074074074074,0.0,2.0,-1.0,5.0,0,1,0,0,-0.0036833572583059
10.0,0.0,10.0,0.0,1.0,0.0,1.0,0.0,,,,right,0.7675540000200272,274.89721299987286,lb11,265.5937263998203,269.08547829976305,274.89721299987286,,True,3.0,['p'],False,0.2962962962962963,0.3333333333333333,0.1111111111111111,1.0,2.0,0.8325252476189534,0.0620848397426785,unsucc_cost,1.0,1.0,274.00133850006387,,lb11,2,2022-05-13_14h32.06.640,threat_forest,2021.2.3,59.93953298528319,True,22.0,0.41666666666666663,0.47619047619047616,-0.7129629629629629,-0.5197467876039304,0,0,1.0,-0.26454644366353325,0.0620848397426785,0.2962962962962963,0.2962962962962963,0.3333333333333333,0.1111111111111111,-2.220446049250313e-16,0.07407407407407396,3.074074074074074,3.074074074074074,0.0,2.0,-1.0,3.0,0,1,0,0,0.0620848397426785
10.0,0.0,10.0,0.0,2.0,0.0,2.0,0.0,,,,right,0.6409927997738123,280.0467261997983,lb11,265.5937263998203,269.08547829976305,280.0467261997983,,True,1.0,['p'],False,0.2962962962962963,0.3333333333333333,0.1111111111111111,1.0,2.0,0.8325252476189534,0.1342133771985646,unsucc_cost,1.0,0.0,277.68475090013817,,lb11,2,2022-05-13_14h32.06.640,threat_forest,2021.2.3,59.93953298528319,True,22.0,0.41666666666666663,0.47619047619047616,-0.7129629629629629,-0.5197467876039304,0,0,1.0,-0.44473705492672033,0.1342133771985646,1.0,0.2962962962962963,0.3333333333333333,0.1111111111111111,-2.220446049250313e-16,0.07407407407407396,1.074074074074074,1.074074074074074,0.0,2.0,-1.0,1.0,1,1,0,0,0.625
11.0,0.0,11.0,0.0,0.0,0.0,0.0,0.0,285.960243599955,289.4558298997581,,left,1.676145300269127,291.0427637998946,lb11,285.960243599955,289.4558298997581,291.0427637998946,,False,5.0,['r'],False,0.2962962962962963,0.3333333333333333,0.1111111111111111,1.0,1.0,0.8325252476189534,-0.0072014784086608,wait_cost,1.0,4.0,,,lb11,2,2022-05-13_14h32.06.640,threat_forest,2021.2.3,59.93953298528319,False,4.0,0.4666666666666667,0.44166666666666665,-0.9911111111111113,-0.8520370370370371,0,0,0.0,0.5164966929734423,-0.0072014784086608,0.2962962962962963,0.2962962962962963,0.3333333333333333,0.1111111111111111,-0.3333333333333335,-0.22222222222222232,4.777777777777778,4.777777777777778,0.0,1.0,-1.0,5.0,0,1,0,0,-0.0072014784086608
11.0,0.0,11.0,0.0,1.0,0.0,1.0,0.0,,,,left,0.8539362996816635,296.4688804000616,lb11,296.4688804000616,,292.73649360006675,294.7512479000725,True,4.0,['r'],True,0.48,0.6,0.2,1.0,1.0,0.9455672104350704,0.0855482011192285,fight_cost,0.0,1.0,294.7512479000725,,lb11,2,2022-05-13_14h32.06.640,threat_forest,2021.2.3,59.93953298528319,True,4.0,0.4666666666666667,0.44166666666666665,-0.9911111111111113,-0.8520370370370371,1,1,1.0,-0.1578986785122734,0.0855482011192285,0.48,0.48,0.6,0.2,0.19999999999999984,0.23999999999999977,4.24,4.24,1.0,1.0,-1.0,4.0,0,1,1,1,0.0855482011192285
11.0,0.0,11.0,0.0,2.0,0.0,2.0,0.0,,,,right,1.1449103001505136,300.75277049979195,lb11,297.3516768999398,299.3520054998808,300.75277049979195,,True,1.0,['r'],False,0.2962962962962963,0.3333333333333333,0.1111111111111111,1.0,1.0,0.8325252476189534,0.0593781448112584,unsucc_cost,1.0,0.0,299.3520054998808,,lb11,2,2022-05-13_14h32.06.640,threat_forest,2021.2.3,59.93953298528319,True,4.0,0.4666666666666667,0.44166666666666665,-0.9911111111111113,-0.8520370370370371,0,0,1.0,0.13532629345752656,0.0593781448112584,1.0,0.2962962962962963,0.3333333333333333,0.1111111111111111,-0.3333333333333335,-0.22222222222222232,0.7777777777777777,1.0,0.0,1.0,-1.0,1.0,1,1,0,0,0.625
12.0,0.0,12.0,0.0,0.0,0.0,0.0,0.0,304.53764750016853,308.05174139980227,,right,0.5954366000369191,311.8015469000675,lb11,304.53764750016853,308.05174139980227,311.8015469000675,,True,4.0,['p'],False,0.25,0.5,0.5,2.0,2.0,0.9463946303571862,-0.0085880818517447,fight_cost,1.0,1.0,,,lb11,2,2022-05-13_14h32.06.640,threat_forest,2021.2.3,59.93953298528319,True,70.0,0.41666666666666663,0.44166666666666665,-1.0833333333333335,-1.0372222222222223,0,0,1.0,-0.5184603609479274,-0.0085880818517447,0.25,0.25,0.5,0.5,-0.5,-0.5,3.5,3.5,0.0,2.0,-1.0,4.0,0,1,0,0,-0.0085880818517447
12.0,0.0,12.0,0.0,1.0,0.0,1.0,0.0,,,,right,1.1010928000323474,315.3123702998273,lb11,315.3123702998273,,312.4195489999838,314.4351288001053,False,1.0,['p'],True,0.3333333333333333,0.3333333333333333,0.0,0.0,2.0,0.5793801642856949,0.0738590695730451,wait_cost,0.0,0.0,314.4351288001053,,lb11,2,2022-05-13_14h32.06.640,threat_forest,2021.2.3,59.93953298528319,False,70.0,0.41666666666666663,0.44166666666666665,-1.0833333333333335,-1.0372222222222223,1,0,0.0,0.09630314122977734,0.0738590695730451,1.0,0.3333333333333333,0.3333333333333333,0.0,0.33333333333333315,0.33333333333333315,1.333333333333333,1.333333333333333,1.0,2.0,-1.0,1.0,1,1,0,1,0.625
13.0,0.0,13.0,0.0,0.0,0.0,0.0,0.0,319.5850891000591,323.08860180014744,,left,0.4703230001032352,325.4244093997404,lb11,325.4244093997404,,319.5850891000591,323.08860180014744,True,5.0,['r'],True,0.4081632653061224,0.5714285714285714,0.2857142857142857,2.0,2.0,0.9885754083994552,-0.0170150236195817,unsucc_cost,0.0,3.0,,,lb11,2,2022-05-13_14h32.06.640,threat_forest,2021.2.3,59.93953298528319,True,14.0,0.5357142857142857,0.47619047619047616,-0.326530612244898,-0.7049319727891157,1,0,1.0,-0.7543355860531601,-0.0170150236195817,0.4081632653061224,0.4081632653061224,0.5714285714285714,0.2857142857142857,0.4285714285714285,0.346938775510204,5.346938775510204,5.346938775510204,1.0,2.0,-1.0,5.0,0,1,0,1,-0.0170150236195817
13.0,0.0,13.0,0.0,1.0,0.0,1.0,0.0,,,,left,0.5280479001812637,331.64667190006,lb11,331.64667190006,,319.5850891000591,323.08860180014744,True,3.0,['r'],True,0.4081632653061224,0.5714285714285714,0.2857142857142857,2.0,2.0,0.9885754083994552,0.0633701866529412,unsucc_cost,0.0,1.0,327.91881769988686,,lb11,2,2022-05-13_14h32.06.640,threat_forest,2021.2.3,59.93953298528319,True,14.0,0.5357142857142857,0.47619047619047616,-0.326530612244898,-0.7049319727891157,1,0,1.0,-0.6385682793504175,0.0633701866529412,0.4081632653061224,0.4081632653061224,0.5714285714285714,0.2857142857142857,0.4285714285714285,0.346938775510204,3.3469387755102042,3.3469387755102042,1.0,2.0,-1.0,3.0,0,1,0,1,0.0633701866529412
13.0,0.0,13.0,0.0,2.0,0.0,2.0,0.0,,,,left,1.105989399831742,334.71502610016614,lb11,334.71502610016614,,319.5850891000591,323.08860180014744,True,1.0,['r'],True,0.4081632653061224,0.5714285714285714,0.2857142857142857,2.0,2.0,0.9885754083994552,0.2329331374998628,succ_gain,0.0,3.0,334.20208379998803,,lb11,2,2022-05-13_14h32.06.640,threat_forest,2021.2.3,59.93953298528319,True,14.0,0.5357142857142857,0.47619047619047616,-0.326530612244898,-0.7049319727891157,1,0,1.0,0.10074031881528271,0.2329331374998628,1.0,0.4081632653061224,0.5714285714285714,0.2857142857142857,0.4285714285714285,0.346938775510204,1.346938775510204,1.346938775510204,1.0,2.0,-1.0,1.0,1,1,0,1,0.625
13.0,0.0,13.0,0.0,3.0,0.0,3.0,0.0,,,,left,0.7478340999223292,340.50087830005214,lb11,340.50087830005214,,319.5850891000591,323.08860180014744,True,3.0,['r'],True,0.4081632653061224,0.5714285714285714,0.2857142857142857,2.0,2.0,0.9885754083994552,0.0196828699073915,succ_gain,0.0,5.0,337.86879150010645,,lb11,2,2022-05-13_14h32.06.640,threat_forest,2021.2.3,59.93953298528319,True,14.0,0.5357142857142857,0.47619047619047616,-0.326530612244898,-0.7049319727891157,1,0,1.0,-0.29057411715473075,0.0196828699073915,0.4081632653061224,0.4081632653061224,0.5714285714285714,0.2857142857142857,0.4285714285714285,0.346938775510204,3.3469387755102042,3.3469387755102042,1.0,2.0,1.0,3.0,0,1,0,1,0.0196828699073915
13.0,0.0,13.0,0.0,4.0,0.0,4.0,0.0,,,,right,0.5646089003421366,345.45233279978856,lb11,341.2691985000856,343.2690949998796,345.45233279978856,,True,5.0,['r'],False,0.5,0.5,0.0,0.0,2.0,0.6309297535714574,-0.1814478342357351,unsucc_cost,1.0,3.0,343.2690949998796,,lb11,2,2022-05-13_14h32.06.640,threat_forest,2021.2.3,59.93953298528319,True,14.0,0.5357142857142857,0.47619047619047616,-0.326530612244898,-0.7049319727891157,1,1,1.0,-0.5716219993087188,-0.1814478342357351,0.0,0.5,0.5,0.0,1.0,1.0,6.0,6.0,0.0,2.0,1.0,5.0,0,0,1,1,-0.84
13.0,0.0,13.0,0.0,5.0,0.0,5.0,0.0,,,,left,0.9778562998399138,349.308904199861,lb11,341.2691985000856,343.2690949998796,349.308904199861,,False,3.0,['r'],False,0.5,0.5,0.0,0.0,2.0,0.6309297535714574,0.25,wait_cost,1.0,2.0,348.0524202999659,,lb11,2,2022-05-13_14h32.06.640,threat_forest,2021.2.3,59.93953298528319,False,14.0,0.5357142857142857,0.47619047619047616,-0.326530612244898,-0.7049319727891157,1,1,0.0,-0.022392552422008,0.25,0.5,0.5,0.5,0.0,1.0,1.0,4.0,4.0,0.0,2.0,-1.0,3.0,0,1,1,1,0.25
13.0,0.0,13.0,0.0,6.0,0.0,6.0,0.0,,,,left,0.932667000219226,355.7037945999764,lb11,355.7037945999764,,350.30658520013094,352.31910509988666,True,2.0,['r'],True,0.4081632653061224,0.5714285714285714,0.2857142857142857,2.0,2.0,0.9885754083994552,-0.0459183673469387,fight_cost,0.0,0.0,352.31910509988666,,lb11,2,2022-05-13_14h32.06.640,threat_forest,2021.2.3,59.93953298528319,True,14.0,0.5357142857142857,0.47619047619047616,-0.326530612244898,-0.7049319727891157,1,0,1.0,-0.06970705479168979,-0.0459183673469387,0.4081632653061224,0.4081632653061224,0.5714285714285714,0.2857142857142857,0.4285714285714285,0.346938775510204,2.3469387755102042,2.3469387755102042,1.0,2.0,-1.0,2.0,0,1,0,1,-0.0459183673469387
14.0,0.0,14.0,0.0,0.0,0.0,0.0,0.0,359.71471840003505,363.2127477000468,,left,0.6334659000858665,366.8719592997804,lb11,366.8719592997804,,359.71471840003505,363.2127477000468,True,5.0,['p'],True,0.5555555555555556,0.6666666666666666,0.1666666666666666,1.0,2.0,0.8929352898779306,0.0304669022621303,succ_gain,0.0,6.0,,,lb11,2,2022-05-13_14h32.06.640,threat_forest,2021.2.3,59.93953298528319,True,51.0,0.5555555555555556,0.5456349206349207,-0.2376543209876542,-0.28209246661627607,1,1,1.0,-0.4565491084741844,0.0304669022621303,0.5555555555555556,0.5555555555555556,0.6666666666666666,0.1666666666666666,1.1666666666666667,1.0555555555555558,6.055555555555555,6.055555555555555,1.0,2.0,-1.0,5.0,0,1,1,1,0.0304669022621303
14.0,0.0,14.0,0.0,1.0,0.0,1.0,0.0,,,,left,0.7059041000902653,372.5506827998906,lb11,372.5506827998906,,359.71471840003505,363.2127477000468,True,6.0,['p'],True,0.5555555555555556,0.6666666666666666,0.1666666666666666,1.0,2.0,0.8929352898779306,-0.0252043745840764,succ_gain,0.0,6.0,369.5527872997336,,lb11,2,2022-05-13_14h32.06.640,threat_forest,2021.2.3,59.93953298528319,True,51.0,0.5555555555555556,0.5456349206349207,-0.2376543209876542,-0.28209246661627607,1,1,1.0,-0.3482758862815775,-0.0252043745840764,0.5555555555555556,0.5555555555555556,0.6666666666666666,0.1666666666666666,1.1666666666666667,1.0555555555555558,7.055555555555555,7.0,1.0,2.0,1.0,6.0,0,1,1,1,-0.0252043745840764
14.0,0.0,14.0,0.0,2.0,0.0,2.0,0.0,,,,left,0.5316803995519876,378.33157699974254,lb11,378.33157699974254,,359.71471840003505,363.2127477000468,True,6.0,['p'],True,0.5555555555555556,0.6666666666666666,0.1666666666666666,1.0,2.0,0.8929352898779306,0.0532327155456664,succ_gain,0.0,6.0,375.28617710014805,,lb11,2,2022-05-13_14h32.06.640,threat_forest,2021.2.3,59.93953298528319,True,51.0,0.5555555555555556,0.5456349206349207,-0.2376543209876542,-0.28209246661627607,1,1,1.0,-0.6317127228865407,0.0532327155456664,0.5555555555555556,0.5555555555555556,0.6666666666666666,0.1666666666666666,1.1666666666666667,1.0555555555555558,7.055555555555555,7.0,1.0,2.0,-1.0,6.0,0,1,1,1,0.0532327155456664
14.0,0.0,14.0,0.0,3.0,0.0,3.0,0.0,,,,left,0.5510869999416173,384.2831473001279,lb11,384.2831473001279,,359.71471840003505,363.2127477000468,True,6.0,['p'],True,0.5555555555555556,0.6666666666666666,0.1666666666666666,1.0,2.0,0.8929352898779306,-0.1290585996375891,fight_cost,0.0,3.0,380.8862032000907,,lb11,2,2022-05-13_14h32.06.640,threat_forest,2021.2.3,59.93953298528319,True,51.0,0.5555555555555556,0.5456349206349207,-0.2376543209876542,-0.28209246661627607,1,1,1.0,-0.5958625876623835,-0.1290585996375891,0.0,0.5555555555555556,0.6666666666666666,0.1666666666666666,1.1666666666666667,1.0555555555555558,7.055555555555555,7.0,1.0,2.0,-1.0,6.0,0,0,1,1,-0.84
14.0,0.0,14.0,0.0,4.0,0.0,4.0,0.0,,,,left,0.7240885999053717,388.579888000153,lb11,388.579888000153,,359.71471840003505,363.2127477000468,True,3.0,['p'],True,0.5555555555555556,0.6666666666666666,0.1666666666666666,1.0,2.0,0.8929352898779306,0.1721536351165981,unsucc_cost,0.0,1.0,386.8527910998091,,lb11,2,2022-05-13_14h32.06.640,threat_forest,2021.2.3,59.93953298528319,True,51.0,0.5555555555555556,0.5456349206349207,-0.2376543209876542,-0.28209246661627607,1,1,1.0,-0.32284151852379306,0.1721536351165981,0.5555555555555556,0.5555555555555556,0.6666666666666666,0.1666666666666666,1.1666666666666667,1.0555555555555558,4.055555555555555,4.055555555555555,1.0,2.0,-1.0,3.0,0,1,1,1,0.1721536351165981
14.0,0.0,14.0,0.0,5.0,0.0,5.0,0.0,,,,left,0.7459415998309851,394.3731880998239,lb11,389.3450902998448,391.3529829997569,394.3731880998239,,False,1.0,['p'],False,0.3950617283950617,0.4444444444444444,0.1111111111111111,1.0,2.0,0.8733423231021583,0.3950617283950617,wait_cost,1.0,0.0,391.3529829997569,,lb11,2,2022-05-13_14h32.06.640,threat_forest,2021.2.3,59.93953298528319,False,51.0,0.5555555555555556,0.5456349206349207,-0.2376543209876542,-0.28209246661627607,0,0,0.0,-0.29310796625162766,0.3950617283950617,1.0,0.3950617283950617,0.4444444444444444,0.1111111111111111,0.4444444444444444,0.4691358024691359,1.4691358024691359,1.4691358024691359,0.0,2.0,-1.0,1.0,1,1,0,0,0.625
15.0,0.0,15.0,0.0,0.0,0.0,0.0,0.0,398.8233377998695,402.3368807998486,,right,0.7378328000195324,403.7340688998811,lb11,398.8233377998695,402.3368807998486,403.7340688998811,,True,5.0,['r'],False,0.4444444444444445,0.6666666666666666,0.3333333333333333,1.0,2.0,0.9656336071428248,0.0253010211857948,unsucc_cost,1.0,3.0,,,lb11,2,2022-05-13_14h32.06.640,threat_forest,2021.2.3,59.93953298528319,True,25.0,0.4444444444444444,0.5,-0.8333333333333334,-0.5354938271604938,0,0,1.0,-0.3040380382889753,0.0253010211857948,0.4444444444444445,0.4444444444444445,0.6666666666666666,0.3333333333333333,0.6666666666666665,0.4444444444444444,5.444444444444445,5.444444444444445,0.0,2.0,-1.0,5.0,0,1,0,0,0.0253010211857948
15.0,0.0,15.0,0.0,1.0,0.0,1.0,0.0,,,,right,0.920490600168705,409.5321939997375,lb11,409.5321939997375,,404.5081182001159,406.5198305998929,False,3.0,['r'],True,0.2222222222222222,0.2222222222222222,0.0,0.0,2.0,0.4821593609696809,0.0363511659807955,wait_cost,0.0,2.0,406.5198305998929,,lb11,2,2022-05-13_14h32.06.640,threat_forest,2021.2.3,59.93953298528319,False,25.0,0.4444444444444444,0.5,-0.8333333333333334,-0.5354938271604938,0,0,0.0,-0.08284849001925901,0.0363511659807955,0.2222222222222222,0.2222222222222222,0.2222222222222222,0.0,-0.11111111111111116,-0.11111111111111116,2.888888888888889,2.888888888888889,1.0,2.0,-1.0,3.0,0,1,0,0,0.0363511659807955
15.0,0.0,15.0,0.0,2.0,0.0,2.0,0.0,,,,right,0.4955195002257824,415.2147880997509,lb11,410.470296499785,412.47013789974153,415.2147880997509,,True,2.0,['r'],False,0.4444444444444445,0.6666666666666666,0.3333333333333333,1.0,2.0,0.9656336071428248,0.0802469135802468,fight_cost,1.0,0.0,412.47013789974153,,lb11,2,2022-05-13_14h32.06.640,threat_forest,2021.2.3,59.93953298528319,True,25.0,0.4444444444444444,0.5,-0.8333333333333334,-0.5354938271604938,0,0,1.0,-0.702148571343113,0.0802469135802468,0.4444444444444445,0.4444444444444445,0.6666666666666666,0.3333333333333333,0.6666666666666665,0.4444444444444444,2.4444444444444446,2.4444444444444446,0.0,2.0,-1.0,2.0,0,1,0,0,0.0802469135802468
16.0,0.0,16.0,0.0,0.0,0.0,0.0,0.0,421.4763039997779,424.9868927998468,,right,0.6114586996845901,427.75416330015287,lb11,421.4763039997779,424.9868927998468,427.75416330015287,,True,5.0,['p'],False,0.2222222222222222,0.6666666666666666,0.6666666666666666,2.0,1.0,0.77250688571426,-0.0048205313257853,succ_gain,1.0,6.0,,,lb11,2,2022-05-13_14h32.06.640,threat_forest,2021.2.3,59.93953298528319,True,20.0,0.4583333333333333,0.45138888888888884,-1.625,-1.2291666666666667,0,0,1.0,-0.4919078654905127,-0.0048205313257853,0.2222222222222222,0.2222222222222222,0.6666666666666666,0.6666666666666666,-1.0,-1.0,4.0,4.0,0.0,1.0,-1.0,5.0,0,1,0,0,-0.0048205313257853
16.0,0.0,16.0,0.0,1.0,0.0,1.0,0.0,,,,right,0.782223999965936,434.0628897999413,lb11,421.4763039997779,424.9868927998468,434.0628897999413,,True,6.0,['p'],False,0.2222222222222222,0.6666666666666666,0.6666666666666666,2.0,1.0,0.77250688571426,-0.1489355554817402,succ_gain,1.0,6.0,430.3869555001147,,lb11,2,2022-05-13_14h32.06.640,threat_forest,2021.2.3,59.93953298528319,True,20.0,0.4583333333333333,0.45138888888888884,-1.625,-1.2291666666666667,0,0,1.0,-0.24561413448512595,-0.1489355554817402,0.2222222222222222,0.2222222222222222,0.6666666666666666,0.6666666666666666,-1.0,-1.0,5.0,5.0,0.0,1.0,1.0,6.0,0,1,0,0,-0.1489355554817402
16.0,0.0,16.0,0.0,2.0,0.0,2.0,0.0,,,,right,0.6473099002614617,440.4129253998399,lb11,421.4763039997779,424.9868927998468,440.4129253998399,,True,6.0,['p'],False,0.2222222222222222,0.6666666666666666,0.6666666666666666,2.0,1.0,0.77250688571426,-0.0865567904442974,fight_cost,1.0,3.0,436.8702376000583,,lb11,2,2022-05-13_14h32.06.640,threat_forest,2021.2.3,59.93953298528319,True,20.0,0.4583333333333333,0.45138888888888884,-1.625,-1.2291666666666667,0,0,1.0,-0.43493011884431115,-0.0865567904442974,0.2222222222222222,0.2222222222222222,0.6666666666666666,0.6666666666666666,-1.0,-1.0,5.0,5.0,0.0,1.0,-1.0,6.0,0,1,0,0,-0.0865567904442974
16.0,0.0,16.0,0.0,3.0,0.0,3.0,0.0,,,,right,1.5084350001998246,444.4353519999422,lb11,444.4353519999422,,441.0922535997816,443.10379539988935,False,3.0,['p'],True,0.25,0.25,0.0,0.0,1.0,0.5118595071429148,0.0595475394375857,wait_cost,0.0,2.0,443.10379539988935,,lb11,2,2022-05-13_14h32.06.640,threat_forest,2021.2.3,59.93953298528319,False,20.0,0.4583333333333333,0.45138888888888884,-1.625,-1.2291666666666667,0,0,0.0,0.411072689659667,0.0595475394375857,0.25,0.25,0.25,0.0,-0.25,-0.25,2.75,2.75,1.0,1.0,-1.0,3.0,0,1,0,0,0.0595475394375857
16.0,0.0,16.0,0.0,4.0,0.0,4.0,0.0,,,,right,0.9295406001619996,449.8776444997639,lb11,449.8776444997639,,441.0922535997816,443.10379539988935,False,2.0,['p'],True,0.25,0.25,0.0,0.0,1.0,0.5118595071429148,0.0270543981481481,wait_cost,0.0,1.0,447.9870480000973,,lb11,2,2022-05-13_14h32.06.640,threat_forest,2021.2.3,59.93953298528319,False,20.0,0.4583333333333333,0.45138888888888884,-1.625,-1.2291666666666667,0,0,0.0,-0.07306479320275072,0.0270543981481481,0.25,0.25,0.25,0.0,-0.25,-0.25,1.75,1.75,1.0,1.0,-1.0,2.0,0,1,0,0,0.0270543981481481
16.0,0.0,16.0,0.0,5.0,0.0,5.0,0.0,,,,right,0.677840200252831,456.5100994999521,lb11,456.5100994999521,,441.0922535997816,443.10379539988935,False,1.0,['p'],True,0.25,0.25,0.0,0.0,1.0,0.5118595071429148,0.0607638888888888,wait_cost,0.0,0.0,452.8538577998988,,lb11,2,2022-05-13_14h32.06.640,threat_forest,2021.2.3,59.93953298528319,False,20.0,0.4583333333333333,0.45138888888888884,-1.625,-1.2291666666666667,0,0,0.0,-0.38884371166409676,0.0607638888888888,1.0,0.25,0.25,0.0,-0.25,-0.25,0.75,1.0,1.0,1.0,-1.0,1.0,1,1,0,0,0.625
17.0,0.0,17.0,0.0,0.0,0.0,0.0,0.0,460.8258569999598,464.3208010997623,,right,0.5710824001580477,464.8710690997541,lb11,460.8258569999598,464.3208010997623,464.8710690997541,,True,4.0,['r'],False,0.4444444444444445,0.6666666666666666,0.3333333333333333,1.0,2.0,0.9656336071428248,0.064046602155505,succ_gain,1.0,6.0,,,lb11,2,2022-05-13_14h32.06.640,threat_forest,2021.2.3,59.93953298528319,True,1.0,0.4833333333333333,0.4708333333333333,-0.7877777777777778,-1.206388888888889,1,0,1.0,-0.5602217712296336,0.064046602155505,0.4444444444444445,0.4444444444444445,0.6666666666666666,0.3333333333333333,0.6666666666666665,0.4444444444444444,4.444444444444445,4.444444444444445,0.0,2.0,-1.0,4.0,0,1,0,1,0.064046602155505
17.0,0.0,17.0,0.0,1.0,0.0,1.0,0.0,,,,right,1.0590268997475505,468.97759780008346,lb11,468.97759780008346,,465.476019400172,467.487461199984,False,6.0,['r'],True,0.27,0.3,0.1,1.0,2.0,0.7963326591781347,-0.0613835493597005,wait_cost,0.0,5.0,467.487461199984,,lb11,2,2022-05-13_14h32.06.640,threat_forest,2021.2.3,59.93953298528319,False,1.0,0.4833333333333333,0.4708333333333333,-0.7877777777777778,-1.206388888888889,1,0,0.0,0.057350467380284424,-0.0613835493597005,0.27,0.27,0.3,0.1,-0.10000000000000009,-0.020000000000000018,5.98,5.98,1.0,2.0,1.0,6.0,0,1,0,1,-0.0613835493597005
17.0,0.0,17.0,0.0,2.0,0.0,2.0,0.0,,,,right,0.8126287995837629,472.9696426000446,lb11,470.0548001998104,472.05432520015165,472.9696426000446,,True,5.0,['r'],False,0.4444444444444445,0.6666666666666666,0.3333333333333333,1.0,2.0,0.9656336071428248,0.0505826202705592,succ_gain,1.0,6.0,472.05432520015165,,lb11,2,2022-05-13_14h32.06.640,threat_forest,2021.2.3,59.93953298528319,True,1.0,0.4833333333333333,0.4708333333333333,-0.7877777777777778,-1.206388888888889,1,0,1.0,-0.2074808547769873,0.0505826202705592,0.4444444444444445,0.4444444444444445,0.6666666666666666,0.3333333333333333,0.6666666666666665,0.4444444444444444,5.444444444444445,5.444444444444445,0.0,2.0,-1.0,5.0,0,1,0,1,0.0505826202705592
17.0,0.0,17.0,0.0,3.0,0.0,3.0,0.0,,,,right,0.9204538003541528,478.2437848001719,lb11,478.2437848001719,,473.8045096001588,475.8042417000979,False,6.0,['r'],True,0.27,0.3,0.1,1.0,2.0,0.7963326591781347,-0.2976416003086419,wait_cost,0.0,5.0,475.8042417000979,,lb11,2,2022-05-13_14h32.06.640,threat_forest,2021.2.3,59.93953298528319,False,1.0,0.4833333333333333,0.4708333333333333,-0.7877777777777778,-1.206388888888889,1,0,0.0,-0.08288846929787995,-0.2976416003086419,0.0,0.27,0.3,0.1,-0.10000000000000009,-0.020000000000000018,5.98,5.98,1.0,2.0,1.0,6.0,0,0,0,1,-0.84
17.0,0.0,17.0,0.0,4.0,0.0,4.0,0.0,,,,right,1.718995800241828,482.28870039992034,lb11,482.28870039992034,,473.8045096001588,475.8042417000979,False,5.0,['r'],True,0.27,0.3,0.1,1.0,2.0,0.7963326591781347,-0.3689703611111111,wait_cost,0.0,4.0,481.18613230017945,,lb11,2,2022-05-13_14h32.06.640,threat_forest,2021.2.3,59.93953298528319,False,1.0,0.4833333333333333,0.4708333333333333,-0.7877777777777778,-1.206388888888889,1,0,0.0,0.5417402832574298,-0.3689703611111111,0.0,0.27,0.3,0.1,-0.10000000000000009,-0.020000000000000018,4.98,4.98,1.0,2.0,-1.0,5.0,0,0,0,1,-0.84
