miniblock.thisRepN,miniblock.thisTrialN,miniblock.thisN,miniblock.thisIndex,day.thisRepN,day.thisTrialN,day.thisN,day.thisIndex,forest.started,fixation_forest.started,fixation_forest.stopped,key_resp.keys,key_resp.rt,key_resp.started,Subject_ID,weather_left.started,weather_left.stopped,weather_right.started,weather_right.stopped,foraging T/F,in_LP,p/r heuristic,good_weather.T/F,p_succ_correct,p_succ_uncorrected,r_threat,n_oponents,gain_if_succ,weather_entropy,OP_value_difference,action_outcome,forest_side_L=0_R=1,out_LP,fixation_day.started,fixation_day.stopped,participant,session,date,expName,psychopyVersion,frameRate,foraging T/F NaNs,fora_NR,forest_mean_p,mvt_cutoff_p,forest_mean_ev,mvt_cutoff_ev,mvt_policy_eg,mvt_policy_p,fora_response,logRT,optimal policy,$\mathit{p}$ success cor + cap,$\mathit{p}$ success cor,$\mathit{p}$ success,risk threat encounter,expected gain naive,expected gain correct,expected state no bounds,expected state with bounds,weather type,gain magnitude,win stay lose shift,continuous energy state,binary energy state,$\mathit{p}$ success based MVT,expected gain based MVT
0.0,0.0,0.0,0.0,0.0,0.0,0.0,0.0,22.026443299953826,25.53011019993573,None,left,1.985562499961816,27.2461767999921,ry1,27.2461767999921,None,22.026443299953826,25.530110199935734,True,5.0,['p'],True,0.375,0.5,0.25,1.0,1.0,0.9850568223215076,0.0361323788439721,succ_gain,0.0,6.0,,,ry1,1,2022-04-07_14h25.11.903,threat_forest,2021.2.3,60.07810152520136,True,69.0,0.39285714285714285,0.39285714285714285,-1.2665816326530612,-1.2665816326530612,1,0,1,0.6859022492915834,0.0361323788439721,0.375,0.375,0.5,0.75,-1.25,-1.125,3.875,3.875,1.0,1.0,,5.0,0,0,1
0.0,0.0,0.0,0.0,1.0,0.0,1.0,0.0,,,,None,,34.18381560000125,ry1,29.26404359994922,31.266141399974003,34.18381560000125,None,False,6.0,['p'],False,0.2448979591836734,0.2857142857142857,0.1428571428571428,1.0,1.0,0.8400769154957735,-0.1497617855306061,wait_cost,1.0,5.0,31.266141399974003,None,ry1,1,2022-04-07_14h25.11.903,threat_forest,2021.2.3,60.07810152520136,None,69.0,0.39285714285714285,0.39285714285714285,-1.2665816326530612,-1.2665816326530612,0,0,0,,-0.1497617855306061,0.2448979591836734,0.2448979591836734,0.2857142857142857,0.8571428571428572,-1.5714285714285712,-1.4081632653061225,4.591836734693878,4.591836734693878,0.0,1.0,1.0,6.0,0,0,0
0.0,0.0,0.0,0.0,2.0,0.0,2.0,0.0,,,,left,1.513413600041531,42.33067179995123,ry1,29.26404359994922,31.266141399974003,42.33067179995123,None,False,5.0,['p'],False,0.2448979591836734,0.2857142857142857,0.1428571428571428,1.0,1.0,0.8400769154957735,-0.0274362451318329,wait_cost,1.0,4.0,39.196962299989536,None,ry1,1,2022-04-07_14h25.11.903,threat_forest,2021.2.3,60.07810152520136,False,69.0,0.39285714285714285,0.39285714285714285,-1.2665816326530612,-1.2665816326530612,0,0,0,0.4143677616536136,-0.0274362451318329,0.2448979591836734,0.2448979591836734,0.2857142857142857,0.8571428571428572,-1.5714285714285712,-1.4081632653061225,3.5918367346938775,3.5918367346938775,0.0,1.0,-1.0,5.0,0,0,0
0.0,0.0,0.0,0.0,3.0,0.0,3.0,0.0,,,,left,1.2636616000672802,47.947845899965614,ry1,47.947845899965614,None,43.86395429994445,45.86375010001939,True,4.0,['p'],True,0.375,0.5,0.25,1.0,1.0,0.9850568223215076,0.0767058090154061,unsucc_cost,0.0,2.0,45.86375010001939,None,ry1,1,2022-04-07_14h25.11.903,threat_forest,2021.2.3,60.07810152520136,True,69.0,0.39285714285714285,0.39285714285714285,-1.2665816326530612,-1.2665816326530612,1,0,1,0.23401353841511718,0.0767058090154061,0.375,0.375,0.5,0.75,-1.25,-1.125,2.875,2.875,1.0,1.0,-1.0,4.0,0,0,1
0.0,0.0,0.0,0.0,4.0,0.0,4.0,0.0,,,,left,2.3987698999699205,52.29818779998459,ry1,52.29818779998459,None,43.86395429994445,45.86375010001939,True,2.0,['p'],True,0.375,0.5,0.25,1.0,1.0,0.9850568223215076,0.0674554140852768,unsucc_cost,0.0,0.0,51.23064819991123,None,ry1,1,2022-04-07_14h25.11.903,threat_forest,2021.2.3,60.07810152520136,True,69.0,0.39285714285714285,0.39285714285714285,-1.2665816326530612,-1.2665816326530612,1,0,1,0.874956064280315,0.0674554140852768,0.375,0.375,0.5,0.75,-1.25,-1.125,0.875,0.875,1.0,1.0,-1.0,2.0,0,0,1
1.0,0.0,1.0,0.0,0.0,0.0,0.0,0.0,58.04553190001752,61.54731099994388,None,None,,62.8670694999164,ry1,62.8670694999164,None,58.04553190001752,61.547310999943875,False,4.0,['p'],True,0.4166666666666667,0.5,0.1666666666666666,1.0,1.0,0.9358932809493992,0.0414014973705713,wait_cost,0.0,3.0,,,ry1,1,2022-04-07_14h25.11.903,threat_forest,2021.2.3,60.07810152520136,None,16.0,0.4,0.39642857142857146,-1.1033333333333333,-1.1849574829931973,1,1,0,,0.0414014973705713,0.4166666666666667,0.4166666666666667,0.5,0.8333333333333334,-0.9999999999999998,-0.9166666666666665,3.0833333333333335,3.0833333333333335,1.0,1.0,-1.0,4.0,0,1,1
1.0,0.0,1.0,0.0,1.0,0.0,1.0,0.0,,,,left,0.9038987000240012,70.5809565000236,ry1,70.5809565000236,None,58.04553190001752,61.547310999943875,True,3.0,['p'],True,0.4166666666666667,0.5,0.1666666666666666,1.0,1.0,0.9358932809493992,0.0542269098658266,unsucc_cost,0.0,1.0,67.88068169995677,None,ry1,1,2022-04-07_14h25.11.903,threat_forest,2021.2.3,60.07810152520136,True,16.0,0.4,0.39642857142857146,-1.1033333333333333,-1.1849574829931973,1,1,1,-0.1010379823644447,0.0542269098658266,0.4166666666666667,0.4166666666666667,0.5,0.8333333333333334,-0.9999999999999998,-0.9166666666666665,2.0833333333333335,2.0833333333333335,1.0,1.0,-1.0,3.0,0,1,1
1.0,0.0,1.0,0.0,2.0,0.0,2.0,0.0,,,,right,0.7917806999757886,75.60101659991778,ry1,71.5143967999611,73.51414310000837,75.60101659991778,None,True,1.0,['p'],False,0.27,0.3,0.1,1.0,1.0,0.7963326591781347,0.0415481562499999,unsucc_cost,1.0,0.0,73.51414310000837,None,ry1,1,2022-04-07_14h25.11.903,threat_forest,2021.2.3,60.07810152520136,True,16.0,0.4,0.39642857142857146,-1.1033333333333333,-1.1849574829931973,0,0,1,-0.23347081947988838,0.0415481562499999,1.0,0.27,0.3,0.9,-1.4,-1.29,-0.29000000000000004,0.0,0.0,1.0,-1.0,1.0,1,0,0
2.0,0.0,2.0,0.0,0.0,0.0,0.0,0.0,81.30562989995815,84.814361799974,None,right,2.623619200079702,87.21600110002328,ry1,87.21600110002328,None,81.30562989995815,84.814361799974,False,4.0,['p'],True,0.2962962962962963,0.3333333333333333,0.1111111111111111,1.0,1.0,0.8325252476189534,0.0071317107376875,wait_cost,0.0,3.0,,,ry1,1,2022-04-07_14h25.11.903,threat_forest,2021.2.3,60.07810152520136,False,4.0,0.4666666666666667,0.43333333333333335,-0.9911111111111113,-1.0472222222222223,0,0,0,0.9645547386297925,0.0071317107376875,0.2962962962962963,0.2962962962962963,0.3333333333333333,0.8888888888888888,-1.3333333333333335,-1.2222222222222223,2.7777777777777777,2.7777777777777777,1.0,1.0,-1.0,4.0,0,0,0
2.0,0.0,2.0,0.0,1.0,0.0,1.0,0.0,,,,right,0.950243499944918,93.88211220002268,ry1,89.8646604999667,91.86445909994654,93.88211220002268,None,True,3.0,['p'],False,0.48,0.6,0.2,1.0,1.0,0.9455672104350704,0.0733394424822562,succ_gain,1.0,4.0,91.86445909994654,None,ry1,1,2022-04-07_14h25.11.903,threat_forest,2021.2.3,60.07810152520136,True,4.0,0.4666666666666667,0.43333333333333335,-0.9911111111111113,-1.0472222222222223,1,1,1,-0.05103701149932299,0.0733394424822562,0.48,0.48,0.6,0.8,-0.8000000000000002,-0.7600000000000002,2.2399999999999998,2.2399999999999998,0.0,1.0,-1.0,3.0,0,1,1
2.0,0.0,2.0,0.0,2.0,0.0,2.0,0.0,,,,left,1.516254000016488,99.91525189997628,ry1,99.91525189997628,None,94.8647554999916,96.86457380000502,True,4.0,['p'],True,0.2962962962962963,0.3333333333333333,0.1111111111111111,1.0,1.0,0.8325252476189534,0.0049512748621201,unsucc_cost,0.0,2.0,96.86457380000502,None,ry1,1,2022-04-07_14h25.11.903,threat_forest,2021.2.3,60.07810152520136,True,4.0,0.4666666666666667,0.43333333333333335,-0.9911111111111113,-1.0472222222222223,0,0,1,0.41624281937090385,0.0049512748621201,0.2962962962962963,0.2962962962962963,0.3333333333333333,0.8888888888888888,-1.3333333333333335,-1.2222222222222223,2.7777777777777777,2.7777777777777777,1.0,1.0,1.0,4.0,0,0,0
2.0,0.0,2.0,0.0,3.0,0.0,3.0,0.0,,,,right,1.0458035001065582,105.29861239995807,ry1,101.44842689996584,103.44797929993365,105.29861239995807,None,True,2.0,['p'],False,0.48,0.6,0.2,1.0,1.0,0.9455672104350704,0.0638323814540466,figh_cost,1.0,0.0,103.44797929993364,None,ry1,1,2022-04-07_14h25.11.903,threat_forest,2021.2.3,60.07810152520136,True,4.0,0.4666666666666667,0.43333333333333335,-0.9911111111111113,-1.0472222222222223,1,1,1,0.04478548958839835,0.0638323814540466,0.48,0.48,0.6,0.8,-0.8000000000000002,-0.7600000000000002,1.2399999999999998,1.2399999999999998,0.0,1.0,-1.0,2.0,0,1,1
3.0,0.0,3.0,0.0,0.0,0.0,0.0,0.0,109.50643910001963,113.0147139999317,None,left,0.8354914999799803,114.28219790000004,ry1,114.28219790000004,None,109.50643910001963,113.0147139999317,True,5.0,['r'],True,0.3333333333333333,0.3333333333333333,0.0,0.0,2.0,0.5793801642856949,0.0388172421765338,unsucc_cost,0.0,3.0,,,ry1,1,2022-04-07_14h25.11.903,threat_forest,2021.2.3,60.07810152520136,True,10.0,0.35416666666666663,0.41041666666666665,-0.8958333333333335,-0.9434722222222224,1,0,1,-0.17973510457117434,0.0388172421765338,0.3333333333333333,0.3333333333333333,0.3333333333333333,1.0,-0.6666666666666669,-0.6666666666666669,4.333333333333333,4.333333333333333,1.0,2.0,-1.0,5.0,0,0,1
3.0,0.0,3.0,0.0,1.0,0.0,1.0,0.0,,,,left,1.6581023999024185,120.18294249998873,ry1,115.1484296999406,117.14825219998602,120.18294249998873,None,False,3.0,['r'],False,0.28125,0.375,0.25,2.0,2.0,0.9634951148421658,0.0525198115612938,wait_cost,1.0,2.0,117.14825219998602,None,ry1,1,2022-04-07_14h25.11.903,threat_forest,2021.2.3,60.07810152520136,False,10.0,0.35416666666666663,0.41041666666666665,-0.8958333333333335,-0.9434722222222224,0,0,0,0.5056738159051318,0.0525198115612938,0.28125,0.28125,0.375,0.75,-1.25,-1.125,1.875,1.875,0.0,2.0,-1.0,3.0,0,0,0
3.0,0.0,3.0,0.0,2.0,0.0,2.0,0.0,,,,left,1.1970276999054477,126.06555299996398,ry1,115.1484296999406,117.14825219998602,126.06555299996398,None,False,2.0,['r'],False,0.28125,0.375,0.25,2.0,2.0,0.9634951148421658,-0.0033863208912037,wait_cost,1.0,1.0,123.86523739993572,None,ry1,1,2022-04-07_14h25.11.903,threat_forest,2021.2.3,60.07810152520136,False,10.0,0.35416666666666663,0.41041666666666665,-0.8958333333333335,-0.9434722222222224,0,0,0,0.17984156741539278,-0.0033863208912037,0.28125,0.28125,0.375,0.75,-1.25,-1.125,0.875,0.875,0.0,2.0,-1.0,2.0,0,0,0
3.0,0.0,3.0,0.0,3.0,0.0,3.0,0.0,,,,right,1.6248881000792608,132.4157323000254,ry1,115.1484296999406,117.14825219998602,132.4157323000254,None,True,1.0,['r'],False,0.28125,0.375,0.25,2.0,2.0,0.9634951148421658,0.1354904174804687,unsucc_cost,1.0,0.0,129.28169410000555,None,ry1,1,2022-04-07_14h25.11.903,threat_forest,2021.2.3,60.07810152520136,True,10.0,0.35416666666666663,0.41041666666666665,-0.8958333333333335,-0.9434722222222224,0,0,1,0.4854389519209539,0.1354904174804687,1.0,0.28125,0.375,0.75,-1.25,-1.125,-0.125,0.0,0.0,2.0,-1.0,1.0,1,0,0
4.0,0.0,4.0,0.0,0.0,0.0,0.0,0.0,139.7374205000233,143.2484902999131,None,right,1.8930561000015589,145.7988205999136,ry1,145.7988205999136,None,139.7374205000233,143.2484902999131,False,4.0,['r'],True,0.3333333333333333,0.5,0.3333333333333333,2.0,1.0,1.0,0.0143529277549154,wait_cost,0.0,3.0,,,ry1,1,2022-04-07_14h25.11.903,threat_forest,2021.2.3,60.07810152520136,False,7.0,0.45,0.40208333333333335,-1.0666666666666667,-0.9812500000000001,0,0,0,0.6381925072880942,0.0143529277549154,0.3333333333333333,0.3333333333333333,0.5,0.6666666666666667,-1.5,-1.3333333333333335,2.6666666666666665,2.6666666666666665,1.0,1.0,-1.0,4.0,0,0,0
4.0,0.0,4.0,0.0,1.0,0.0,1.0,0.0,,,,right,2.199754099943675,150.64928859996144,ry1,150.64928859996144,None,139.7374205000233,143.2484902999131,False,3.0,['r'],True,0.3333333333333333,0.5,0.3333333333333333,2.0,1.0,1.0,0.0216859945130315,wait_cost,0.0,2.0,149.71533719997387,None,ry1,1,2022-04-07_14h25.11.903,threat_forest,2021.2.3,60.07810152520136,False,7.0,0.45,0.40208333333333335,-1.0666666666666667,-0.9812500000000001,0,0,0,0.7883455813643556,0.0216859945130315,0.3333333333333333,0.3333333333333333,0.5,0.6666666666666667,-1.5,-1.3333333333333335,1.6666666666666665,1.6666666666666665,1.0,1.0,-1.0,3.0,0,0,0
4.0,0.0,4.0,0.0,2.0,0.0,2.0,0.0,,,,right,1.287669699988328,155.7159937999677,ry1,155.7159937999677,None,139.7374205000233,143.2484902999131,False,2.0,['r'],True,0.3333333333333333,0.5,0.3333333333333333,2.0,1.0,1.0,0.020927160493827,wait_cost,0.0,1.0,154.86539469996933,None,ry1,1,2022-04-07_14h25.11.903,threat_forest,2021.2.3,60.07810152520136,False,7.0,0.45,0.40208333333333335,-1.0666666666666667,-0.9812500000000001,0,0,0,0.2528341506863078,0.020927160493827,0.3333333333333333,0.3333333333333333,0.5,0.6666666666666667,-1.5,-1.3333333333333335,0.6666666666666665,0.6666666666666665,1.0,1.0,-1.0,2.0,0,0,0
4.0,0.0,4.0,0.0,3.0,0.0,3.0,0.0,,,,right,1.0757469000527635,159.84937720000744,ry1,157.03241250000428,159.03215540002566,159.84937720000744,None,True,1.0,['r'],False,0.4,0.4,0.0,0.0,1.0,0.6126016192893442,0.0788740740740741,unsucc_cost,1.0,0.0,159.03215540002566,None,ry1,1,2022-04-07_14h25.11.903,threat_forest,2021.2.3,60.07810152520136,True,7.0,0.45,0.40208333333333335,-1.0666666666666667,-0.9812500000000001,1,0,1,0.07301521107103352,0.0788740740740741,1.0,0.4,0.4,1.0,-0.7999999999999999,-0.7999999999999999,0.20000000000000007,0.20000000000000007,0.0,1.0,-1.0,1.0,1,0,1
5.0,0.0,5.0,0.0,0.0,0.0,0.0,0.0,166.3658984999638,169.86555500002578,None,left,0.8315436000702903,173.2661163000157,ry1,173.2661163000157,None,166.3658984999638,169.86555500002578,True,5.0,['r'],True,0.5,0.5,0.0,0.0,1.0,0.6309297535714574,0.0772781267414693,succ_gain,0.0,6.0,,,ry1,1,2022-04-07_14h25.11.903,threat_forest,2021.2.3,60.07810152520136,True,30.0,0.5833333333333333,0.5166666666666666,-1.25,-1.1583333333333332,1,0,1,-0.184471546281523,0.0772781267414693,0.5,0.5,0.5,1.0,-0.5,-0.5,4.5,4.5,1.0,1.0,-1.0,5.0,0,0,1
5.0,0.0,5.0,0.0,1.0,0.0,1.0,0.0,,,,None,,179.13265990000218,ry1,179.13265990000218,None,166.3658984999638,169.86555500002578,False,6.0,['r'],True,0.5,0.5,0.0,0.0,1.0,0.6309297535714574,-0.0479600694444443,wait_cost,0.0,5.0,176.1157534000231,None,ry1,1,2022-04-07_14h25.11.903,threat_forest,2021.2.3,60.07810152520136,None,30.0,0.5833333333333333,0.5166666666666666,-1.25,-1.1583333333333332,1,0,0,,-0.0479600694444443,0.5,0.5,0.5,1.0,-0.5,-0.5,5.5,5.5,1.0,1.0,1.0,6.0,0,0,1
5.0,0.0,5.0,0.0,2.0,0.0,2.0,0.0,,,,left,0.9440423999913036,186.5997847999679,ry1,182.13268949999477,184.13270319998264,186.5997847999679,None,False,5.0,['r'],False,0.2222222222222222,0.6666666666666666,0.6666666666666666,2.0,1.0,0.77250688571426,-0.1641535922496569,wait_cost,1.0,4.0,184.13270319998264,None,ry1,1,2022-04-07_14h25.11.903,threat_forest,2021.2.3,60.07810152520136,False,30.0,0.5833333333333333,0.5166666666666666,-1.25,-1.1583333333333332,0,0,0,-0.05758419860027081,-0.1641535922496569,0.2222222222222222,0.2222222222222222,0.6666666666666666,0.33333333333333337,-2.0,-2.0,3.0,3.0,0.0,1.0,-1.0,5.0,0,0,0
5.0,0.0,5.0,0.0,3.0,0.0,3.0,0.0,,,,left,0.7975866999477148,190.28316929994617,ry1,182.13268949999477,184.13270319998264,190.28316929994617,None,False,4.0,['r'],False,0.2222222222222222,0.6666666666666666,0.6666666666666666,2.0,1.0,0.77250688571426,-0.1542031035665295,wait_cost,1.0,3.0,189.5659997999901,None,ry1,1,2022-04-07_14h25.11.903,threat_forest,2021.2.3,60.07810152520136,False,30.0,0.5833333333333333,0.5166666666666666,-1.25,-1.1583333333333332,0,0,0,-0.22616473556416772,-0.1542031035665295,0.2222222222222222,0.2222222222222222,0.6666666666666666,0.33333333333333337,-2.0,-2.0,2.0,2.0,0.0,1.0,-1.0,4.0,0,0,0
5.0,0.0,5.0,0.0,4.0,0.0,4.0,0.0,,,,left,0.8046052000718191,196.599867300014,ry1,196.599867300014,None,191.0996333999792,193.09923739999067,True,3.0,['r'],True,0.5,0.5,0.0,0.0,1.0,0.6309297535714574,0.1471836419753086,unsucc_cost,0.0,1.0,193.09923739999067,None,ry1,1,2022-04-07_14h25.11.903,threat_forest,2021.2.3,60.07810152520136,True,30.0,0.5833333333333333,0.5166666666666666,-1.25,-1.1583333333333332,1,0,1,-0.21740355655939558,0.1471836419753086,0.5,0.5,0.5,1.0,-0.5,-0.5,2.5,2.5,1.0,1.0,-1.0,3.0,0,0,1
5.0,0.0,5.0,0.0,5.0,0.0,5.0,0.0,,,,left,0.9410341000184416,202.68314430001192,ry1,202.68314430001192,None,191.0996333999792,193.09923739999067,True,1.0,['r'],True,0.5,0.5,0.0,0.0,1.0,0.6309297535714574,0.2152777777777778,succ_gain,0.0,2.0,199.43274339998607,None,ry1,1,2022-04-07_14h25.11.903,threat_forest,2021.2.3,60.07810152520136,True,30.0,0.5833333333333333,0.5166666666666666,-1.25,-1.1583333333333332,1,0,1,-0.060775901989108996,0.2152777777777778,1.0,0.5,0.5,1.0,-0.5,-0.5,0.5,0.5,1.0,1.0,-1.0,1.0,1,0,1
5.0,0.0,5.0,0.0,6.0,0.0,6.0,0.0,,,,left,0.6395474999444559,206.94993889995385,ry1,203.64968829997812,205.64959749998525,206.94993889995385,None,False,2.0,['r'],False,0.2222222222222222,0.6666666666666666,0.6666666666666666,2.0,1.0,0.77250688571426,-0.1388888888888889,wait_cost,1.0,1.0,205.64959749998525,None,ry1,1,2022-04-07_14h25.11.903,threat_forest,2021.2.3,60.07810152520136,False,30.0,0.5833333333333333,0.5166666666666666,-1.25,-1.1583333333333332,0,0,0,-0.4469943840297387,-0.1388888888888889,0.2222222222222222,0.2222222222222222,0.6666666666666666,0.33333333333333337,-2.0,-2.0,0.0,0.0,0.0,1.0,1.0,2.0,0,0,0
5.0,0.0,5.0,0.0,7.0,0.0,7.0,0.0,,,,right,0.5778778999811038,212.14966439991255,ry1,212.14966439991255,None,207.61640739999712,209.61632959998678,False,1.0,['r'],True,0.5,0.5,0.0,0.0,1.0,0.6309297535714574,0.5,wait_cost,0.0,0.0,209.6163295999868,None,ry1,1,2022-04-07_14h25.11.903,threat_forest,2021.2.3,60.07810152520136,False,30.0,0.5833333333333333,0.5166666666666666,-1.25,-1.1583333333333332,1,0,0,-0.5483926783327095,0.5,1.0,0.5,0.5,1.0,-0.5,-0.5,0.5,0.5,1.0,1.0,-1.0,1.0,1,0,1
6.0,0.0,6.0,0.0,0.0,0.0,0.0,0.0,216.4721168000251,219.9830644999165,None,right,1.346006999956444,221.5505095999688,ry1,216.4721168000251,219.9830644999165,221.5505095999688,None,True,5.0,['r'],False,0.25,0.25,0.0,0.0,2.0,0.5118595071429148,0.0218437876829995,unsucc_cost,1.0,3.0,,,ry1,1,2022-04-07_14h25.11.903,threat_forest,2021.2.3,60.07810152520136,True,34.0,0.4583333333333333,0.5208333333333333,-1.3888888888888888,-1.3194444444444444,1,0,1,0.2971424317710072,0.0218437876829995,0.25,0.25,0.25,1.0,-1.0,-1.0,4.0,4.0,0.0,2.0,-1.0,5.0,0,0,1
6.0,0.0,6.0,0.0,1.0,0.0,1.0,0.0,,,,right,1.0243025000672787,226.80008860002272,ry1,216.4721168000251,219.9830644999165,226.80008860002272,None,True,3.0,['r'],False,0.25,0.25,0.0,0.0,2.0,0.5118595071429148,0.0633364704901298,unsucc_cost,1.0,1.0,224.91650749999096,None,ry1,1,2022-04-07_14h25.11.903,threat_forest,2021.2.3,60.07810152520136,True,34.0,0.4583333333333333,0.5208333333333333,-1.3888888888888888,-1.3194444444444444,1,0,1,0.024011893214259627,0.0633364704901298,0.25,0.25,0.25,1.0,-1.0,-1.0,2.0,2.0,0.0,2.0,-1.0,3.0,0,0,1
6.0,0.0,6.0,0.0,2.0,0.0,2.0,0.0,,,,right,0.8393275000853464,231.63349789998028,ry1,216.4721168000251,219.9830644999165,231.63349789998028,None,True,1.0,['r'],False,0.25,0.25,0.0,0.0,2.0,0.5118595071429148,0.0691086254983281,succ_gain,1.0,3.0,229.85008709994145,None,ry1,1,2022-04-07_14h25.11.903,threat_forest,2021.2.3,60.07810152520136,True,34.0,0.4583333333333333,0.5208333333333333,-1.3888888888888888,-1.3194444444444444,1,0,1,-0.17515430292870704,0.0691086254983281,1.0,0.25,0.25,1.0,-1.0,-1.0,0.0,0.0,0.0,2.0,-1.0,1.0,1,0,1
6.0,0.0,6.0,0.0,3.0,0.0,3.0,0.0,,,,right,1.3261509999865666,235.85019989998543,ry1,235.85019989998543,None,232.50031399994623,234.49993149994407,False,3.0,['r'],True,0.2222222222222222,0.6666666666666666,0.6666666666666666,2.0,2.0,0.77250688571426,-0.0119720817139155,wait_cost,0.0,2.0,234.49993149994407,None,ry1,1,2022-04-07_14h25.11.903,threat_forest,2021.2.3,60.07810152520136,False,34.0,0.4583333333333333,0.5208333333333333,-1.3888888888888888,-1.3194444444444444,0,0,0,0.2822807615898839,-0.0119720817139155,0.2222222222222222,0.2222222222222222,0.6666666666666666,0.33333333333333337,-1.3333333333333335,-1.777777777777778,1.222222222222222,1.222222222222222,1.0,2.0,1.0,3.0,0,0,0
6.0,0.0,6.0,0.0,4.0,0.0,4.0,0.0,,,,right,1.1626329999417069,242.18363709992263,ry1,242.18363709992263,None,232.50031399994623,234.49993149994407,False,2.0,['r'],True,0.2222222222222222,0.6666666666666666,0.6666666666666666,2.0,2.0,0.77250688571426,-0.0138888888888889,wait_cost,0.0,1.0,239.20002099999687,None,ry1,1,2022-04-07_14h25.11.903,threat_forest,2021.2.3,60.07810152520136,False,34.0,0.4583333333333333,0.5208333333333333,-1.3888888888888888,-1.3194444444444444,0,0,0,0.150687260487221,-0.0138888888888889,0.2222222222222222,0.2222222222222222,0.6666666666666666,0.33333333333333337,-1.3333333333333335,-1.777777777777778,0.2222222222222221,0.2222222222222221,1.0,2.0,-1.0,2.0,0,0,0
6.0,0.0,6.0,0.0,5.0,0.0,5.0,0.0,,,,left,1.6711198000703007,247.55057849991132,ry1,247.55057849991132,None,232.50031399994623,234.49993149994407,True,1.0,['r'],True,0.2222222222222222,0.6666666666666666,0.6666666666666666,2.0,2.0,0.77250688571426,0.2222222222222222,figh_cost,0.0,0.0,245.36689449998084,None,ry1,1,2022-04-07_14h25.11.903,threat_forest,2021.2.3,60.07810152520136,True,34.0,0.4583333333333333,0.5208333333333333,-1.3888888888888888,-1.3194444444444444,0,0,1,0.5134939406821103,0.2222222222222222,1.0,0.2222222222222222,0.6666666666666666,0.33333333333333337,-1.3333333333333335,-1.777777777777778,-0.7777777777777779,0.0,1.0,2.0,-1.0,1.0,1,0,0
7.0,0.0,7.0,0.0,0.0,0.0,0.0,0.0,254.39093479991425,257.90032219991554,None,right,2.08875979995355,258.5507354999427,ry1,254.39093479991425,257.90032219991554,258.5507354999427,None,True,4.0,['p'],False,0.375,0.5,0.25,1.0,2.0,0.9850568223215076,0.0498268584470121,figh_cost,1.0,1.0,,,ry1,1,2022-04-07_14h25.11.903,threat_forest,2021.2.3,60.07810152520136,True,31.0,0.41666666666666663,0.4375,-0.9675925925925928,-1.178240740740741,1,0,1,0.7365704926955385,0.0498268584470121,0.375,0.375,0.5,0.75,-0.75,-0.75,3.25,3.25,0.0,2.0,-1.0,4.0,0,0,1
7.0,0.0,7.0,0.0,1.0,0.0,1.0,0.0,,,,None,,266.3506529999431,ry1,266.3506529999431,None,260.66738240001723,262.66705579997506,False,1.0,['p'],True,0.2592592592592592,0.3333333333333333,0.2222222222222222,2.0,2.0,0.9327883776363324,0.0664981331872927,wait_cost,0.0,0.0,262.66705579997506,None,ry1,1,2022-04-07_14h25.11.903,threat_forest,2021.2.3,60.07810152520136,None,31.0,0.41666666666666663,0.4375,-0.9675925925925928,-1.178240740740741,0,0,0,,0.0664981331872927,1.0,0.2592592592592592,0.3333333333333333,0.7777777777777778,-1.3333333333333335,-1.1851851851851856,-0.18518518518518556,0.0,1.0,2.0,-1.0,1.0,1,0,0
8.0,0.0,8.0,0.0,0.0,0.0,0.0,0.0,272.65638649999164,276.1672087999759,None,right,0.7657773999962956,277.3344253000105,ry1,272.65638649999164,276.1672087999759,277.3344253000105,None,True,5.0,['r'],False,0.5,0.5,0.0,0.0,1.0,0.6309297535714574,0.0653299800297634,unsucc_cost,1.0,3.0,,,ry1,1,2022-04-07_14h25.11.903,threat_forest,2021.2.3,60.07810152520136,True,35.0,0.5357142857142857,0.47619047619047616,-0.7806122448979592,-0.8741024187452759,1,1,1,-0.26686375200109025,0.0653299800297634,0.5,0.5,0.5,1.0,-0.5,-0.5,4.5,4.5,0.0,1.0,-1.0,5.0,0,1,1
8.0,0.0,8.0,0.0,1.0,0.0,1.0,0.0,,,,right,1.387045899988152,281.6508427999215,ry1,281.6508427999215,None,278.1175152999349,280.1173465999309,False,3.0,['r'],True,0.4081632653061224,0.5714285714285714,0.2857142857142857,2.0,1.0,0.9885754083994552,0.0362058160775727,wait_cost,0.0,2.0,280.1173465999309,None,ry1,1,2022-04-07_14h25.11.903,threat_forest,2021.2.3,60.07810152520136,False,35.0,0.5357142857142857,0.47619047619047616,-0.7806122448979592,-0.8741024187452759,0,0,0,0.3271762337830801,0.0362058160775727,0.4081632653061224,0.4081632653061224,0.5714285714285714,0.7142857142857143,-1.1428571428571428,-1.0612244897959184,1.9387755102040816,1.9387755102040816,1.0,1.0,-1.0,3.0,0,0,0
8.0,0.0,8.0,0.0,2.0,0.0,2.0,0.0,,,,right,1.014938700012863,286.0680314999772,ry1,283.06774239998776,285.06730929994956,286.0680314999772,None,True,2.0,['r'],False,0.5,0.5,0.0,0.0,1.0,0.6309297535714574,0.0684515063919812,succ_gain,1.0,3.0,285.0673092999496,None,ry1,1,2022-04-07_14h25.11.903,threat_forest,2021.2.3,60.07810152520136,True,35.0,0.5357142857142857,0.47619047619047616,-0.7806122448979592,-0.8741024187452759,1,1,1,0.014828216593957878,0.0684515063919812,0.5,0.5,0.5,1.0,-0.5,-0.5,1.5,1.5,0.0,1.0,-1.0,2.0,0,1,1
8.0,0.0,8.0,0.0,3.0,0.0,3.0,0.0,,,,right,1.68017119995784,290.03646550001577,ry1,290.03646550001577,None,287.1009987000143,289.10075230000075,False,3.0,['r'],True,0.4081632653061224,0.5714285714285714,0.2857142857142857,2.0,1.0,0.9885754083994552,0.0577532267592585,wait_cost,0.0,2.0,289.10075230000075,None,ry1,1,2022-04-07_14h25.11.903,threat_forest,2021.2.3,60.07810152520136,False,35.0,0.5357142857142857,0.47619047619047616,-0.7806122448979592,-0.8741024187452759,0,0,0,0.518895692960042,0.0577532267592585,0.4081632653061224,0.4081632653061224,0.5714285714285714,0.7142857142857143,-1.1428571428571428,-1.0612244897959184,1.9387755102040816,1.9387755102040816,1.0,1.0,1.0,3.0,0,0,0
8.0,0.0,8.0,0.0,4.0,0.0,4.0,0.0,,,,right,1.2873172999825329,297.40178089996334,ry1,297.40178089996334,None,287.1009987000143,289.10075230000075,False,2.0,['r'],True,0.4081632653061224,0.5714285714285714,0.2857142857142857,2.0,1.0,0.9885754083994552,0.0434271115776589,wait_cost,0.0,1.0,293.7341457000002,None,ry1,1,2022-04-07_14h25.11.903,threat_forest,2021.2.3,60.07810152520136,False,35.0,0.5357142857142857,0.47619047619047616,-0.7806122448979592,-0.8741024187452759,0,0,0,0.2525604405603933,0.0434271115776589,0.4081632653061224,0.4081632653061224,0.5714285714285714,0.7142857142857143,-1.1428571428571428,-1.0612244897959184,0.9387755102040816,0.9387755102040816,1.0,1.0,-1.0,2.0,0,0,0
8.0,0.0,8.0,0.0,5.0,0.0,5.0,0.0,,,,left,1.3705870000412688,304.3015110999113,ry1,304.3015110999113,None,287.1009987000143,289.10075230000075,True,1.0,['r'],True,0.4081632653061224,0.5714285714285714,0.2857142857142857,2.0,1.0,0.9885754083994552,0.1947105372761349,unsucc_cost,0.0,0.0,300.71758589998353,None,ry1,1,2022-04-07_14h25.11.903,threat_forest,2021.2.3,60.07810152520136,True,35.0,0.5357142857142857,0.47619047619047616,-0.7806122448979592,-0.8741024187452759,0,0,1,0.3152391152575893,0.1947105372761349,1.0,0.4081632653061224,0.5714285714285714,0.7142857142857143,-1.1428571428571428,-1.0612244897959184,-0.061224489795918435,0.0,1.0,1.0,-1.0,1.0,1,0,0
9.0,0.0,9.0,0.0,0.0,0.0,0.0,0.0,309.3064038999146,312.8177867999766,None,right,1.345344000030309,314.65183440002147,ry1,309.3064038999146,312.8177867999766,314.65183440002147,None,True,4.0,['r'],False,0.25,0.25,0.0,0.0,1.0,0.5118595071429148,0.0117925466256169,succ_gain,1.0,5.0,,,ry1,1,2022-04-07_14h25.11.903,threat_forest,2021.2.3,60.07810152520136,True,32.0,0.26785714285714285,0.4017857142857143,-1.461734693877551,-1.121173469387755,0,0,1,0.2966497424565701,0.0117925466256169,0.25,0.25,0.25,1.0,-1.25,-1.25,2.75,2.75,0.0,1.0,-1.0,4.0,0,0,0
9.0,0.0,9.0,0.0,1.0,0.0,1.0,0.0,,,,right,1.420925300102681,320.4369336999953,ry1,320.4369336999953,None,316.0185658999253,318.0178316999227,False,5.0,['r'],True,0.2040816326530612,0.2857142857142857,0.2857142857142857,2.0,1.0,0.9335459102197724,0.0005939157599406,wait_cost,0.0,4.0,318.0178316999227,None,ry1,1,2022-04-07_14h25.11.903,threat_forest,2021.2.3,60.07810152520136,False,32.0,0.26785714285714285,0.4017857142857143,-1.461734693877551,-1.121173469387755,0,0,0,0.35130827919179664,0.0005939157599406,0.2040816326530612,0.2040816326530612,0.2857142857142857,0.7142857142857143,-2.0,-1.6734693877551021,3.326530612244898,3.326530612244898,1.0,1.0,1.0,5.0,0,0,0
9.0,0.0,9.0,0.0,2.0,0.0,2.0,0.0,,,,right,1.334891900070943,326.46868990000803,ry1,326.46868990000803,None,316.0185658999253,318.0178316999227,False,4.0,['r'],True,0.2040816326530612,0.2857142857142857,0.2857142857142857,2.0,1.0,0.9335459102197724,-0.0021630960258077,wait_cost,0.0,3.0,323.884607099928,None,ry1,1,2022-04-07_14h25.11.903,threat_forest,2021.2.3,60.07810152520136,False,32.0,0.26785714285714285,0.4017857142857143,-1.461734693877551,-1.121173469387755,0,0,0,0.2888503148440327,-0.0021630960258077,0.2040816326530612,0.2040816326530612,0.2857142857142857,0.7142857142857143,-2.0,-1.6734693877551021,2.326530612244898,2.326530612244898,1.0,1.0,-1.0,4.0,0,0,0
9.0,0.0,9.0,0.0,3.0,0.0,3.0,0.0,,,,right,0.9680142999859528,333.2848790999269,ry1,327.834898400004,329.8346924999496,333.2848790999269,None,True,3.0,['r'],False,0.25,0.25,0.0,0.0,1.0,0.5118595071429148,0.0564614140897925,unsucc_cost,1.0,1.0,329.8346924999496,None,ry1,1,2022-04-07_14h25.11.903,threat_forest,2021.2.3,60.07810152520136,True,32.0,0.26785714285714285,0.4017857142857143,-1.461734693877551,-1.121173469387755,0,0,1,-0.03250841910191434,0.0564614140897925,0.25,0.25,0.25,1.0,-1.25,-1.25,1.75,1.75,0.0,1.0,-1.0,3.0,0,0,0
9.0,0.0,9.0,0.0,4.0,0.0,4.0,0.0,,,,left,0.6994694999884814,338.4017722000135,ry1,338.4017722000135,None,334.285009299987,336.2849147999659,True,1.0,['r'],True,0.2040816326530612,0.2857142857142857,0.2857142857142857,2.0,1.0,0.9335459102197724,0.0486776343190338,unsucc_cost,0.0,0.0,336.2849147999659,None,ry1,1,2022-04-07_14h25.11.903,threat_forest,2021.2.3,60.07810152520136,True,32.0,0.26785714285714285,0.4017857142857143,-1.461734693877551,-1.121173469387755,0,0,1,-0.35743308841695526,0.0486776343190338,1.0,0.2040816326530612,0.2857142857142857,0.7142857142857143,-2.0,-1.6734693877551021,-0.6734693877551021,0.0,1.0,1.0,-1.0,1.0,1,0,0
10.0,0.0,10.0,0.0,0.0,0.0,0.0,0.0,341.95424019999336,345.46824770001695,None,left,1.4652632999932391,348.1354748000158,ry1,341.95424019999336,345.46824770001695,348.1354748000158,None,False,5.0,['r'],False,0.24,0.4,0.4,2.0,1.0,0.9801625908629508,-0.0104347549751131,wait_cost,1.0,4.0,,,ry1,1,2022-04-07_14h25.11.903,threat_forest,2021.2.3,60.07810152520136,False,28.0,0.3666666666666667,0.31726190476190474,-1.3400000000000003,-1.4008673469387758,0,0,0,0.38203495327791825,-0.0104347549751131,0.24,0.24,0.4,0.6,-2.0,-1.6800000000000002,3.32,3.32,0.0,1.0,-1.0,5.0,0,0,0
10.0,0.0,10.0,0.0,1.0,0.0,1.0,0.0,,,,left,2.2054418000625446,354.85201979998965,ry1,341.95424019999336,345.46824770001695,354.85201979998965,None,False,4.0,['r'],False,0.24,0.4,0.4,2.0,1.0,0.9801625908629508,0.0034755885168724,wait_cost,1.0,3.0,351.61826749995816,None,ry1,1,2022-04-07_14h25.11.903,threat_forest,2021.2.3,60.07810152520136,False,28.0,0.3666666666666667,0.31726190476190474,-1.3400000000000003,-1.4008673469387758,0,0,0,0.7909278516690126,0.0034755885168724,0.24,0.24,0.4,0.6,-2.0,-1.6800000000000002,2.32,2.32,0.0,1.0,-1.0,4.0,0,0,0
10.0,0.0,10.0,0.0,2.0,0.0,2.0,0.0,,,,left,2.7780371999833733,360.08548349991906,ry1,341.95424019999336,345.46824770001695,360.08548349991906,None,False,3.0,['r'],False,0.24,0.4,0.4,2.0,1.0,0.9801625908629508,0.0019563714370369,wait_cost,1.0,2.0,359.08512259996496,None,ry1,1,2022-04-07_14h25.11.903,threat_forest,2021.2.3,60.07810152520136,False,28.0,0.3666666666666667,0.31726190476190474,-1.3400000000000003,-1.4008673469387758,0,0,0,1.021744635165235,0.0019563714370369,0.24,0.24,0.4,0.6,-2.0,-1.6800000000000002,1.3199999999999998,1.3199999999999998,0.0,1.0,-1.0,3.0,0,0,0
10.0,0.0,10.0,0.0,3.0,0.0,3.0,0.0,,,,left,1.2784497999818996,365.5354569000192,ry1,341.95424019999336,345.46824770001695,365.5354569000192,None,False,2.0,['r'],False,0.24,0.4,0.4,2.0,1.0,0.9801625908629508,-0.0045573333333333,wait_cost,1.0,1.0,364.88523659994826,None,ry1,1,2022-04-07_14h25.11.903,threat_forest,2021.2.3,60.07810152520136,False,28.0,0.3666666666666667,0.31726190476190474,-1.3400000000000003,-1.4008673469387758,0,0,0,0.24564825020067055,-0.0045573333333333,0.24,0.24,0.4,0.6,-2.0,-1.6800000000000002,0.31999999999999984,0.31999999999999984,0.0,1.0,-1.0,2.0,0,0,0
10.0,0.0,10.0,0.0,4.0,0.0,4.0,0.0,,,,right,1.0360535000218078,372.25222799996845,ry1,341.95424019999336,345.46824770001695,372.25222799996845,None,True,1.0,['r'],False,0.24,0.4,0.4,2.0,1.0,0.9801625908629508,0.0744,unsucc_cost,1.0,0.0,368.8352701999247,None,ry1,1,2022-04-07_14h25.11.903,threat_forest,2021.2.3,60.07810152520136,True,28.0,0.3666666666666667,0.31726190476190474,-1.3400000000000003,-1.4008673469387758,0,0,1,0.035418783451634454,0.0744,1.0,0.24,0.4,0.6,-2.0,-1.6800000000000002,-0.6800000000000002,0.0,0.0,1.0,-1.0,1.0,1,0,0
11.0,0.0,11.0,0.0,0.0,0.0,0.0,0.0,375.87618349993136,379.385421999963,None,left,1.5976658000145108,381.15286749997176,ry1,375.87618349993136,379.385421999963,381.15286749997176,None,False,5.0,['r'],False,0.4081632653061224,0.5714285714285714,0.2857142857142857,2.0,2.0,0.9885754083994552,-0.0170150236195817,wait_cost,1.0,4.0,,,ry1,1,2022-04-07_14h25.11.903,threat_forest,2021.2.3,60.07810152520136,False,64.0,0.5357142857142857,0.4511904761904762,-0.326530612244898,-0.8332653061224491,1,0,0,0.468543689060569,-0.0170150236195817,0.4081632653061224,0.4081632653061224,0.5714285714285714,0.7142857142857143,-0.5714285714285715,-0.653061224489796,4.346938775510204,4.346938775510204,0.0,2.0,-1.0,5.0,0,0,1
11.0,0.0,11.0,0.0,1.0,0.0,1.0,0.0,,,,left,1.301926500047557,387.4191183999647,ry1,387.4191183999647,None,382.7693309999304,384.76885659992695,True,4.0,['r'],True,0.5,0.5,0.0,0.0,2.0,0.6309297535714574,0.0943759482946438,unsucc_cost,0.0,2.0,384.76885659992695,None,ry1,1,2022-04-07_14h25.11.903,threat_forest,2021.2.3,60.07810152520136,True,64.0,0.5357142857142857,0.4511904761904762,-0.326530612244898,-0.8332653061224491,1,1,1,0.2638450906165502,0.0943759482946438,0.5,0.5,0.5,1.0,0.0,0.0,4.0,4.0,1.0,2.0,-1.0,4.0,0,1,1
11.0,0.0,11.0,0.0,2.0,0.0,2.0,0.0,,,,left,0.7293036999180913,391.65292239992414,ry1,391.65292239992414,None,382.7693309999304,384.76885659992695,True,2.0,['r'],True,0.5,0.5,0.0,0.0,2.0,0.6309297535714574,0.0546088098921367,succ_gain,0.0,4.0,390.7522883999627,None,ry1,1,2022-04-07_14h25.11.903,threat_forest,2021.2.3,60.07810152520136,True,64.0,0.5357142857142857,0.4511904761904762,-0.326530612244898,-0.8332653061224491,1,1,1,-0.3156650357591154,0.0546088098921367,0.5,0.5,0.5,1.0,0.0,0.0,2.0,2.0,1.0,2.0,-1.0,2.0,0,1,1
11.0,0.0,11.0,0.0,3.0,0.0,3.0,0.0,,,,left,1.1256963999476284,396.26938810001593,ry1,392.4025504000019,394.4023333999794,396.26938810001593,None,False,4.0,['r'],False,0.4081632653061224,0.5714285714285714,0.2857142857142857,2.0,2.0,0.9885754083994552,-0.0002517703993597,wait_cost,1.0,3.0,394.4023333999794,None,ry1,1,2022-04-07_14h25.11.903,threat_forest,2021.2.3,60.07810152520136,False,64.0,0.5357142857142857,0.4511904761904762,-0.326530612244898,-0.8332653061224491,1,0,0,0.11840186631685683,-0.0002517703993597,0.4081632653061224,0.4081632653061224,0.5714285714285714,0.7142857142857143,-0.5714285714285715,-0.653061224489796,3.3469387755102042,3.3469387755102042,0.0,2.0,1.0,4.0,0,0,1
11.0,0.0,11.0,0.0,4.0,0.0,4.0,0.0,,,,left,2.463954400038346,401.9193952999776,ry1,392.4025504000019,394.4023333999794,401.9193952999776,None,False,3.0,['r'],False,0.4081632653061224,0.5714285714285714,0.2857142857142857,2.0,2.0,0.9885754083994552,0.0701270304039983,wait_cost,1.0,2.0,399.41906639991794,None,ry1,1,2022-04-07_14h25.11.903,threat_forest,2021.2.3,60.07810152520136,False,64.0,0.5357142857142857,0.4511904761904762,-0.326530612244898,-0.8332653061224491,1,0,0,0.9017675390220825,0.0701270304039983,0.4081632653061224,0.4081632653061224,0.5714285714285714,0.7142857142857143,-0.5714285714285715,-0.653061224489796,2.3469387755102042,2.3469387755102042,0.0,2.0,-1.0,3.0,0,0,1
11.0,0.0,11.0,0.0,5.0,0.0,5.0,0.0,,,,left,1.1792366999434307,408.4863871999551,ry1,392.4025504000019,394.4023333999794,408.4863871999551,None,False,2.0,['r'],False,0.4081632653061224,0.5714285714285714,0.2857142857142857,2.0,2.0,0.9885754083994552,-0.0459183673469387,wait_cost,1.0,1.0,406.4025056000101,None,ry1,1,2022-04-07_14h25.11.903,threat_forest,2021.2.3,60.07810152520136,False,64.0,0.5357142857142857,0.4511904761904762,-0.326530612244898,-0.8332653061224491,1,0,0,0.1648673647157752,-0.0459183673469387,0.4081632653061224,0.4081632653061224,0.5714285714285714,0.7142857142857143,-0.5714285714285715,-0.653061224489796,1.346938775510204,1.346938775510204,0.0,2.0,-1.0,2.0,0,0,1
11.0,0.0,11.0,0.0,6.0,0.0,6.0,0.0,,,,left,0.9510590999852866,413.5028907000087,ry1,413.5028907000087,None,409.68616479996126,411.6859160999302,True,1.0,['r'],True,0.5,0.5,0.0,0.0,2.0,0.6309297535714574,0.5,succ_gain,0.0,3.0,411.6859160999302,None,ry1,1,2022-04-07_14h25.11.903,threat_forest,2021.2.3,60.07810152520136,True,64.0,0.5357142857142857,0.4511904761904762,-0.326530612244898,-0.8332653061224491,1,1,1,-0.050179073272734576,0.5,1.0,0.5,0.5,1.0,0.0,0.0,1.0,1.0,1.0,2.0,-1.0,1.0,1,1,1
11.0,0.0,11.0,0.0,7.0,0.0,7.0,0.0,,,,left,1.1366463999729604,417.20280999992974,ry1,414.4863616999937,416.4859990000259,417.20280999992974,None,False,3.0,['r'],False,0.4081632653061224,0.5714285714285714,0.2857142857142857,2.0,2.0,0.9885754083994552,-0.2857142857142857,wait_cost,1.0,2.0,416.4859990000259,None,ry1,1,2022-04-07_14h25.11.903,threat_forest,2021.2.3,60.07810152520136,False,64.0,0.5357142857142857,0.4511904761904762,-0.326530612244898,-0.8332653061224491,1,0,0,0.12808217253254853,-0.2857142857142857,0.0,0.4081632653061224,0.5714285714285714,0.7142857142857143,-0.5714285714285715,-0.653061224489796,2.3469387755102042,2.3469387755102042,0.0,2.0,1.0,3.0,0,0,1
12.0,0.0,12.0,0.0,0.0,0.0,0.0,0.0,422.1992802999448,425.6967253999319,None,left,1.0249323999742046,426.8363681000192,ry1,426.8363681000192,None,422.1992802999448,425.6967253999319,True,5.0,['r'],True,0.625,0.625,0.0,0.0,2.0,0.6021808102656677,0.0512514556375116,succ_gain,0.0,6.0,,,ry1,1,2022-04-07_14h25.11.903,threat_forest,2021.2.3,60.07810152520136,True,60.0,0.6458333333333333,0.5907738095238095,0.17592592592592587,-0.07530234315948606,1,1,1,0.0246266591708141,0.0512514556375116,0.625,0.625,0.625,1.0,0.5,0.5,5.5,5.5,1.0,2.0,-1.0,5.0,0,1,1
12.0,0.0,12.0,0.0,1.0,0.0,1.0,0.0,,,,None,,432.7867652999703,ry1,432.7867652999703,None,422.1992802999448,425.6967253999319,False,6.0,['r'],True,0.625,0.625,0.0,0.0,2.0,0.6021808102656677,0.0055837052896026,wait_cost,0.0,5.0,429.9028823999688,None,ry1,1,2022-04-07_14h25.11.903,threat_forest,2021.2.3,60.07810152520136,None,60.0,0.6458333333333333,0.5907738095238095,0.17592592592592587,-0.07530234315948606,1,1,0,,0.0055837052896026,0.625,0.625,0.625,1.0,0.5,0.5,6.5,6.0,1.0,2.0,1.0,6.0,0,1,1
12.0,0.0,12.0,0.0,2.0,0.0,2.0,0.0,,,,left,0.6721381000243127,440.2370028999867,ry1,440.2370028999867,None,422.1992802999448,425.6967253999319,True,5.0,['r'],True,0.625,0.625,0.0,0.0,2.0,0.6021808102656677,0.0812504672485717,unsucc_cost,0.0,3.0,437.7863062999677,None,ry1,1,2022-04-07_14h25.11.903,threat_forest,2021.2.3,60.07810152520136,True,60.0,0.6458333333333333,0.5907738095238095,0.17592592592592587,-0.07530234315948606,1,1,1,-0.39729145358388995,0.0812504672485717,0.625,0.625,0.625,1.0,0.5,0.5,5.5,5.5,1.0,2.0,-1.0,5.0,0,1,1
12.0,0.0,12.0,0.0,3.0,0.0,3.0,0.0,,,,left,1.9330661999993024,444.0884919000091,ry1,440.9368296000175,442.9364007000113,444.0884919000091,None,False,3.0,['r'],False,0.5185185185185185,0.6666666666666666,0.2222222222222222,2.0,2.0,0.9327883776363328,0.0317710181014625,wait_cost,1.0,2.0,442.9364007000113,None,ry1,1,2022-04-07_14h25.11.903,threat_forest,2021.2.3,60.07810152520136,False,60.0,0.6458333333333333,0.5907738095238095,0.17592592592592587,-0.07530234315948606,0,0,0,0.6591074469234226,0.0317710181014625,0.5185185185185185,0.5185185185185185,0.6666666666666666,0.7777777777777778,-1.1102230246251565e-16,-0.14814814814814825,2.8518518518518516,2.8518518518518516,0.0,2.0,-1.0,3.0,0,0,0
12.0,0.0,12.0,0.0,4.0,0.0,4.0,0.0,,,,left,0.9298807999584824,450.5034593999153,ry1,450.5034593999153,None,446.0533107999945,448.05315960000735,True,2.0,['r'],True,0.625,0.625,0.0,0.0,2.0,0.6021808102656677,0.0532407407407407,succ_gain,0.0,4.0,448.05315960000735,None,ry1,1,2022-04-07_14h25.11.903,threat_forest,2021.2.3,60.07810152520136,True,60.0,0.6458333333333333,0.5907738095238095,0.17592592592592587,-0.07530234315948606,1,1,1,-0.07269887313723275,0.0532407407407407,0.625,0.625,0.625,1.0,0.5,0.5,2.5,2.5,1.0,2.0,-1.0,2.0,0,1,1
12.0,0.0,12.0,0.0,5.0,0.0,5.0,0.0,,,,right,0.6514066000236198,455.3205356999533,ry1,455.3205356999533,None,446.0533107999945,448.05315960000735,False,4.0,['r'],True,0.625,0.625,0.0,0.0,2.0,0.6021808102656677,-0.1506076388888889,wait_cost,0.0,3.0,453.4532731999643,None,ry1,1,2022-04-07_14h25.11.903,threat_forest,2021.2.3,60.07810152520136,False,60.0,0.6458333333333333,0.5907738095238095,0.17592592592592587,-0.07530234315948606,1,1,0,-0.42862125413173846,-0.1506076388888889,0.0,0.625,0.625,1.0,0.5,0.5,4.5,4.5,1.0,2.0,1.0,4.0,0,1,1
12.0,0.0,12.0,0.0,6.0,0.0,6.0,0.0,,,,left,0.5134588999208063,460.3214392999653,ry1,456.00354599999264,458.0032391999848,460.3214392999653,None,False,3.0,['r'],False,0.5185185185185185,0.6666666666666666,0.2222222222222222,2.0,2.0,0.9327883776363328,-0.3332475994513031,wait_cost,1.0,2.0,458.0032391999848,None,ry1,1,2022-04-07_14h25.11.903,threat_forest,2021.2.3,60.07810152520136,False,60.0,0.6458333333333333,0.5907738095238095,0.17592592592592587,-0.07530234315948606,0,0,0,-0.6665852919194408,-0.3332475994513031,0.0,0.5185185185185185,0.6666666666666666,0.7777777777777778,-1.1102230246251565e-16,-0.14814814814814825,2.8518518518518516,2.8518518518518516,0.0,2.0,-1.0,3.0,0,0,0
12.0,0.0,12.0,0.0,7.0,0.0,7.0,0.0,,,,right,0.6064672999782488,465.3705529000145,ry1,465.3705529000145,None,460.85366089991294,462.8533537000185,False,2.0,['r'],True,0.625,0.625,0.0,0.0,2.0,0.6021808102656677,-0.375,wait_cost,0.0,1.0,462.8533537000185,None,ry1,1,2022-04-07_14h25.11.903,threat_forest,2021.2.3,60.07810152520136,False,60.0,0.6458333333333333,0.5907738095238095,0.17592592592592587,-0.07530234315948606,1,1,0,-0.5001044679983772,-0.375,0.0,0.625,0.625,1.0,0.5,0.5,2.5,2.5,1.0,2.0,-1.0,2.0,0,1,1
13.0,0.0,13.0,0.0,0.0,0.0,0.0,0.0,471.2742975999136,474.7868104999652,None,left,1.3964440999552608,475.8872629000107,ry1,471.2742975999136,474.7868104999652,475.8872629000107,None,False,5.0,['r'],False,0.4081632653061224,0.5714285714285714,0.2857142857142857,2.0,2.0,0.9885754083994552,-0.0170150236195817,wait_cost,1.0,4.0,,,ry1,1,2022-04-07_14h25.11.903,threat_forest,2021.2.3,60.07810152520136,False,58.0,0.5357142857142857,0.5907738095238095,-0.326530612244898,-0.07530234315948606,0,0,0,0.33392907692685275,-0.0170150236195817,0.4081632653061224,0.4081632653061224,0.5714285714285714,0.7142857142857143,-0.5714285714285715,-0.653061224489796,4.346938775510204,4.346938775510204,0.0,2.0,-1.0,5.0,0,0,0
13.0,0.0,13.0,0.0,1.0,0.0,1.0,0.0,,,,left,0.9424339999677612,480.57081689999904,ry1,480.57081689999904,None,477.303783099982,479.3037706000032,True,4.0,['r'],True,0.5,0.5,0.0,0.0,2.0,0.6309297535714574,0.0943759482946438,unsucc_cost,0.0,2.0,479.3037706000032,None,ry1,1,2022-04-07_14h25.11.903,threat_forest,2021.2.3,60.07810152520136,True,58.0,0.5357142857142857,0.5907738095238095,-0.326530612244898,-0.07530234315948606,1,0,1,-0.05928938867134974,0.0943759482946438,0.5,0.5,0.5,1.0,0.0,0.0,4.0,4.0,1.0,2.0,-1.0,4.0,0,0,1
13.0,0.0,13.0,0.0,2.0,0.0,2.0,0.0,,,,left,0.8003282999852672,484.9871978999581,ry1,484.9871978999581,None,477.303783099982,479.3037706000032,True,2.0,['r'],True,0.5,0.5,0.0,0.0,2.0,0.6309297535714574,0.0546088098921367,succ_gain,0.0,4.0,483.536983500002,None,ry1,1,2022-04-07_14h25.11.903,threat_forest,2021.2.3,60.07810152520136,True,58.0,0.5357142857142857,0.5907738095238095,-0.326530612244898,-0.07530234315948606,1,0,1,-0.2227332605134088,0.0546088098921367,0.5,0.5,0.5,1.0,0.0,0.0,2.0,2.0,1.0,2.0,-1.0,2.0,0,0,1
13.0,0.0,13.0,0.0,3.0,0.0,3.0,0.0,,,,left,2.042752700042911,491.3873041999759,ry1,485.8040365999332,487.80364940001164,491.3873041999759,None,False,4.0,['r'],False,0.4081632653061224,0.5714285714285714,0.2857142857142857,2.0,2.0,0.9885754083994552,-0.0002517703993597,wait_cost,1.0,3.0,487.8036494000117,None,ry1,1,2022-04-07_14h25.11.903,threat_forest,2021.2.3,60.07810152520136,False,58.0,0.5357142857142857,0.5907738095238095,-0.326530612244898,-0.07530234315948606,0,0,0,0.7142982610504568,-0.0002517703993597,0.4081632653061224,0.4081632653061224,0.5714285714285714,0.7142857142857143,-0.5714285714285715,-0.653061224489796,3.3469387755102042,3.3469387755102042,0.0,2.0,1.0,4.0,0,0,0
13.0,0.0,13.0,0.0,4.0,0.0,4.0,0.0,,,,left,0.9272604000288992,496.77072559995577,ry1,496.77072559995577,None,493.4541988999117,495.4538485999219,True,3.0,['r'],True,0.5,0.5,0.0,0.0,2.0,0.6309297535714574,0.25,unsucc_cost,0.0,1.0,495.4538485999219,None,ry1,1,2022-04-07_14h25.11.903,threat_forest,2021.2.3,60.07810152520136,True,58.0,0.5357142857142857,0.5907738095238095,-0.326530612244898,-0.07530234315948606,1,0,1,-0.07552084668299355,0.25,0.5,0.5,0.5,1.0,0.0,0.0,3.0,3.0,1.0,2.0,-1.0,3.0,0,0,1
13.0,0.0,13.0,0.0,5.0,0.0,5.0,0.0,,,,right,0.8774553999537602,500.72082249994855,ry1,497.7206813999219,499.7204454999883,500.72082249994855,None,True,1.0,['r'],False,0.4081632653061224,0.5714285714285714,0.2857142857142857,2.0,2.0,0.9885754083994552,0.4081632653061224,unsucc_cost,1.0,0.0,499.7204454999883,None,ry1,1,2022-04-07_14h25.11.903,threat_forest,2021.2.3,60.07810152520136,True,58.0,0.5357142857142857,0.5907738095238095,-0.326530612244898,-0.07530234315948606,0,0,1,-0.1307291511973356,0.4081632653061224,1.0,0.4081632653061224,0.5714285714285714,0.7142857142857143,-0.5714285714285715,-0.653061224489796,0.346938775510204,0.346938775510204,0.0,2.0,-1.0,1.0,1,0,0
14.0,0.0,14.0,0.0,0.0,0.0,0.0,0.0,504.5474329999415,508.0491380000021,None,left,0.9485154999420048,509.9714411000023,ry1,509.9714411000023,None,504.5474329999415,508.04913800000213,True,4.0,['p'],True,0.24,0.4,0.4,2.0,2.0,0.9801625908629508,0.0188358143999999,unsucc_cost,0.0,2.0,,,ry1,1,2022-04-07_14h25.11.903,threat_forest,2021.2.3,60.07810152520136,True,65.0,0.30000000000000004,0.41785714285714287,-1.5000000000000002,-0.9132653061224492,0,0,1,-0.052857148209746296,0.0188358143999999,0.24,0.24,0.4,0.6,-1.6,-1.4400000000000002,2.5599999999999996,2.5599999999999996,1.0,2.0,-1.0,4.0,0,0,0
14.0,0.0,14.0,0.0,1.0,0.0,1.0,0.0,,,,left,1.3494413000298664,516.7227545999922,ry1,510.93780129996594,512.9374547000043,516.7227545999922,None,False,2.0,['p'],False,0.16,0.2,0.2,2.0,2.0,0.8198746470064713,-0.00563328,wait_cost,1.0,1.0,512.9374547000043,None,ry1,1,2022-04-07_14h25.11.903,threat_forest,2021.2.3,60.07810152520136,False,65.0,0.30000000000000004,0.41785714285714287,-1.5000000000000002,-0.9132653061224492,0,0,0,0.2996906549603064,-0.00563328,0.16,0.16,0.2,0.8,-1.8000000000000003,-1.5600000000000003,0.4399999999999997,0.4399999999999997,0.0,2.0,-1.0,2.0,0,0,0
14.0,0.0,14.0,0.0,2.0,0.0,2.0,0.0,,,,left,0.807769599952735,523.3544986000052,ry1,523.3544986000052,None,518.104444299941,520.1042036999715,True,1.0,['p'],True,0.24,0.4,0.4,2.0,2.0,0.9801625908629508,0.0577919999999999,figh_cost,0.0,0.0,520.1042036999715,None,ry1,1,2022-04-07_14h25.11.903,threat_forest,2021.2.3,60.07810152520136,True,65.0,0.30000000000000004,0.41785714285714287,-1.5000000000000002,-0.9132653061224492,0,0,1,-0.213478409696974,0.0577919999999999,1.0,0.24,0.4,0.6,-1.6,-1.4400000000000002,-0.44000000000000017,0.0,1.0,2.0,-1.0,1.0,1,0,0
15.0,0.0,15.0,0.0,0.0,0.0,0.0,0.0,526.922549800016,530.4377267999807,None,left,0.6033529000123963,531.154859000002,ry1,531.154859000002,None,526.922549800016,530.4377267999807,True,5.0,['r'],True,0.5,0.5,0.0,0.0,2.0,0.6309297535714574,0.0898892961248285,succ_gain,0.0,6.0,,,ry1,1,2022-04-07_14h25.11.903,threat_forest,2021.2.3,60.07810152520136,True,49.0,0.5833333333333333,0.44166666666666665,-0.888888888888889,-1.1944444444444446,1,1,1,-0.5052530129564747,0.0898892961248285,0.5,0.5,0.5,1.0,0.0,0.0,5.0,5.0,1.0,2.0,-1.0,5.0,0,1,1
15.0,0.0,15.0,0.0,1.0,0.0,1.0,0.0,,,,left,2.0692760999081656,536.0382140999427,ry1,536.0382140999427,None,526.922549800016,530.4377267999807,True,6.0,['r'],True,0.5,0.5,0.0,0.0,2.0,0.6309297535714574,-0.0292365933641975,unsucc_cost,0.0,4.0,533.7877151999855,None,ry1,1,2022-04-07_14h25.11.903,threat_forest,2021.2.3,60.07810152520136,True,49.0,0.5833333333333333,0.44166666666666665,-0.888888888888889,-1.1944444444444446,1,1,1,0.7271988359251176,-0.0292365933641975,0.5,0.5,0.5,1.0,0.0,0.0,6.0,6.0,1.0,2.0,1.0,6.0,0,1,1
15.0,0.0,15.0,0.0,2.0,0.0,2.0,0.0,,,,left,0.6835641999496147,542.4217159999534,ry1,542.4217159999534,None,526.922549800016,530.4377267999807,True,4.0,['r'],True,0.5,0.5,0.0,0.0,2.0,0.6309297535714574,0.1141493055555555,succ_gain,0.0,6.0,540.138004999957,None,ry1,1,2022-04-07_14h25.11.903,threat_forest,2021.2.3,60.07810152520136,True,49.0,0.5833333333333333,0.44166666666666665,-0.888888888888889,-1.1944444444444446,1,1,1,-0.38043469899266175,0.1141493055555555,0.5,0.5,0.5,1.0,0.0,0.0,4.0,4.0,1.0,2.0,-1.0,4.0,0,1,1
15.0,0.0,15.0,0.0,3.0,0.0,3.0,0.0,,,,left,2.041234199889004,546.8047960000113,ry1,546.8047960000113,None,526.922549800016,530.4377267999807,True,6.0,['r'],True,0.5,0.5,0.0,0.0,2.0,0.6309297535714574,-0.1822916666666666,unsucc_cost,0.0,4.0,545.1214616999496,None,ry1,1,2022-04-07_14h25.11.903,threat_forest,2021.2.3,60.07810152520136,True,49.0,0.5833333333333333,0.44166666666666665,-0.888888888888889,-1.1944444444444446,1,1,1,0.7135546248630296,-0.1822916666666666,0.0,0.5,0.5,1.0,0.0,0.0,6.0,6.0,1.0,2.0,1.0,6.0,0,1,1
15.0,0.0,15.0,0.0,4.0,0.0,4.0,0.0,,,,left,0.781254900037311,553.4714428000152,ry1,553.4714428000152,None,526.922549800016,530.4377267999807,True,4.0,['r'],True,0.5,0.5,0.0,0.0,2.0,0.6309297535714574,0.1597222222222222,unsucc_cost,0.0,2.0,550.8716303999536,None,ry1,1,2022-04-07_14h25.11.903,threat_forest,2021.2.3,60.07810152520136,True,49.0,0.5833333333333333,0.44166666666666665,-0.888888888888889,-1.1944444444444446,1,1,1,-0.24685380590343692,0.1597222222222222,0.5,0.5,0.5,1.0,0.0,0.0,4.0,4.0,1.0,2.0,-1.0,4.0,0,1,1
15.0,0.0,15.0,0.0,5.0,0.0,5.0,0.0,,,,left,1.610326200025156,558.8720055000158,ry1,558.8720055000158,None,526.922549800016,530.4377267999807,True,2.0,['r'],True,0.5,0.5,0.0,0.0,2.0,0.6309297535714574,0.1388888888888888,unsucc_cost,0.0,0.0,556.2716676999116,None,ry1,1,2022-04-07_14h25.11.903,threat_forest,2021.2.3,60.07810152520136,True,49.0,0.5833333333333333,0.44166666666666665,-0.888888888888889,-1.1944444444444446,1,1,1,0.4764367671852756,0.1388888888888888,0.5,0.5,0.5,1.0,0.0,0.0,2.0,2.0,1.0,2.0,-1.0,2.0,0,1,1
16.0,0.0,16.0,0.0,0.0,0.0,0.0,0.0,565.92864129995,569.4382902999641,None,left,1.1773848999291658,571.624354199972,ry1,565.92864129995,569.4382902999641,571.624354199972,None,False,5.0,['p'],False,0.16,0.2,0.2,2.0,1.0,0.8198746470064713,-0.0074793948520252,wait_cost,1.0,4.0,,,ry1,1,2022-04-07_14h25.11.903,threat_forest,2021.2.3,60.07810152520136,False,71.0,0.35,0.4666666666666666,-1.7350000000000003,-1.3119444444444446,0,0,0,0.16329579260126834,-0.0074793948520252,0.16,0.16,0.2,0.8,-2.0,-1.7200000000000004,3.2799999999999994,3.2799999999999994,0.0,1.0,-1.0,5.0,0,0,0
16.0,0.0,16.0,0.0,1.0,0.0,1.0,0.0,,,,left,1.8275267001008613,578.5553274999838,ry1,578.5553274999838,None,572.8222191999666,574.8216772999149,True,4.0,['p'],True,0.25,0.5,0.5,1.0,1.0,0.9463946303571862,0.0188078231718747,figh_cost,0.0,1.0,574.8216772999149,None,ry1,1,2022-04-07_14h25.11.903,threat_forest,2021.2.3,60.07810152520136,True,71.0,0.35,0.4666666666666666,-1.7350000000000003,-1.3119444444444446,0,0,1,0.6029635227133787,0.0188078231718747,0.25,0.25,0.5,0.5,-2.0,-1.75,2.25,2.25,1.0,1.0,-1.0,4.0,0,0,0
16.0,0.0,16.0,0.0,2.0,0.0,2.0,0.0,,,,left,0.935169899952598,584.8392039999599,ry1,584.8392039999599,None,572.8222191999666,574.8216772999149,True,1.0,['p'],True,0.25,0.5,0.5,1.0,1.0,0.9463946303571862,0.013472802734375,figh_cost,0.0,0.0,582.405141199939,None,ry1,1,2022-04-07_14h25.11.903,threat_forest,2021.2.3,60.07810152520136,True,71.0,0.35,0.4666666666666666,-1.7350000000000003,-1.3119444444444446,0,0,1,-0.06702705502167745,0.013472802734375,1.0,0.25,0.5,0.5,-2.0,-1.75,-0.75,0.0,1.0,1.0,-1.0,1.0,1,0,0
17.0,0.0,17.0,0.0,0.0,0.0,0.0,0.0,589.3983040999155,592.9052754999138,None,left,0.907417600043118,594.5081816000165,ry1,589.3983040999155,592.9052754999138,594.5081816000165,None,False,4.0,['p'],False,0.16,0.2,0.2,2.0,2.0,0.8198746470064713,0.0047596004754687,wait_cost,1.0,3.0,,,ry1,1,2022-04-07_14h25.11.903,threat_forest,2021.2.3,60.07810152520136,False,8.0,0.35,0.35,-1.5300000000000002,-1.6325000000000003,1,0,0,-0.09715251581615506,0.0047596004754687,0.16,0.16,0.2,0.8,-1.8000000000000003,-1.5600000000000003,2.4399999999999995,2.4399999999999995,0.0,2.0,-1.0,4.0,0,0,1
17.0,0.0,17.0,0.0,1.0,0.0,1.0,0.0,,,,left,1.648551300051622,600.1062827999704,ry1,589.3983040999155,592.9052754999138,600.1062827999704,None,False,3.0,['p'],False,0.16,0.2,0.2,2.0,2.0,0.8198746470064713,0.0157060969937498,wait_cost,1.0,2.0,597.438718099962,None,ry1,1,2022-04-07_14h25.11.903,threat_forest,2021.2.3,60.07810152520136,False,8.0,0.35,0.35,-1.5300000000000002,-1.6325000000000003,1,0,0,0.4998969022760421,0.0157060969937498,0.16,0.16,0.2,0.8,-1.8000000000000003,-1.5600000000000003,1.4399999999999997,1.4399999999999997,0.0,2.0,-1.0,3.0,0,0,1
17.0,0.0,17.0,0.0,2.0,0.0,2.0,0.0,,,,left,0.6141401999630034,604.4723979999544,ry1,589.3983040999155,592.9052754999138,604.4723979999544,None,False,2.0,['p'],False,0.16,0.2,0.2,2.0,2.0,0.8198746470064713,-0.008327462,wait_cost,1.0,1.0,603.7720745999832,None,ry1,1,2022-04-07_14h25.11.903,threat_forest,2021.2.3,60.07810152520136,False,8.0,0.35,0.35,-1.5300000000000002,-1.6325000000000003,1,0,0,-0.48753203819834834,-0.008327462,0.16,0.16,0.2,0.8,-1.8000000000000003,-1.5600000000000003,0.4399999999999997,0.4399999999999997,0.0,2.0,-1.0,2.0,0,0,1
17.0,0.0,17.0,0.0,3.0,0.0,3.0,0.0,,,,left,0.7048396000172943,609.3892342000036,ry1,609.3892342000036,None,605.1058475999162,607.105473899981,True,1.0,['p'],True,0.25,0.5,0.5,1.0,2.0,0.9463946303571862,0.0740562499999999,figh_cost,0.0,0.0,607.105473899981,None,ry1,1,2022-04-07_14h25.11.903,threat_forest,2021.2.3,60.07810152520136,True,8.0,0.35,0.35,-1.5300000000000002,-1.6325000000000003,1,0,1,-0.3497850197619137,0.0740562499999999,1.0,0.25,0.5,0.5,-1.5,-1.5,-0.5,0.0,1.0,2.0,-1.0,1.0,1,0,1
0.0,0.0,0.0,0.0,0.0,0.0,0.0,0.0,12.00131630001124,15.513408500002695,None,right,1.0953778000548482,17.844972199993208,ry1,17.844972199993208,None,12.00131630001124,15.513408500002697,False,4.0,['p'],True,0.27,0.3,0.1,1.0,2.0,0.7963326591781347,0.0116156252879662,wait_cost,0.0,3.0,,,ry1,2,2022-04-07_14h35.37.538,threat_forest,2021.2.3,59.97951099664593,False,1.0,0.4833333333333333,0.41666666666666663,-0.7877777777777778,-1.158888888888889,1,0,0,0.09109932664289686,0.0116156252879662,0.27,0.27,0.3,0.9,-1.1,-1.02,2.98,2.98,1.0,2.0,-1.0,4.0,0,0,1
0.0,0.0,0.0,0.0,1.0,0.0,1.0,0.0,,,,right,0.7510713000083342,21.630829800036736,ry1,21.630829800036736,None,12.00131630001124,15.513408500002697,False,3.0,['p'],True,0.27,0.3,0.1,1.0,2.0,0.7963326591781347,0.0431681748711396,wait_cost,0.0,2.0,20.963602100033317,None,ry1,2,2022-04-07_14h35.37.538,threat_forest,2021.2.3,59.97951099664593,False,1.0,0.4833333333333333,0.41666666666666663,-0.7877777777777778,-1.158888888888889,1,0,0,-0.28625469163353656,0.0431681748711396,0.27,0.27,0.3,0.9,-1.1,-1.02,1.98,1.98,1.0,2.0,-1.0,3.0,0,0,1
0.0,0.0,0.0,0.0,2.0,0.0,2.0,0.0,,,,right,0.9838386999908836,25.163832499994896,ry1,22.41395790001843,24.41353760007769,25.163832499994896,None,True,2.0,['p'],False,0.4444444444444445,0.6666666666666666,0.3333333333333333,1.0,2.0,0.9656336071428248,0.0702178235965045,fight_cost,1.0,0.0,24.41353760007769,None,ry1,2,2022-04-07_14h35.37.538,threat_forest,2021.2.3,59.97951099664593,True,1.0,0.4833333333333333,0.41666666666666663,-0.7877777777777778,-1.158888888888889,1,1,1,-0.01629331814018218,0.0702178235965045,0.4444444444444445,0.4444444444444445,0.6666666666666666,0.6666666666666667,-0.3333333333333335,-0.5555555555555556,1.4444444444444444,1.4444444444444444,0.0,2.0,-1.0,2.0,0,1,1
1.0,0.0,1.0,0.0,0.0,0.0,0.0,0.0,31.35571270005312,34.86377809999976,None,right,0.6750987000996247,38.08120920008514,ry1,31.35571270005312,34.86377809999976,38.08120920008514,None,True,5.0,['p'],False,0.25,0.25,0.0,0.0,2.0,0.5118595071429148,0.0251257176546289,succ_gain,1.0,6.0,,,ry1,2,2022-04-07_14h35.37.538,threat_forest,2021.2.3,59.97951099664593,True,17.0,0.26785714285714285,0.3755952380952381,-1.2346938775510203,-1.0112358276643991,1,0,1,-0.3928963764292416,0.0251257176546289,0.25,0.25,0.25,1.0,-1.0,-1.0,4.0,4.0,0.0,2.0,-1.0,5.0,0,0,1
1.0,0.0,1.0,0.0,1.0,0.0,1.0,0.0,,,,left,1.2574564999667928,41.46406120003667,ry1,31.35571270005312,34.86377809999976,41.46406120003667,None,False,6.0,['p'],False,0.25,0.25,0.0,0.0,2.0,0.5118595071429148,-0.0742830914066285,wait_cost,1.0,5.0,40.78058960009366,None,ry1,2,2022-04-07_14h35.37.538,threat_forest,2021.2.3,59.97951099664593,False,17.0,0.26785714285714285,0.3755952380952381,-1.2346938775510203,-1.0112358276643991,1,0,0,0.2290910299216885,-0.0742830914066285,0.25,0.25,0.25,1.0,-1.0,-1.0,5.0,5.0,0.0,2.0,1.0,6.0,0,0,1
1.0,0.0,1.0,0.0,2.0,0.0,2.0,0.0,,,,left,2.151221500011161,47.64777370006777,ry1,31.35571270005312,34.86377809999976,47.64777370006777,None,False,5.0,['p'],False,0.25,0.25,0.0,0.0,2.0,0.5118595071429148,0.060495146856459,wait_cost,1.0,4.0,44.747376800049096,None,ry1,2,2022-04-07_14h35.37.538,threat_forest,2021.2.3,59.97951099664593,False,17.0,0.26785714285714285,0.3755952380952381,-1.2346938775510203,-1.0112358276643991,1,0,0,0.7660358203494803,0.060495146856459,0.25,0.25,0.25,1.0,-1.0,-1.0,4.0,4.0,0.0,2.0,-1.0,5.0,0,0,1
1.0,0.0,1.0,0.0,3.0,0.0,3.0,0.0,,,,right,1.0883444000501186,53.9676771000959,ry1,53.9676771000959,None,49.830999199999496,51.830660200095735,False,4.0,['p'],True,0.2040816326530612,0.2857142857142857,0.2857142857142857,2.0,2.0,0.9335459102197724,-0.0203160545730458,wait_cost,0.0,3.0,51.830660200095735,None,ry1,2,2022-04-07_14h35.37.538,threat_forest,2021.2.3,59.97951099664593,False,17.0,0.26785714285714285,0.3755952380952381,-1.2346938775510203,-1.0112358276643991,0,0,0,0.08465764250792909,-0.0203160545730458,0.2040816326530612,0.2040816326530612,0.2857142857142857,0.7142857142857143,-1.7142857142857144,-1.4693877551020407,2.5306122448979593,2.5306122448979593,1.0,2.0,-1.0,4.0,0,0,0
1.0,0.0,1.0,0.0,4.0,0.0,4.0,0.0,,,,right,1.2535310999955982,58.480938600027,ry1,55.080868200049736,57.080693700001575,58.480938600027,None,True,3.0,['p'],False,0.25,0.25,0.0,0.0,2.0,0.5118595071429148,0.1817602040816327,unsucc_cost,1.0,1.0,57.080693700001575,None,ry1,2,2022-04-07_14h35.37.538,threat_forest,2021.2.3,59.97951099664593,True,17.0,0.26785714285714285,0.3755952380952381,-1.2346938775510203,-1.0112358276643991,1,0,1,0.22596444883543795,0.1817602040816327,0.25,0.25,0.25,1.0,-1.0,-1.0,2.0,2.0,0.0,2.0,-1.0,3.0,0,0,1
1.0,0.0,1.0,0.0,5.0,0.0,5.0,0.0,,,,left,0.6507779998937622,64.4155572000891,ry1,64.4155572000891,None,59.76437059999444,61.76412170007825,True,1.0,['p'],True,0.2040816326530612,0.2857142857142857,0.2857142857142857,2.0,2.0,0.9335459102197724,0.2040816326530612,unsucc_cost,0.0,0.0,61.76412170007825,None,ry1,2,2022-04-07_14h35.37.538,threat_forest,2021.2.3,59.97951099664593,True,17.0,0.26785714285714285,0.3755952380952381,-1.2346938775510203,-1.0112358276643991,0,0,1,-0.4295867089201367,0.2040816326530612,1.0,0.2040816326530612,0.2857142857142857,0.7142857142857143,-1.7142857142857144,-1.4693877551020407,-0.46938775510204067,0.0,1.0,2.0,-1.0,1.0,1,0,0
2.0,0.0,2.0,0.0,0.0,0.0,0.0,0.0,70.153407100006,73.66425750008784,None,left,1.9381968000670893,75.24821590003558,ry1,75.24821590003558,None,70.153407100006,73.66425750008784,True,5.0,['r'],True,0.4444444444444445,0.6666666666666666,0.3333333333333333,1.0,1.0,0.9656336071428248,0.0480533547078672,fight_cost,0.0,2.0,,,ry1,2,2022-04-07_14h35.37.538,threat_forest,2021.2.3,59.97951099664593,True,5.0,0.4444444444444444,0.3561507936507936,-1.259259259259259,-1.2469765684051397,1,1,1,0.6617580563351569,0.0480533547078672,0.4444444444444445,0.4444444444444445,0.6666666666666666,0.6666666666666667,-1.0,-1.0,4.0,4.0,1.0,1.0,-1.0,5.0,0,1,1
2.0,0.0,2.0,0.0,1.0,0.0,1.0,0.0,,,,left,0.938436200027354,80.78162790008355,ry1,77.214773899992,79.21438830008265,80.78162790008355,None,False,2.0,['r'],False,0.1975308641975308,0.2222222222222222,0.1111111111111111,1.0,1.0,0.7461067557824965,-0.0127461107108468,wait_cost,1.0,1.0,79.21438830008265,None,ry1,2,2022-04-07_14h35.37.538,threat_forest,2021.2.3,59.97951099664593,False,5.0,0.4444444444444444,0.3561507936507936,-1.259259259259259,-1.2469765684051397,0,0,0,-0.06354040605768399,-0.0127461107108468,0.1975308641975308,0.1975308641975308,0.2222222222222222,0.8888888888888888,-1.6666666666666667,-1.5185185185185184,0.4814814814814816,0.4814814814814816,0.0,1.0,-1.0,2.0,0,0,0
2.0,0.0,2.0,0.0,2.0,0.0,2.0,0.0,,,,left,0.8157112000044435,84.66502610000316,ry1,77.214773899992,79.21438830008265,84.66502610000316,None,False,1.0,['r'],False,0.1975308641975308,0.2222222222222222,0.1111111111111111,1.0,1.0,0.7461067557824965,0.0308866266492168,wait_cost,1.0,0.0,83.74777700006962,None,ry1,2,2022-04-07_14h35.37.538,threat_forest,2021.2.3,59.97951099664593,False,5.0,0.4444444444444444,0.3561507936507936,-1.259259259259259,-1.2469765684051397,0,0,0,-0.20369490822622982,0.0308866266492168,1.0,0.1975308641975308,0.2222222222222222,0.8888888888888888,-1.6666666666666667,-1.5185185185185184,-0.5185185185185184,0.0,0.0,1.0,-1.0,1.0,1,0,0
3.0,0.0,3.0,0.0,0.0,0.0,0.0,0.0,90.60644220001996,94.11463740002364,None,right,2.4702309999847785,96.13330700004008,ry1,96.13330700004008,None,90.60644220001996,94.11463740002364,False,4.0,['p'],True,0.3950617283950617,0.4444444444444444,0.1111111111111111,1.0,2.0,0.8733423231021583,0.0168321275219163,wait_cost,0.0,3.0,,,ry1,2,2022-04-07_14h35.37.538,threat_forest,2021.2.3,59.97951099664593,False,51.0,0.5555555555555556,0.5,-0.2376543209876542,-0.7484567901234567,1,0,0,0.9043116685279957,0.0168321275219163,0.3950617283950617,0.3950617283950617,0.4444444444444444,0.8888888888888888,-0.5555555555555556,-0.5308641975308641,3.469135802469136,3.469135802469136,1.0,2.0,-1.0,4.0,0,0,1
3.0,0.0,3.0,0.0,1.0,0.0,1.0,0.0,,,,right,1.1575960000045598,103.76541660004295,ry1,103.76541660004295,None,90.60644220001996,94.11463740002364,False,3.0,['p'],True,0.3950617283950617,0.4444444444444444,0.1111111111111111,1.0,2.0,0.8733423231021583,0.0825315026664987,wait_cost,0.0,2.0,100.631340400083,None,ry1,2,2022-04-07_14h35.37.538,threat_forest,2021.2.3,59.97951099664593,False,51.0,0.5555555555555556,0.5,-0.2376543209876542,-0.7484567901234567,1,0,0,0.14634544090808876,0.0825315026664987,0.3950617283950617,0.3950617283950617,0.4444444444444444,0.8888888888888888,-0.5555555555555556,-0.5308641975308641,2.469135802469136,2.469135802469136,1.0,2.0,-1.0,3.0,0,0,1
3.0,0.0,3.0,0.0,2.0,0.0,2.0,0.0,,,,right,1.5024457999970764,108.44834190001713,ry1,104.94837800005917,106.94815460010432,108.44834190001713,None,True,2.0,['p'],False,0.5555555555555556,0.6666666666666666,0.1666666666666666,1.0,2.0,0.8929352898779306,0.0856144627281831,unsucc_cost,1.0,0.0,106.94815460010432,None,ry1,2,2022-04-07_14h35.37.538,threat_forest,2021.2.3,59.97951099664593,True,51.0,0.5555555555555556,0.5,-0.2376543209876542,-0.7484567901234567,1,1,1,0.40709431356331127,0.0856144627281831,0.5555555555555556,0.5555555555555556,0.6666666666666666,0.8333333333333334,0.16666666666666674,0.05555555555555569,2.055555555555556,2.055555555555556,0.0,2.0,-1.0,2.0,0,1,1
4.0,0.0,4.0,0.0,0.0,0.0,0.0,0.0,113.39172580000012,116.8982903000433,None,left,0.8735810000216588,117.86592460004611,ry1,117.86592460004611,None,113.39172580000012,116.8982903000433,True,5.0,['p'],True,0.4444444444444445,0.6666666666666666,0.3333333333333333,1.0,2.0,0.9656336071428248,0.0381387997233528,succ_gain,0.0,6.0,,,ry1,2,2022-04-07_14h35.37.538,threat_forest,2021.2.3,59.97951099664593,True,41.0,0.43333333333333335,0.49444444444444446,-0.9677777777777778,-0.6027160493827161,1,0,1,-0.13515442328746713,0.0381387997233528,0.4444444444444445,0.4444444444444445,0.6666666666666666,0.6666666666666667,-0.3333333333333335,-0.5555555555555556,4.444444444444445,4.444444444444445,1.0,2.0,-1.0,5.0,0,0,1
4.0,0.0,4.0,0.0,1.0,0.0,1.0,0.0,,,,left,0.7612146000610664,123.38485220004804,ry1,118.76527170010375,120.76498540001921,123.38485220004804,None,False,6.0,['p'],False,0.18,0.2,0.1,1.0,2.0,0.7058405977926203,-0.0717833742024759,wait_cost,1.0,5.0,120.7649854000192,None,ry1,2,2022-04-07_14h35.37.538,threat_forest,2021.2.3,59.97951099664593,False,41.0,0.43333333333333335,0.49444444444444446,-0.9677777777777778,-0.6027160493827161,0,0,0,-0.2728399634221351,-0.0717833742024759,0.18,0.18,0.2,0.9,-1.5000000000000002,-1.3800000000000001,4.62,4.62,0.0,2.0,1.0,6.0,0,0,0
4.0,0.0,4.0,0.0,2.0,0.0,2.0,0.0,,,,left,0.6087264999514446,129.7321562001016,ry1,118.76527170010375,120.76498540001921,129.7321562001016,None,False,5.0,['p'],False,0.18,0.2,0.1,1.0,2.0,0.7058405977926203,-0.0142855576771834,wait_cost,1.0,4.0,126.16503840009682,None,ry1,2,2022-04-07_14h35.37.538,threat_forest,2021.2.3,59.97951099664593,False,41.0,0.43333333333333335,0.49444444444444446,-0.9677777777777778,-0.6027160493827161,0,0,0,-0.4963862091063435,-0.0142855576771834,0.18,0.18,0.2,0.9,-1.5000000000000002,-1.3800000000000001,3.62,3.62,0.0,2.0,-1.0,5.0,0,0,0
4.0,0.0,4.0,0.0,3.0,0.0,3.0,0.0,,,,left,1.1805476000299675,134.9661858000327,ry1,118.76527170010375,120.76498540001921,134.9661858000327,None,False,4.0,['p'],False,0.18,0.2,0.1,1.0,2.0,0.7058405977926203,0.00742721042524,wait_cost,1.0,3.0,132.36518740002066,None,ry1,2,2022-04-07_14h35.37.538,threat_forest,2021.2.3,59.97951099664593,False,41.0,0.43333333333333335,0.49444444444444446,-0.9677777777777778,-0.6027160493827161,0,0,0,0.16597839865341016,0.00742721042524,0.18,0.18,0.2,0.9,-1.5000000000000002,-1.3800000000000001,2.62,2.62,0.0,2.0,-1.0,4.0,0,0,0
4.0,0.0,4.0,0.0,4.0,0.0,4.0,0.0,,,,left,1.1734749999595806,140.11560070002452,ry1,118.76527170010375,120.76498540001921,140.11560070002452,None,False,3.0,['p'],False,0.18,0.2,0.1,1.0,2.0,0.7058405977926203,0.0264666666666665,wait_cost,1.0,2.0,138.16523780010175,None,ry1,2,2022-04-07_14h35.37.538,threat_forest,2021.2.3,59.97951099664593,False,41.0,0.43333333333333335,0.49444444444444446,-0.9677777777777778,-0.6027160493827161,0,0,0,0.15996943225549295,0.0264666666666665,0.18,0.18,0.2,0.9,-1.5000000000000002,-1.3800000000000001,1.6199999999999999,1.6199999999999999,0.0,2.0,-1.0,3.0,0,0,0
4.0,0.0,4.0,0.0,5.0,0.0,5.0,0.0,,,,left,2.2266837999923155,146.64940640004352,ry1,118.76527170010375,120.76498540001921,146.64940640004352,None,False,2.0,['p'],False,0.18,0.2,0.1,1.0,2.0,0.7058405977926203,-0.1322222222222222,wait_cost,1.0,1.0,143.31530890008435,None,ry1,2,2022-04-07_14h35.37.538,threat_forest,2021.2.3,59.97951099664593,False,41.0,0.43333333333333335,0.49444444444444446,-0.9677777777777778,-0.6027160493827161,0,0,0,0.8005133934581686,-0.1322222222222222,0.18,0.18,0.2,0.9,-1.5000000000000002,-1.3800000000000001,0.6199999999999999,0.6199999999999999,0.0,2.0,-1.0,2.0,0,0,0
4.0,0.0,4.0,0.0,6.0,0.0,6.0,0.0,,,,right,1.2172333999769762,152.81584669998847,ry1,118.76527170010375,120.76498540001921,152.81584669998847,None,True,1.0,['p'],False,0.18,0.2,0.1,1.0,2.0,0.7058405977926203,0.1799999999999999,unsucc_cost,1.0,0.0,150.89883469999768,None,ry1,2,2022-04-07_14h35.37.538,threat_forest,2021.2.3,59.97951099664593,True,41.0,0.43333333333333335,0.49444444444444446,-0.9677777777777778,-0.6027160493827161,0,0,1,0.19658057867158332,0.1799999999999999,1.0,0.18,0.2,0.9,-1.5000000000000002,-1.3800000000000001,-0.3800000000000001,0.0,0.0,2.0,-1.0,1.0,1,0,0
5.0,0.0,5.0,0.0,0.0,0.0,0.0,0.0,158.83758520008996,162.3490085999947,None,right,1.211233300040476,165.26638400007505,ry1,158.83758520008996,162.3490085999947,165.26638400007505,None,True,5.0,['p'],False,0.5,0.5,0.0,0.0,2.0,0.6309297535714574,0.0540215703294548,unsucc_cost,1.0,3.0,,,ry1,2,2022-04-07_14h35.37.538,threat_forest,2021.2.3,59.97951099664593,True,14.0,0.5357142857142857,0.4845238095238095,-0.326530612244898,-0.647154195011338,1,1,1,0.1916390967515082,0.0540215703294548,0.5,0.5,0.5,1.0,0.0,0.0,5.0,5.0,0.0,2.0,-1.0,5.0,0,1,1
5.0,0.0,5.0,0.0,1.0,0.0,1.0,0.0,,,,right,0.9487352999858558,170.83582999999635,ry1,170.83582999999635,None,166.49920710001606,168.49918150005396,False,3.0,['p'],True,0.4081632653061224,0.5714285714285714,0.2857142857142857,2.0,2.0,0.9885754083994552,0.0633701866529412,wait_cost,0.0,2.0,168.49918150005396,None,ry1,2,2022-04-07_14h35.37.538,threat_forest,2021.2.3,59.97951099664593,False,14.0,0.5357142857142857,0.4845238095238095,-0.326530612244898,-0.647154195011338,0,0,0,-0.052625444478386435,0.0633701866529412,0.4081632653061224,0.4081632653061224,0.5714285714285714,0.7142857142857143,-0.5714285714285715,-0.653061224489796,2.3469387755102042,2.3469387755102042,1.0,2.0,-1.0,3.0,0,0,0
5.0,0.0,5.0,0.0,2.0,0.0,2.0,0.0,,,,right,0.955266200006008,177.5827234000899,ry1,171.81604240008164,173.81585200002883,177.5827234000899,None,True,2.0,['p'],False,0.5,0.5,0.0,0.0,2.0,0.6309297535714574,0.0546088098921367,succ_gain,1.0,4.0,173.81585200002883,None,ry1,2,2022-04-07_14h35.37.538,threat_forest,2021.2.3,59.97951099664593,True,14.0,0.5357142857142857,0.4845238095238095,-0.326530612244898,-0.647154195011338,1,1,1,-0.04576523388135927,0.0546088098921367,0.5,0.5,0.5,1.0,0.0,0.0,2.0,2.0,0.0,2.0,-1.0,2.0,0,1,1
5.0,0.0,5.0,0.0,3.0,0.0,3.0,0.0,,,,right,0.925592500017956,183.8172722000163,ry1,183.8172722000163,None,178.56610450008884,180.56599080003798,False,4.0,['p'],True,0.4081632653061224,0.5714285714285714,0.2857142857142857,2.0,2.0,0.9885754083994552,-0.0002517703993597,wait_cost,0.0,3.0,180.565990800038,None,ry1,2,2022-04-07_14h35.37.538,threat_forest,2021.2.3,59.97951099664593,False,14.0,0.5357142857142857,0.4845238095238095,-0.326530612244898,-0.647154195011338,0,0,0,-0.07732120596830301,-0.0002517703993597,0.4081632653061224,0.4081632653061224,0.5714285714285714,0.7142857142857143,-0.5714285714285715,-0.653061224489796,3.3469387755102042,3.3469387755102042,1.0,2.0,1.0,4.0,0,0,0
5.0,0.0,5.0,0.0,4.0,0.0,4.0,0.0,,,,right,0.697739600087516,187.4666991000995,ry1,187.4666991000995,None,178.56610450008884,180.56599080003798,False,3.0,['p'],True,0.4081632653061224,0.5714285714285714,0.2857142857142857,2.0,2.0,0.9885754083994552,0.0701270304039983,wait_cost,0.0,2.0,186.76627950009424,None,ry1,2,2022-04-07_14h35.37.538,threat_forest,2021.2.3,59.97951099664593,False,14.0,0.5357142857142857,0.4845238095238095,-0.326530612244898,-0.647154195011338,0,0,0,-0.3599093116033117,0.0701270304039983,0.4081632653061224,0.4081632653061224,0.5714285714285714,0.7142857142857143,-0.5714285714285715,-0.653061224489796,2.3469387755102042,2.3469387755102042,1.0,2.0,-1.0,3.0,0,0,0
5.0,0.0,5.0,0.0,5.0,0.0,5.0,0.0,,,,right,0.5112423000391573,193.68348520004656,ry1,188.1828814999899,190.1826657000929,193.68348520004656,None,True,2.0,['p'],False,0.5,0.5,0.0,0.0,2.0,0.6309297535714574,0.0459183673469387,unsucc_cost,1.0,0.0,190.1826657000929,None,ry1,2,2022-04-07_14h35.37.538,threat_forest,2021.2.3,59.97951099664593,True,14.0,0.5357142857142857,0.4845238095238095,-0.326530612244898,-0.647154195011338,1,1,1,-0.6709116327866474,0.0459183673469387,0.5,0.5,0.5,1.0,0.0,0.0,2.0,2.0,0.0,2.0,-1.0,2.0,0,1,1
6.0,0.0,6.0,0.0,0.0,0.0,0.0,0.0,197.46762850007508,200.9828206000384,None,left,0.9725664000725374,203.51692940003704,ry1,203.51692940003704,None,197.46762850007508,200.9828206000384,True,4.0,['p'],True,0.25,0.25,0.0,0.0,1.0,0.5118595071429148,0.013244588621374,unsucc_cost,0.0,2.0,,,ry1,2,2022-04-07_14h35.37.538,threat_forest,2021.2.3,59.97951099664593,True,20.0,0.4583333333333333,0.49702380952380953,-1.625,-0.9757653061224489,0,0,1,-0.027816928110802424,0.013244588621374,0.25,0.25,0.25,1.0,-1.25,-1.25,2.75,2.75,1.0,1.0,-1.0,4.0,0,0,0
6.0,0.0,6.0,0.0,1.0,0.0,1.0,0.0,,,,left,1.4643583000870422,208.5169618000509,ry1,204.5164375000168,206.51630760007538,208.5169618000509,None,False,2.0,['p'],False,0.2222222222222222,0.6666666666666666,0.6666666666666666,2.0,1.0,0.77250688571426,0.0020522694729823,wait_cost,1.0,1.0,206.51630760007535,None,ry1,2,2022-04-07_14h35.37.538,threat_forest,2021.2.3,59.97951099664593,False,20.0,0.4583333333333333,0.49702380952380953,-1.625,-0.9757653061224489,0,0,0,0.38141712609166356,0.0020522694729823,0.2222222222222222,0.2222222222222222,0.6666666666666666,0.33333333333333337,-2.0,-2.0,0.0,0.0,0.0,1.0,-1.0,2.0,0,0,0
6.0,0.0,6.0,0.0,2.0,0.0,2.0,0.0,,,,left,0.70730090001598,215.0999480000464,ry1,215.0999480000464,None,210.00019700010307,211.99965170002542,True,1.0,['p'],True,0.25,0.25,0.0,0.0,1.0,0.5118595071429148,0.0158222967705118,unsucc_cost,0.0,0.0,211.99965170002545,None,ry1,2,2022-04-07_14h35.37.538,threat_forest,2021.2.3,59.97951099664593,True,20.0,0.4583333333333333,0.49702380952380953,-1.625,-0.9757653061224489,0,0,1,-0.34629910247390217,0.0158222967705118,1.0,0.25,0.25,1.0,-1.25,-1.25,-0.25,0.0,1.0,1.0,-1.0,1.0,1,0,0
7.0,0.0,7.0,0.0,0.0,0.0,0.0,0.0,219.28855420008767,222.7998215000844,None,right,2.0875991999637336,226.1341422999976,ry1,219.28855420008767,222.79982150008436,226.1341422999976,None,True,5.0,['p'],False,0.4444444444444445,0.6666666666666666,0.3333333333333333,1.0,2.0,0.9656336071428248,0.0253010211857948,succ_gain,1.0,6.0,,,ry1,2,2022-04-07_14h35.37.538,threat_forest,2021.2.3,59.97951099664593,True,25.0,0.4444444444444444,0.45138888888888884,-0.8333333333333334,-1.2291666666666667,1,0,1,0.7360146975545,0.0253010211857948,0.4444444444444445,0.4444444444444445,0.6666666666666666,0.6666666666666667,-0.3333333333333335,-0.5555555555555556,4.444444444444445,4.444444444444445,0.0,2.0,-1.0,5.0,0,0,1
7.0,0.0,7.0,0.0,1.0,0.0,1.0,0.0,,,,left,0.612470000050962,232.91729820007455,ry1,219.28855420008767,222.79982150008436,232.91729820007455,None,False,6.0,['p'],False,0.4444444444444445,0.6666666666666666,0.3333333333333333,1.0,2.0,0.9656336071428248,-0.0736168267032464,wait_cost,1.0,5.0,230.2499560000142,None,ry1,2,2022-04-07_14h35.37.538,threat_forest,2021.2.3,59.97951099664593,False,25.0,0.4444444444444444,0.45138888888888884,-0.8333333333333334,-1.2291666666666667,1,0,0,-0.4902553172714238,-0.0736168267032464,0.4444444444444445,0.4444444444444445,0.6666666666666666,0.6666666666666667,-0.3333333333333335,-0.5555555555555556,5.444444444444445,5.444444444444445,0.0,2.0,1.0,6.0,0,0,1
7.0,0.0,7.0,0.0,2.0,0.0,2.0,0.0,,,,right,2.1184445000253618,238.56816760008223,ry1,238.56816760008223,None,233.55041350005197,235.5500677000964,False,5.0,['p'],True,0.2222222222222222,0.2222222222222222,0.0,0.0,2.0,0.4821593609696809,0.0051440329218107,wait_cost,0.0,4.0,235.5500677000964,None,ry1,2,2022-04-07_14h35.37.538,threat_forest,2021.2.3,59.97951099664593,False,25.0,0.4444444444444444,0.45138888888888884,-0.8333333333333334,-1.2291666666666667,1,0,0,0.7506820929718317,0.0051440329218107,0.2222222222222222,0.2222222222222222,0.2222222222222222,1.0,-1.1111111111111112,-1.1111111111111112,3.888888888888889,3.888888888888889,1.0,2.0,-1.0,5.0,0,0,1
7.0,0.0,7.0,0.0,3.0,0.0,3.0,0.0,,,,right,2.1520099999615923,244.63446269999255,ry1,244.63446269999255,None,233.55041350005197,235.5500677000964,False,4.0,['p'],True,0.2222222222222222,0.2222222222222222,0.0,0.0,2.0,0.4821593609696809,0.0246913580246913,wait_cost,0.0,3.0,242.71683380007744,None,ry1,2,2022-04-07_14h35.37.538,threat_forest,2021.2.3,59.97951099664593,False,25.0,0.4444444444444444,0.45138888888888884,-0.8333333333333334,-1.2291666666666667,1,0,0,0.7664022891110428,0.0246913580246913,0.2222222222222222,0.2222222222222222,0.2222222222222222,1.0,-1.1111111111111112,-1.1111111111111112,2.888888888888889,2.888888888888889,1.0,2.0,-1.0,4.0,0,0,1
7.0,0.0,7.0,0.0,4.0,0.0,4.0,0.0,,,,right,1.074808400007896,252.4010238000192,ry1,252.4010238000192,None,233.55041350005197,235.5500677000964,False,3.0,['p'],True,0.2222222222222222,0.2222222222222222,0.0,0.0,2.0,0.4821593609696809,0.0925925925925925,wait_cost,0.0,2.0,248.81695280002896,None,ry1,2,2022-04-07_14h35.37.538,threat_forest,2021.2.3,59.97951099664593,False,25.0,0.4444444444444444,0.45138888888888884,-0.8333333333333334,-1.2291666666666667,1,0,0,0.07214241314352299,0.0925925925925925,0.2222222222222222,0.2222222222222222,0.2222222222222222,1.0,-1.1111111111111112,-1.1111111111111112,1.8888888888888888,1.8888888888888888,1.0,2.0,-1.0,3.0,0,0,1
7.0,0.0,7.0,0.0,5.0,0.0,5.0,0.0,,,,right,1.5006843000883237,257.0842745000264,ry1,257.0842745000264,None,233.55041350005197,235.5500677000964,False,2.0,['p'],True,0.2222222222222222,0.2222222222222222,0.0,0.0,2.0,0.4821593609696809,-0.111111111111111,wait_cost,0.0,1.0,255.50040810008068,None,ry1,2,2022-04-07_14h35.37.538,threat_forest,2021.2.3,59.97951099664593,False,25.0,0.4444444444444444,0.45138888888888884,-0.8333333333333334,-1.2291666666666667,1,0,0,0.405921204139437,-0.111111111111111,0.2222222222222222,0.2222222222222222,0.2222222222222222,1.0,-1.1111111111111112,-1.1111111111111112,0.8888888888888888,0.8888888888888888,1.0,2.0,-1.0,2.0,0,0,1
7.0,0.0,7.0,0.0,6.0,0.0,6.0,0.0,,,,right,0.8534396999748424,262.167978100013,ry1,258.6009214000078,260.60053210007027,262.167978100013,None,True,1.0,['p'],False,0.4444444444444445,0.6666666666666666,0.3333333333333333,1.0,2.0,0.9656336071428248,0.4444444444444444,succ_gain,1.0,3.0,260.60053210007027,None,ry1,2,2022-04-07_14h35.37.538,threat_forest,2021.2.3,59.97951099664593,True,25.0,0.4444444444444444,0.45138888888888884,-0.8333333333333334,-1.2291666666666667,1,0,1,-0.1584803895365875,0.4444444444444444,1.0,0.4444444444444445,0.6666666666666666,0.6666666666666667,-0.3333333333333335,-0.5555555555555556,0.4444444444444444,0.4444444444444444,0.0,2.0,-1.0,1.0,1,0,1
7.0,0.0,7.0,0.0,7.0,0.0,7.0,0.0,,,,right,0.6002257999498397,265.68805670004804,ry1,265.68805670004804,None,263.0507130000042,265.0506623000838,False,3.0,['p'],True,0.2222222222222222,0.2222222222222222,0.0,0.0,2.0,0.4821593609696809,0.0,wait_cost,0.0,2.0,265.0506623000838,None,ry1,2,2022-04-07_14h35.37.538,threat_forest,2021.2.3,59.97951099664593,False,25.0,0.4444444444444444,0.45138888888888884,-0.8333333333333334,-1.2291666666666667,1,0,0,-0.510449361311854,0.0,0.0,0.2222222222222222,0.2222222222222222,1.0,-1.1111111111111112,-1.1111111111111112,1.8888888888888888,1.8888888888888888,1.0,2.0,1.0,3.0,0,0,1
8.0,0.0,8.0,0.0,0.0,0.0,0.0,0.0,269.06986970000435,272.5839463000884,None,right,1.5337286000140011,274.2013409000356,ry1,269.06986970000435,272.5839463000884,274.2013409000356,None,True,4.0,['p'],False,0.3333333333333333,0.3333333333333333,0.0,0.0,1.0,0.5793801642856949,0.0296451863383504,unsucc_cost,1.0,2.0,,,ry1,2,2022-04-07_14h35.37.538,threat_forest,2021.2.3,59.97951099664593,True,43.0,0.41666666666666663,0.4305555555555555,-1.375,-1.1041666666666667,1,0,1,0.4277017642245364,0.0296451863383504,0.3333333333333333,0.3333333333333333,0.3333333333333333,1.0,-1.0000000000000002,-1.0000000000000002,3.0,3.0,0.0,1.0,-1.0,4.0,0,0,1
8.0,0.0,8.0,0.0,1.0,0.0,1.0,0.0,,,,right,1.7514675999991596,278.3679189000977,ry1,278.3679189000977,None,275.7678423000034,277.76727430010214,False,2.0,['p'],True,0.25,0.5,0.5,2.0,1.0,0.9463946303571862,0.0017285445099505,wait_cost,0.0,1.0,277.76727430010214,None,ry1,2,2022-04-07_14h35.37.538,threat_forest,2021.2.3,59.97951099664593,False,43.0,0.41666666666666663,0.4305555555555555,-1.375,-1.1041666666666667,0,0,0,0.5604540650539094,0.0017285445099505,0.25,0.25,0.5,0.5,-2.0,-1.75,0.25,0.25,1.0,1.0,-1.0,2.0,0,0,0
8.0,0.0,8.0,0.0,2.0,0.0,2.0,0.0,,,,left,1.1235286999726668,284.1183643999975,ry1,284.1183643999975,None,275.7678423000034,277.76727430010214,True,1.0,['p'],True,0.25,0.5,0.5,2.0,1.0,0.9463946303571862,0.0261140046296295,fight_cost,0.0,0.0,282.1507907999912,None,ry1,2,2022-04-07_14h35.37.538,threat_forest,2021.2.3,59.97951099664593,True,43.0,0.41666666666666663,0.4305555555555555,-1.375,-1.1041666666666667,0,0,1,0.11647435746398604,0.0261140046296295,1.0,0.25,0.5,0.5,-2.0,-1.75,-0.75,0.0,1.0,1.0,-1.0,1.0,1,0,0
9.0,0.0,9.0,0.0,0.0,0.0,0.0,0.0,287.8235738000367,291.33427870005835,None,right,1.351985300076194,294.7678472000407,ry1,294.7678472000407,None,287.8235738000367,291.33427870005835,False,5.0,['p'],True,0.3061224489795918,0.4285714285714285,0.2857142857142857,2.0,2.0,0.9885754083994552,-0.0154423019709537,wait_cost,0.0,4.0,,,ry1,2,2022-04-07_14h35.37.538,threat_forest,2021.2.3,59.97951099664593,False,33.0,0.41428571428571426,0.41547619047619044,-0.7306122448979593,-1.0528061224489798,0,0,0,0.30157410483695535,-0.0154423019709537,0.3061224489795918,0.3061224489795918,0.4285714285714285,0.7142857142857143,-1.1428571428571432,-1.0612244897959187,3.9387755102040813,3.9387755102040813,1.0,2.0,-1.0,5.0,0,0,0
9.0,0.0,9.0,0.0,1.0,0.0,1.0,0.0,,,,right,0.9951398000121116,301.03516440000385,ry1,301.03516440000385,None,287.8235738000367,291.33427870005835,False,4.0,['p'],True,0.3061224489795918,0.4285714285714285,0.2857142857142857,2.0,2.0,0.9885754083994552,0.0155675818673535,wait_cost,0.0,3.0,298.1510066000046,None,ry1,2,2022-04-07_14h35.37.538,threat_forest,2021.2.3,59.97951099664593,False,33.0,0.41428571428571426,0.41547619047619044,-0.7306122448979593,-1.0528061224489798,0,0,0,-0.0048720491683643275,0.0155675818673535,0.3061224489795918,0.3061224489795918,0.4285714285714285,0.7142857142857143,-1.1428571428571432,-1.0612244897959187,2.9387755102040813,2.9387755102040813,1.0,2.0,-1.0,4.0,0,0,0
9.0,0.0,9.0,0.0,2.0,0.0,2.0,0.0,,,,right,1.308977099950425,307.2353776000673,ry1,307.2353776000673,None,287.8235738000367,291.33427870005835,False,3.0,['p'],True,0.3061224489795918,0.4285714285714285,0.2857142857142857,2.0,2.0,0.9885754083994552,0.0706120338759307,wait_cost,0.0,2.0,304.051193100051,None,ry1,2,2022-04-07_14h35.37.538,threat_forest,2021.2.3,59.97951099664593,False,33.0,0.41428571428571426,0.41547619047619044,-0.7306122448979593,-1.0528061224489798,0,0,0,0.2692459924664279,0.0706120338759307,0.3061224489795918,0.3061224489795918,0.4285714285714285,0.7142857142857143,-1.1428571428571432,-1.0612244897959187,1.9387755102040813,1.9387755102040813,1.0,2.0,-1.0,3.0,0,0,0
9.0,0.0,9.0,0.0,3.0,0.0,3.0,0.0,,,,right,1.1663654000731185,312.23583670007065,ry1,308.5681323000463,310.567967900075,312.23583670007065,None,True,2.0,['p'],False,0.4,0.4,0.0,0.0,2.0,0.6126016192893442,0.0498331562529219,unsucc_cost,1.0,0.0,310.567967900075,None,ry1,2,2022-04-07_14h35.37.538,threat_forest,2021.2.3,59.97951099664593,True,33.0,0.41428571428571426,0.41547619047619044,-0.7306122448979593,-1.0528061224489798,1,0,1,0.15389241797178052,0.0498331562529219,0.4,0.4,0.4,1.0,-0.3999999999999999,-0.3999999999999999,1.6,1.6,0.0,2.0,-1.0,2.0,0,0,1
10.0,0.0,10.0,0.0,0.0,0.0,0.0,0.0,318.4691557000624,321.9680046000285,None,left,1.9427937000291424,324.55181860004086,ry1,318.4691557000624,321.9680046000285,324.55181860004086,None,False,5.0,['p'],False,0.2222222222222222,0.6666666666666666,0.6666666666666666,2.0,1.0,0.77250688571426,-0.0238664193203007,wait_cost,1.0,4.0,,,ry1,2,2022-04-07_14h35.37.538,threat_forest,2021.2.3,59.97951099664593,False,66.0,0.5,0.45714285714285713,-1.5,-1.1153061224489798,0,0,0,0.6641269887567617,-0.0238664193203007,0.2222222222222222,0.2222222222222222,0.6666666666666666,0.33333333333333337,-2.0,-2.0,3.0,3.0,0.0,1.0,-1.0,5.0,0,0,0
10.0,0.0,10.0,0.0,1.0,0.0,1.0,0.0,,,,left,1.4290769000072032,329.0855698999949,ry1,329.0855698999949,None,326.51849620009307,328.5181491000112,True,4.0,['p'],True,0.3333333333333333,0.3333333333333333,0.0,0.0,1.0,0.5793801642856949,0.0435972666768277,unsucc_cost,0.0,2.0,328.5181491000112,None,ry1,2,2022-04-07_14h35.37.538,threat_forest,2021.2.3,59.97951099664593,True,66.0,0.5,0.45714285714285713,-1.5,-1.1153061224489798,1,0,1,0.35702871136070047,0.0435972666768277,0.3333333333333333,0.3333333333333333,0.3333333333333333,1.0,-1.0000000000000002,-1.0000000000000002,3.0,3.0,1.0,1.0,-1.0,4.0,0,0,1
10.0,0.0,10.0,0.0,2.0,0.0,2.0,0.0,,,,left,1.7238971000770107,334.2520877000643,ry1,330.5350887000095,332.534772300045,334.2520877000643,None,False,2.0,['p'],False,0.2222222222222222,0.6666666666666666,0.6666666666666666,2.0,1.0,0.77250688571426,0.0048344383478128,wait_cost,1.0,1.0,332.534772300045,None,ry1,2,2022-04-07_14h35.37.538,threat_forest,2021.2.3,59.97951099664593,False,66.0,0.5,0.45714285714285713,-1.5,-1.1153061224489798,0,0,0,0.5445874837299054,0.0048344383478128,0.2222222222222222,0.2222222222222222,0.6666666666666666,0.33333333333333337,-2.0,-2.0,0.0,0.0,0.0,1.0,-1.0,2.0,0,0,0
10.0,0.0,10.0,0.0,3.0,0.0,3.0,0.0,,,,left,1.0798601999413222,339.03571860003285,ry1,339.03571860003285,None,336.0018367000157,338.0017534000799,True,1.0,['p'],True,0.3333333333333333,0.3333333333333333,0.0,0.0,1.0,0.5793801642856949,0.0381515775034293,succ_gain,0.0,2.0,338.0017534000799,None,ry1,2,2022-04-07_14h35.37.538,threat_forest,2021.2.3,59.97951099664593,True,66.0,0.5,0.45714285714285713,-1.5,-1.1153061224489798,1,0,1,0.07683158825869041,0.0381515775034293,1.0,0.3333333333333333,0.3333333333333333,1.0,-1.0000000000000002,-1.0000000000000002,-2.220446049250313e-16,0.0,1.0,1.0,-1.0,1.0,1,0,1
10.0,0.0,10.0,0.0,4.0,0.0,4.0,0.0,,,,left,1.2148360999999568,342.9355806000531,ry1,340.1351755000651,342.1351367000025,342.9355806000531,None,False,2.0,['p'],False,0.2222222222222222,0.6666666666666666,0.6666666666666666,2.0,1.0,0.77250688571426,0.0066872427983537,wait_cost,1.0,1.0,342.1351367000025,None,ry1,2,2022-04-07_14h35.37.538,threat_forest,2021.2.3,59.97951099664593,False,66.0,0.5,0.45714285714285713,-1.5,-1.1153061224489798,0,0,0,0.19460917057369992,0.0066872427983537,0.2222222222222222,0.2222222222222222,0.6666666666666666,0.33333333333333337,-2.0,-2.0,0.0,0.0,0.0,1.0,1.0,2.0,0,0,0
10.0,0.0,10.0,0.0,5.0,0.0,5.0,0.0,,,,left,1.0127212000079453,347.15262619999703,ry1,347.15262619999703,None,344.1686022999929,346.16859290003777,True,1.0,['p'],True,0.3333333333333333,0.3333333333333333,0.0,0.0,1.0,0.5793801642856949,0.1018518518518518,unsucc_cost,0.0,0.0,346.16859290003777,None,ry1,2,2022-04-07_14h35.37.538,threat_forest,2021.2.3,59.97951099664593,True,66.0,0.5,0.45714285714285713,-1.5,-1.1153061224489798,1,0,1,0.012640965281298653,0.1018518518518518,1.0,0.3333333333333333,0.3333333333333333,1.0,-1.0000000000000002,-1.0000000000000002,-2.220446049250313e-16,0.0,1.0,1.0,-1.0,1.0,1,0,1
11.0,0.0,11.0,0.0,0.0,0.0,0.0,0.0,350.8124064001022,354.318541900022,None,left,1.2411476999986917,357.35276730009355,ry1,357.35276730009355,None,350.8124064001022,354.31854190002196,True,4.0,['r'],True,0.4444444444444445,0.6666666666666666,0.3333333333333333,1.0,1.0,0.9656336071428248,0.0532959044563323,succ_gain,0.0,5.0,,,ry1,2,2022-04-07_14h35.37.538,threat_forest,2021.2.3,59.97951099664593,True,23.0,0.43333333333333335,0.4666666666666667,-1.3600000000000003,-1.4300000000000002,1,0,1,0.21603651606130134,0.0532959044563323,0.4444444444444445,0.4444444444444445,0.6666666666666666,0.6666666666666667,-1.0,-1.0,3.0,3.0,1.0,1.0,-1.0,4.0,0,0,1
11.0,0.0,11.0,0.0,1.0,0.0,1.0,0.0,,,,left,2.3752208000514656,361.23586900008377,ry1,361.23586900008377,None,350.8124064001022,354.31854190002196,True,5.0,['r'],True,0.4444444444444445,0.6666666666666666,0.3333333333333333,1.0,1.0,0.9656336071428248,0.0752131950978565,unsucc_cost,0.0,3.0,360.66858830000274,None,ry1,2,2022-04-07_14h35.37.538,threat_forest,2021.2.3,59.97951099664593,True,23.0,0.43333333333333335,0.4666666666666667,-1.3600000000000003,-1.4300000000000002,1,0,1,0.8650904016080291,0.0752131950978565,0.4444444444444445,0.4444444444444445,0.6666666666666666,0.6666666666666667,-1.0,-1.0,4.0,4.0,1.0,1.0,1.0,5.0,0,0,1
11.0,0.0,11.0,0.0,2.0,0.0,2.0,0.0,,,,left,0.9296063000801952,369.10521040007006,ry1,363.6356855999911,365.63540280004963,369.10521040007006,None,False,3.0,['r'],False,0.16,0.2,0.2,2.0,1.0,0.8198746470064713,-0.0451051819661638,wait_cost,1.0,2.0,365.6354028000496,None,ry1,2,2022-04-07_14h35.37.538,threat_forest,2021.2.3,59.97951099664593,False,23.0,0.43333333333333335,0.4666666666666667,-1.3600000000000003,-1.4300000000000002,0,0,0,-0.07299411571275313,-0.0451051819661638,0.16,0.16,0.2,0.8,-2.0,-1.7200000000000004,1.2799999999999996,1.2799999999999996,0.0,1.0,-1.0,3.0,0,0,0
11.0,0.0,11.0,0.0,3.0,0.0,3.0,0.0,,,,left,1.5534211000194773,375.80275830009487,ry1,375.80275830009487,None,370.0523829000304,372.0521414000541,True,2.0,['r'],True,0.4444444444444445,0.6666666666666666,0.3333333333333333,1.0,1.0,0.9656336071428248,0.0744705989940557,succ_gain,0.0,3.0,372.0521414000541,None,ry1,2,2022-04-07_14h35.37.538,threat_forest,2021.2.3,59.97951099664593,True,23.0,0.43333333333333335,0.4666666666666667,-1.3600000000000003,-1.4300000000000002,1,0,1,0.44045966003171977,0.0744705989940557,0.4444444444444445,0.4444444444444445,0.6666666666666666,0.6666666666666667,-1.0,-1.0,1.0,1.0,1.0,1.0,-1.0,2.0,0,0,1
11.0,0.0,11.0,0.0,4.0,0.0,4.0,0.0,,,,left,1.3625349000794813,381.070710400003,ry1,377.3858071001014,379.38554220006336,381.070710400003,None,False,3.0,['r'],False,0.16,0.2,0.2,2.0,1.0,0.8198746470064713,-0.1411223703703704,wait_cost,1.0,2.0,379.38554220006336,None,ry1,2,2022-04-07_14h35.37.538,threat_forest,2021.2.3,59.97951099664593,False,23.0,0.43333333333333335,0.4666666666666667,-1.3600000000000003,-1.4300000000000002,0,0,0,0.3093468619644443,-0.1411223703703704,0.16,0.16,0.2,0.8,-2.0,-1.7200000000000004,1.2799999999999996,1.2799999999999996,0.0,1.0,1.0,3.0,0,0,0
11.0,0.0,11.0,0.0,5.0,0.0,5.0,0.0,,,,left,0.8532874999800697,385.81919960002415,ry1,385.81919960002415,None,382.4528316000942,384.4523488000268,True,2.0,['r'],True,0.4444444444444445,0.6666666666666666,0.3333333333333333,1.0,1.0,0.9656336071428248,0.1422222222222222,succ_gain,0.0,3.0,384.4523488000268,None,ry1,2,2022-04-07_14h35.37.538,threat_forest,2021.2.3,59.97951099664593,True,23.0,0.43333333333333335,0.4666666666666667,-1.3600000000000003,-1.4300000000000002,1,0,1,-0.15865874257997972,0.1422222222222222,0.4444444444444445,0.4444444444444445,0.6666666666666666,0.6666666666666667,-1.0,-1.0,1.0,1.0,1.0,1.0,-1.0,2.0,0,0,1
11.0,0.0,11.0,0.0,6.0,0.0,6.0,0.0,,,,left,0.7595156000461429,390.1373263000278,ry1,386.7027648000512,388.7024621000746,390.1373263000278,None,False,3.0,['r'],False,0.16,0.2,0.2,2.0,1.0,0.8198746470064713,-0.6465777777777778,wait_cost,1.0,2.0,388.7024621000746,None,ry1,2,2022-04-07_14h35.37.538,threat_forest,2021.2.3,59.97951099664593,False,23.0,0.43333333333333335,0.4666666666666667,-1.3600000000000003,-1.4300000000000002,0,0,0,-0.275074417267661,-0.6465777777777778,0.0,0.16,0.2,0.8,-2.0,-1.7200000000000004,1.2799999999999996,1.2799999999999996,0.0,1.0,1.0,3.0,0,0,0
11.0,0.0,11.0,0.0,7.0,0.0,7.0,0.0,,,,right,0.9175500000128524,395.136228700052,ry1,395.136228700052,None,390.9193765000673,392.91912380000576,False,2.0,['r'],True,0.4444444444444445,0.6666666666666666,0.3333333333333333,1.0,1.0,0.9656336071428248,-0.5555555555555556,wait_cost,0.0,1.0,392.91912380000576,None,ry1,2,2022-04-07_14h35.37.538,threat_forest,2021.2.3,59.97951099664593,False,23.0,0.43333333333333335,0.4666666666666667,-1.3600000000000003,-1.4300000000000002,1,0,0,-0.08604820461144623,-0.5555555555555556,0.0,0.4444444444444445,0.6666666666666666,0.6666666666666667,-1.0,-1.0,1.0,1.0,1.0,1.0,-1.0,2.0,0,0,1
12.0,0.0,12.0,0.0,0.0,0.0,0.0,0.0,400.8319519000361,404.3342411000049,None,right,0.8686797000700608,407.9230511999922,ry1,407.9230511999922,None,400.8319519000361,404.3342411000049,False,4.0,['r'],True,0.16,0.2,0.2,2.0,2.0,0.8198746470064713,0.0018667197674524,wait_cost,0.0,3.0,,,ry1,2,2022-04-07_14h35.37.538,threat_forest,2021.2.3,59.97951099664593,False,63.0,0.26666666666666666,0.35,-1.5022222222222226,-1.4311111111111114,0,0,0,-0.14078080616006217,0.0018667197674524,0.16,0.16,0.2,0.8,-1.8000000000000003,-1.5600000000000003,2.4399999999999995,2.4399999999999995,1.0,2.0,-1.0,4.0,0,0,0
12.0,0.0,12.0,0.0,1.0,0.0,1.0,0.0,,,,right,1.4496893000323323,414.62013580009807,ry1,408.819608299993,410.81935510004405,414.62013580009807,None,True,3.0,['r'],False,0.2222222222222222,0.3333333333333333,0.3333333333333333,2.0,2.0,0.9656336071428248,0.0295867373231648,fight_cost,1.0,0.0,410.8193551000441,None,ry1,2,2022-04-07_14h35.37.538,threat_forest,2021.2.3,59.97951099664593,True,63.0,0.26666666666666666,0.35,-1.5022222222222226,-1.4311111111111114,0,0,1,0.3713492576323645,0.0295867373231648,0.2222222222222222,0.2222222222222222,0.3333333333333333,0.6666666666666667,-1.666666666666667,-1.4444444444444446,1.5555555555555554,1.5555555555555554,0.0,2.0,-1.0,3.0,0,0,0
13.0,0.0,13.0,0.0,0.0,0.0,0.0,0.0,421.59797590004746,425.1029042000882,None,left,0.9463664999930188,425.63659390003886,ry1,425.63659390003886,None,421.59797590004746,425.10290420008823,True,4.0,['r'],True,0.375,0.5,0.25,1.0,1.0,0.9850568223215076,0.0365041143210029,unsucc_cost,0.0,2.0,,,ry1,2,2022-04-07_14h35.37.538,threat_forest,2021.2.3,59.97951099664593,True,3.0,0.35,0.30833333333333335,-1.4225000000000003,-1.4623611111111114,1,1,1,-0.05512536424684858,0.0365041143210029,0.375,0.375,0.5,0.75,-1.25,-1.125,2.875,2.875,1.0,1.0,-1.0,4.0,0,1,1
13.0,0.0,13.0,0.0,1.0,0.0,1.0,0.0,,,,left,1.570286100031808,432.070156800095,ry1,432.070156800095,None,421.59797590004746,425.10290420008823,True,2.0,['r'],True,0.375,0.5,0.25,1.0,1.0,0.9850568223215076,0.0216367285003662,fight_cost,0.0,0.0,428.60310230008326,None,ry1,2,2022-04-07_14h35.37.538,threat_forest,2021.2.3,59.97951099664593,True,3.0,0.35,0.30833333333333335,-1.4225000000000003,-1.4623611111111114,1,1,1,0.451257832078094,0.0216367285003662,0.375,0.375,0.5,0.75,-1.25,-1.125,0.875,0.875,1.0,1.0,-1.0,2.0,0,1,1
14.0,0.0,14.0,0.0,0.0,0.0,0.0,0.0,439.1627071000403,442.6697843000293,None,right,1.2516542000230402,445.1871970000211,ry1,439.1627071000403,442.6697843000293,445.1871970000211,None,True,4.0,['r'],False,0.4285714285714285,0.4285714285714285,0.0,0.0,2.0,0.6216097450797565,0.0515952580137115,succ_gain,1.0,6.0,,,ry1,2,2022-04-07_14h35.37.538,threat_forest,2021.2.3,59.97951099664593,True,52.0,0.43650793650793646,0.3932539682539682,-0.5626102292768962,-0.9925551146384483,1,1,1,0.2244660364635322,0.0515952580137115,0.4285714285714285,0.4285714285714285,0.4285714285714285,1.0,-0.28571428571428603,-0.28571428571428603,3.714285714285714,3.714285714285714,0.0,2.0,-1.0,4.0,0,1,1
14.0,0.0,14.0,0.0,1.0,0.0,1.0,0.0,,,,right,1.2450970999198034,450.00666730001103,ry1,450.00666730001103,None,446.4701953000622,448.47001610009465,False,6.0,['r'],True,0.345679012345679,0.4444444444444444,0.2222222222222222,2.0,2.0,0.9685033186841367,-0.0877175419811512,wait_cost,0.0,5.0,448.47001610009465,None,ry1,2,2022-04-07_14h35.37.538,threat_forest,2021.2.3,59.97951099664593,False,52.0,0.43650793650793646,0.3932539682539682,-0.5626102292768962,-0.9925551146384483,1,0,0,0.21921351877891715,-0.0877175419811512,0.345679012345679,0.345679012345679,0.4444444444444444,0.7777777777777778,-0.888888888888889,-0.8395061728395062,5.160493827160494,5.160493827160494,1.0,2.0,1.0,6.0,0,0,1
14.0,0.0,14.0,0.0,2.0,0.0,2.0,0.0,,,,right,1.9328108000336213,454.6704807000933,ry1,451.27036860003136,453.2700332000386,454.6704807000933,None,True,5.0,['r'],False,0.4285714285714285,0.4285714285714285,0.0,0.0,2.0,0.6216097450797565,0.0928173353857788,succ_gain,1.0,6.0,453.2700332000386,None,ry1,2,2022-04-07_14h35.37.538,threat_forest,2021.2.3,59.97951099664593,True,52.0,0.43650793650793646,0.3932539682539682,-0.5626102292768962,-0.9925551146384483,1,1,1,0.6589753165084867,0.0928173353857788,0.4285714285714285,0.4285714285714285,0.4285714285714285,1.0,-0.28571428571428603,-0.28571428571428603,4.7142857142857135,4.7142857142857135,0.0,2.0,-1.0,5.0,0,1,1
14.0,0.0,14.0,0.0,3.0,0.0,3.0,0.0,,,,right,1.9049136999528853,460.4041505000787,ry1,451.27036860003136,453.2700332000386,460.4041505000787,None,True,6.0,['r'],False,0.4285714285714285,0.4285714285714285,0.0,0.0,2.0,0.6216097450797565,-0.208695654105917,unsucc_cost,1.0,4.0,458.62000930006616,None,ry1,2,2022-04-07_14h35.37.538,threat_forest,2021.2.3,59.97951099664593,True,52.0,0.43650793650793646,0.3932539682539682,-0.5626102292768962,-0.9925551146384483,1,1,1,0.6444367056905015,-0.208695654105917,0.0,0.4285714285714285,0.4285714285714285,1.0,-0.28571428571428603,-0.28571428571428603,5.7142857142857135,5.7142857142857135,0.0,2.0,1.0,6.0,0,1,1
14.0,0.0,14.0,0.0,4.0,0.0,4.0,0.0,,,,right,0.9808128000004216,465.3380398000591,ry1,465.3380398000591,None,462.3370185000822,464.3369106000755,False,4.0,['r'],True,0.345679012345679,0.4444444444444444,0.2222222222222222,2.0,2.0,0.9685033186841367,0.0265670054029841,wait_cost,0.0,3.0,464.3369106000755,None,ry1,2,2022-04-07_14h35.37.538,threat_forest,2021.2.3,59.97951099664593,False,52.0,0.43650793650793646,0.3932539682539682,-0.5626102292768962,-0.9925551146384483,1,0,0,-0.01937366331395574,0.0265670054029841,0.345679012345679,0.345679012345679,0.4444444444444444,0.7777777777777778,-0.888888888888889,-0.8395061728395062,3.1604938271604937,3.1604938271604937,1.0,2.0,-1.0,4.0,0,0,1
14.0,0.0,14.0,0.0,5.0,0.0,5.0,0.0,,,,right,0.7153251999989152,469.9375706000719,ry1,469.9375706000719,None,462.3370185000822,464.3369106000755,False,3.0,['r'],True,0.345679012345679,0.4444444444444444,0.2222222222222222,2.0,2.0,0.9685033186841367,0.105107017658458,wait_cost,0.0,2.0,468.3369084000588,None,ry1,2,2022-04-07_14h35.37.538,threat_forest,2021.2.3,59.97951099664593,False,52.0,0.43650793650793646,0.3932539682539682,-0.5626102292768962,-0.9925551146384483,1,0,0,-0.33501801451643864,0.105107017658458,0.345679012345679,0.345679012345679,0.4444444444444444,0.7777777777777778,-0.888888888888889,-0.8395061728395062,2.1604938271604937,2.1604938271604937,1.0,2.0,-1.0,3.0,0,0,1
14.0,0.0,14.0,0.0,6.0,0.0,6.0,0.0,,,,right,0.5712056000484154,473.354301000014,ry1,473.354301000014,None,462.3370185000822,464.3369106000755,False,2.0,['r'],True,0.345679012345679,0.4444444444444444,0.2222222222222222,2.0,2.0,0.9685033186841367,-0.0414462081128748,wait_cost,0.0,1.0,472.670288000023,None,ry1,2,2022-04-07_14h35.37.538,threat_forest,2021.2.3,59.97951099664593,False,52.0,0.43650793650793646,0.3932539682539682,-0.5626102292768962,-0.9925551146384483,1,0,0,-0.560006063998492,-0.0414462081128748,0.345679012345679,0.345679012345679,0.4444444444444444,0.7777777777777778,-0.888888888888889,-0.8395061728395062,1.1604938271604937,1.1604938271604937,1.0,2.0,-1.0,2.0,0,0,1
14.0,0.0,14.0,0.0,7.0,0.0,7.0,0.0,,,,left,0.5310414999257773,479.1039986000396,ry1,479.1039986000396,None,462.3370185000822,464.3369106000755,True,1.0,['r'],True,0.345679012345679,0.4444444444444444,0.2222222222222222,2.0,2.0,0.9685033186841367,0.345679012345679,fight_cost,0.0,0.0,475.9536892999895,None,ry1,2,2022-04-07_14h35.37.538,threat_forest,2021.2.3,59.97951099664593,True,52.0,0.43650793650793646,0.3932539682539682,-0.5626102292768962,-0.9925551146384483,1,0,1,-0.6329151065082523,0.345679012345679,1.0,0.345679012345679,0.4444444444444444,0.7777777777777778,-0.888888888888889,-0.8395061728395062,0.16049382716049376,0.16049382716049376,1.0,2.0,-1.0,1.0,1,0,1
15.0,0.0,15.0,0.0,0.0,0.0,0.0,0.0,483.3088978000451,486.82049220008776,None,left,0.971623899997212,488.6229330000933,ry1,483.3088978000451,486.82049220008776,488.6229330000933,None,False,5.0,['p'],False,0.2448979591836734,0.2857142857142857,0.1428571428571428,1.0,2.0,0.8400769154957735,-0.0142294939424326,wait_cost,1.0,4.0,,,ry1,2,2022-04-07_14h35.37.538,threat_forest,2021.2.3,59.97951099664593,False,42.0,0.39285714285714285,0.41468253968253965,-0.9566326530612245,-0.7596214411690603,0,0,0,-0.02878648355928264,-0.0142294939424326,0.2448979591836734,0.2448979591836734,0.2857142857142857,0.8571428571428572,-1.2857142857142856,-1.163265306122449,3.836734693877551,3.836734693877551,0.0,2.0,-1.0,5.0,0,0,0
15.0,0.0,15.0,0.0,1.0,0.0,1.0,0.0,,,,left,1.404445099993609,492.3545162000228,ry1,492.3545162000228,None,489.6209923001006,491.62057310005184,True,4.0,['p'],True,0.375,0.5,0.25,1.0,2.0,0.9850568223215076,0.0723916443011504,succ_gain,0.0,6.0,491.62057310005184,None,ry1,2,2022-04-07_14h35.37.538,threat_forest,2021.2.3,59.97951099664593,True,42.0,0.39285714285714285,0.41468253968253965,-0.9566326530612245,-0.7596214411690603,1,0,1,0.3396422781499843,0.0723916443011504,0.375,0.375,0.5,0.75,-0.75,-0.75,3.25,3.25,1.0,2.0,-1.0,4.0,0,0,1
