miniblock.thisRepN,miniblock.thisTrialN,miniblock.thisN,miniblock.thisIndex,day.thisRepN,day.thisTrialN,day.thisN,day.thisIndex,forest.started,fixation_forest.started,fixation_forest.stopped,key_resp.keys,key_resp.rt,key_resp.started,Subject_ID,weather_left.started,weather_left.stopped,weather_right.started,weather_right.stopped,foraging T/F,in_LP,p/r heuristic,good_weather.T/F,p_succ_correct,p_succ_uncorrected,r_threat,n_oponents,gain_if_succ,weather_entropy,OP_value_difference,action_outcome,forest_side_L=0_R=1,out_LP,fixation_day.started,fixation_day.stopped,participant,session,date,expName,psychopyVersion,frameRate,foraging T/F NaNs,fora_NR,forest_mean_p,mvt_cutoff_p,forest_mean_ev,mvt_cutoff_ev,mvt_policy_eg,mvt_policy_p,fora_response,logRT,optimal policy,$\mathit{p}$ success cor + cap,$\mathit{p}$ success cor,$\mathit{p}$ success,risk threat encounter,expected gain naive,expected gain correct,expected state no bounds,expected state with bounds,weather type,gain magnitude,win stay lose shift,continuous energy state,binary energy state,$\mathit{p}$ success based MVT,expected gain based MVT
0.0,0.0,0.0,0.0,0.0,0.0,0.0,0.0,28.81416990002617,32.31124689988792,None,left,1.0032641999423504,35.43346680002287,ae11,28.81416990002617,32.31124689988792,35.43346680002287,None,False,4.0,['p'],False,0.24,0.3,0.2,2.0,1.0,0.9003120349047065,0.0028177647265513,wait_cost,1.0,3.0,,,ae11,1,2022-04-29_14h28.10.531,threat_forest,2021.2.3,59.998619923447386,False,9.0,0.4,0.4,-1.3025,-1.3025,0,0,0,0.003258884006761723,0.0028177647265513,0.24,0.24,0.3,0.8,-1.7,-1.48,2.52,2.52,0.0,1.0,,4.0,0,0,0
0.0,0.0,0.0,0.0,1.0,0.0,1.0,0.0,,,,left,0.7226243996992707,40.527942299842834,ae11,40.527942299842834,None,36.46900459984317,38.46868749987334,True,3.0,['p'],True,0.375,0.5,0.25,1.0,1.0,0.9850568223215076,0.0380355435233458,succ_gain,0.0,4.0,38.46868749987334,None,ae11,1,2022-04-29_14h28.10.531,threat_forest,2021.2.3,59.998619923447386,True,9.0,0.4,0.4,-1.3025,-1.3025,1,0,1,-0.32486569430217965,0.0380355435233458,0.375,0.375,0.5,0.75,-1.25,-1.125,1.875,1.875,1.0,1.0,-1.0,3.0,0,0,1
0.0,0.0,0.0,0.0,2.0,0.0,2.0,0.0,,,,left,0.6425188998691738,44.45832929993048,ae11,44.45832929993048,None,36.46900459984317,38.46868749987334,True,4.0,['p'],True,0.375,0.5,0.25,1.0,1.0,0.9850568223215076,0.0523533848291014,unsucc_cost,0.0,2.0,43.2684144997038,None,ae11,1,2022-04-29_14h28.10.531,threat_forest,2021.2.3,59.998619923447386,True,9.0,0.4,0.4,-1.3025,-1.3025,1,0,1,-0.44235904650661645,0.0523533848291014,0.375,0.375,0.5,0.75,-1.25,-1.125,2.875,2.875,1.0,1.0,1.0,4.0,0,0,1
0.0,0.0,0.0,0.0,3.0,0.0,3.0,0.0,,,,left,0.7293897997587919,48.29161499999464,ae11,48.29161499999464,None,36.46900459984317,38.46868749987334,True,2.0,['p'],True,0.375,0.5,0.25,1.0,1.0,0.9850568223215076,0.0367406982421875,figh_cost,0.0,0.0,47.11886709975079,None,ae11,1,2022-04-29_14h28.10.531,threat_forest,2021.2.3,59.998619923447386,True,9.0,0.4,0.4,-1.3025,-1.3025,1,0,1,-0.31554698513255175,0.0367406982421875,0.375,0.375,0.5,0.75,-1.25,-1.125,0.875,0.875,1.0,1.0,-1.0,2.0,0,0,1
1.0,0.0,1.0,0.0,0.0,0.0,0.0,0.0,54.55034800013527,58.05219459999353,None,left,0.7956324000842869,60.61043930007145,ae11,60.61043930007145,None,54.55034800013527,58.05219459999353,True,4.0,['r'],True,0.6,0.6,0.0,0.0,2.0,0.6126016192893442,0.1103326303155006,succ_gain,0.0,6.0,,,ae11,1,2022-04-29_14h28.10.531,threat_forest,2021.2.3,59.998619923447386,True,47.0,0.6333333333333333,0.5166666666666666,-0.07777777777777783,-0.6901388888888889,1,1,1,-0.2286180087436813,0.1103326303155006,0.6,0.6,0.6,1.0,0.3999999999999999,0.3999999999999999,4.4,4.4,1.0,2.0,-1.0,4.0,0,1,1
1.0,0.0,1.0,0.0,1.0,0.0,1.0,0.0,,,,left,0.9153669998049736,66.676830700133,ae11,61.435705999843776,63.43538519972935,66.676830700133,None,False,6.0,['r'],False,0.4444444444444445,0.6666666666666666,0.3333333333333333,2.0,2.0,0.9656336071428248,-0.0843219852156683,wait_cost,1.0,5.0,63.43538519972935,None,ae11,1,2022-04-29_14h28.10.531,threat_forest,2021.2.3,59.998619923447386,False,47.0,0.6333333333333333,0.5166666666666666,-0.07777777777777783,-0.6901388888888889,1,0,0,-0.0884302014397525,-0.0843219852156683,0.4444444444444445,0.4444444444444445,0.6666666666666666,0.6666666666666667,-0.3333333333333335,-0.5555555555555556,5.444444444444445,5.444444444444445,0.0,2.0,1.0,6.0,0,0,1
1.0,0.0,1.0,0.0,2.0,0.0,2.0,0.0,,,,left,0.7268945998512208,71.34375769970939,ae11,71.34375769970939,None,67.61934510013089,69.6189105999656,True,5.0,['r'],True,0.6,0.6,0.0,0.0,2.0,0.6126016192893442,0.1044295061728395,succ_gain,0.0,6.0,69.6189105999656,None,ae11,1,2022-04-29_14h28.10.531,threat_forest,2021.2.3,59.998619923447386,True,47.0,0.6333333333333333,0.5166666666666666,-0.07777777777777783,-0.6901388888888889,1,1,1,-0.3189737915310825,0.1044295061728395,0.6,0.6,0.6,1.0,0.3999999999999999,0.3999999999999999,5.4,5.4,1.0,2.0,-1.0,5.0,0,1,1
1.0,0.0,1.0,0.0,3.0,0.0,3.0,0.0,,,,left,0.8727635997347534,77.79249639995396,ae11,72.10268250014633,74.10214680014178,77.79249639995396,None,False,6.0,['r'],False,0.4444444444444445,0.6666666666666666,0.3333333333333333,2.0,2.0,0.9656336071428248,-0.1530384087791495,wait_cost,1.0,5.0,74.10214680014178,None,ae11,1,2022-04-29_14h28.10.531,threat_forest,2021.2.3,59.998619923447386,False,47.0,0.6333333333333333,0.5166666666666666,-0.07777777777777783,-0.6901388888888889,1,0,0,-0.13609055049479205,-0.1530384087791495,0.0,0.4444444444444445,0.6666666666666666,0.6666666666666667,-0.3333333333333335,-0.5555555555555556,5.444444444444445,5.444444444444445,0.0,2.0,1.0,6.0,0,0,1
1.0,0.0,1.0,0.0,4.0,0.0,4.0,0.0,,,,left,0.617769000120461,82.89062009984627,ae11,72.10268250014633,74.10214680014178,82.89062009984627,None,False,5.0,['r'],False,0.4444444444444445,0.6666666666666666,0.3333333333333333,2.0,2.0,0.9656336071428248,-0.2162962962962963,wait_cost,1.0,4.0,80.68553619971499,None,ae11,1,2022-04-29_14h28.10.531,threat_forest,2021.2.3,59.998619923447386,False,47.0,0.6333333333333333,0.5166666666666666,-0.07777777777777783,-0.6901388888888889,1,0,0,-0.4816406776127719,-0.2162962962962963,0.0,0.4444444444444445,0.6666666666666666,0.6666666666666667,-0.3333333333333335,-0.5555555555555556,4.444444444444445,4.444444444444445,0.0,2.0,-1.0,5.0,0,0,1
1.0,0.0,1.0,0.0,5.0,0.0,5.0,0.0,,,,left,0.6845586001873016,87.53234639996663,ae11,72.10268250014633,74.10214680014178,87.53234639996663,None,False,4.0,['r'],False,0.4444444444444445,0.6666666666666666,0.3333333333333333,2.0,2.0,0.9656336071428248,-0.2567901234567901,wait_cost,1.0,3.0,85.53560249973089,None,ae11,1,2022-04-29_14h28.10.531,threat_forest,2021.2.3,59.998619923447386,False,47.0,0.6333333333333333,0.5166666666666666,-0.07777777777777783,-0.6901388888888889,1,0,0,-0.37898102771008685,-0.2567901234567901,0.0,0.4444444444444445,0.6666666666666666,0.6666666666666667,-0.3333333333333335,-0.5555555555555556,3.4444444444444446,3.4444444444444446,0.0,2.0,-1.0,4.0,0,0,1
1.0,0.0,1.0,0.0,6.0,0.0,6.0,0.0,,,,left,0.6432859003543854,91.02480169991033,ae11,72.10268250014633,74.10214680014178,91.02480169991033,None,False,3.0,['r'],False,0.4444444444444445,0.6666666666666666,0.3333333333333333,2.0,2.0,0.9656336071428248,-0.4395061728395062,wait_cost,1.0,2.0,90.23596339998768,None,ae11,1,2022-04-29_14h28.10.531,threat_forest,2021.2.3,59.998619923447386,False,47.0,0.6333333333333333,0.5166666666666666,-0.07777777777777783,-0.6901388888888889,1,0,0,-0.44116601848859704,-0.4395061728395062,0.0,0.4444444444444445,0.6666666666666666,0.6666666666666667,-0.3333333333333335,-0.5555555555555556,2.4444444444444446,2.4444444444444446,0.0,2.0,-1.0,3.0,0,0,1
1.0,0.0,1.0,0.0,7.0,0.0,7.0,0.0,,,,right,0.7122497004456818,96.22275870013982,ae11,96.22275870013982,None,91.69219570001589,93.70289209997281,False,2.0,['r'],True,0.6,0.6,0.0,0.0,2.0,0.6126016192893442,-0.4,wait_cost,0.0,1.0,93.7028920999728,None,ae11,1,2022-04-29_14h28.10.531,threat_forest,2021.2.3,59.998619923447386,False,47.0,0.6333333333333333,0.5166666666666666,-0.07777777777777783,-0.6901388888888889,1,1,0,-0.33932672617889115,-0.4,0.0,0.6,0.6,1.0,0.3999999999999999,0.3999999999999999,2.4,2.4,1.0,2.0,-1.0,2.0,0,1,1
2.0,0.0,2.0,0.0,0.0,0.0,0.0,0.0,100.45428119972348,103.95267589995638,None,left,0.5924211000092328,105.22629609983414,ae11,105.22629609983414,None,100.45428119972348,103.95267589995638,True,5.0,['p'],True,0.4444444444444445,0.6666666666666666,0.3333333333333333,1.0,1.0,0.9656336071428248,0.0468159241685405,figh_cost,0.0,2.0,,,ae11,1,2022-04-29_14h28.10.531,threat_forest,2021.2.3,59.998619923447386,True,23.0,0.43333333333333335,0.5333333333333333,-1.3600000000000003,-0.7188888888888891,0,0,1,-0.5235375793814149,0.0468159241685405,0.4444444444444445,0.4444444444444445,0.6666666666666666,0.6666666666666667,-1.0,-1.0,4.0,4.0,1.0,1.0,-1.0,5.0,0,0,0
2.0,0.0,2.0,0.0,1.0,0.0,1.0,0.0,,,,left,0.5550521002151072,108.76985759986565,ae11,108.76985759986565,None,100.45428119972348,103.95267589995638,True,2.0,['p'],True,0.4444444444444445,0.6666666666666666,0.3333333333333333,1.0,1.0,0.9656336071428248,0.0366186597420974,unsucc_cost,0.0,0.0,107.83596439985558,None,ae11,1,2022-04-29_14h28.10.531,threat_forest,2021.2.3,59.998619923447386,True,23.0,0.43333333333333335,0.5333333333333333,-1.3600000000000003,-0.7188888888888891,0,0,1,-0.5886932953801609,0.0366186597420974,0.4444444444444445,0.4444444444444445,0.6666666666666666,0.6666666666666667,-1.0,-1.0,1.0,1.0,1.0,1.0,-1.0,2.0,0,0,0
3.0,0.0,3.0,0.0,0.0,0.0,0.0,0.0,112.39168770005926,115.8910298999399,None,right,0.771427399944514,119.01401899987832,ae11,112.39168770005926,115.8910298999399,119.01401899987832,None,True,5.0,['p'],False,0.2962962962962963,0.3333333333333333,0.1111111111111111,1.0,1.0,0.8325252476189534,-0.0072014784086608,succ_gain,1.0,6.0,,,ae11,1,2022-04-29_14h28.10.531,threat_forest,2021.2.3,59.998619923447386,True,4.0,0.4666666666666667,0.45,-0.9911111111111113,-1.175555555555556,0,0,1,-0.2595127140766824,-0.0072014784086608,0.2962962962962963,0.2962962962962963,0.3333333333333333,0.8888888888888888,-1.3333333333333335,-1.2222222222222223,3.7777777777777777,3.7777777777777777,0.0,1.0,-1.0,5.0,0,0,0
3.0,0.0,3.0,0.0,1.0,0.0,1.0,0.0,,,,left,0.7262255004607141,124.26054159970954,ae11,124.26054159970954,None,119.80345210013913,121.80323620000854,True,6.0,['p'],True,0.48,0.6,0.2,1.0,1.0,0.9455672104350704,-0.0876748854947013,succ_gain,0.0,6.0,121.80323620000854,None,ae11,1,2022-04-29_14h28.10.531,threat_forest,2021.2.3,59.998619923447386,True,4.0,0.4666666666666667,0.45,-0.9911111111111113,-1.175555555555556,1,1,1,-0.3198947056904156,-0.0876748854947013,0.48,0.48,0.6,0.8,-0.8000000000000002,-0.7600000000000002,5.24,5.24,1.0,1.0,1.0,6.0,0,1,1
3.0,0.0,3.0,0.0,2.0,0.0,2.0,0.0,,,,left,0.8164802002720535,128.25498790014535,ae11,128.25498790014535,None,119.80345210013913,121.80323620000854,True,6.0,['p'],True,0.48,0.6,0.2,1.0,1.0,0.9455672104350704,0.0681665301198575,figh_cost,0.0,3.0,127.02000569971278,None,ae11,1,2022-04-29_14h28.10.531,threat_forest,2021.2.3,59.998619923447386,True,4.0,0.4666666666666667,0.45,-0.9911111111111113,-1.175555555555556,1,1,1,-0.2027526163793543,0.0681665301198575,0.48,0.48,0.6,0.8,-0.8000000000000002,-0.7600000000000002,5.24,5.24,1.0,1.0,-1.0,6.0,0,1,1
3.0,0.0,3.0,0.0,3.0,0.0,3.0,0.0,,,,left,0.6777145001105964,134.90791049972177,ae11,134.90791049972177,None,119.80345210013913,121.80323620000854,True,3.0,['p'],True,0.48,0.6,0.2,1.0,1.0,0.9455672104350704,0.1279737971650663,succ_gain,0.0,4.0,131.10311779985204,None,ae11,1,2022-04-29_14h28.10.531,threat_forest,2021.2.3,59.998619923447386,True,4.0,0.4666666666666667,0.45,-0.9911111111111113,-1.175555555555556,1,1,1,-0.38902917100787854,0.1279737971650663,0.48,0.48,0.6,0.8,-0.8000000000000002,-0.7600000000000002,2.2399999999999998,2.2399999999999998,1.0,1.0,-1.0,3.0,0,1,1
3.0,0.0,3.0,0.0,4.0,0.0,4.0,0.0,,,,left,0.6759406998753548,140.8104202998802,ae11,135.60338319977745,137.60327570000663,140.8104202998802,None,False,4.0,['p'],False,0.2962962962962963,0.3333333333333333,0.1111111111111111,1.0,1.0,0.8325252476189534,0.0069872275567748,wait_cost,1.0,3.0,137.60327570000663,None,ae11,1,2022-04-29_14h28.10.531,threat_forest,2021.2.3,59.998619923447386,False,4.0,0.4666666666666667,0.45,-0.9911111111111113,-1.175555555555556,0,0,0,-0.391649928864857,0.0069872275567748,0.2962962962962963,0.2962962962962963,0.3333333333333333,0.8888888888888888,-1.3333333333333335,-1.2222222222222223,2.7777777777777777,2.7777777777777777,0.0,1.0,1.0,4.0,0,0,0
3.0,0.0,3.0,0.0,5.0,0.0,5.0,0.0,,,,left,0.6516593997366726,144.15647749975324,ae11,135.60338319977745,137.60327570000663,144.15647749975324,None,False,3.0,['p'],False,0.2962962962962963,0.3333333333333333,0.1111111111111111,1.0,1.0,0.8325252476189534,0.0922359396433469,wait_cost,1.0,2.0,143.50373389991,None,ae11,1,2022-04-29_14h28.10.531,threat_forest,2021.2.3,59.998619923447386,False,4.0,0.4666666666666667,0.45,-0.9911111111111113,-1.175555555555556,0,0,0,-0.42823324659218037,0.0922359396433469,0.2962962962962963,0.2962962962962963,0.3333333333333333,0.8888888888888888,-1.3333333333333335,-1.2222222222222223,1.7777777777777777,1.7777777777777777,0.0,1.0,-1.0,3.0,0,0,0
3.0,0.0,3.0,0.0,6.0,0.0,6.0,0.0,,,,left,0.9416877999901772,147.74265869986266,ae11,135.60338319977745,137.60327570000663,147.74265869986266,None,False,2.0,['p'],False,0.2962962962962963,0.3333333333333333,0.1111111111111111,1.0,1.0,0.8325252476189534,-0.0918518518518518,wait_cost,1.0,1.0,146.83669129991904,None,ae11,1,2022-04-29_14h28.10.531,threat_forest,2021.2.3,59.998619923447386,False,4.0,0.4666666666666667,0.45,-0.9911111111111113,-1.175555555555556,0,0,0,-0.06008148185408906,-0.0918518518518518,0.2962962962962963,0.2962962962962963,0.3333333333333333,0.8888888888888888,-1.3333333333333335,-1.2222222222222223,0.7777777777777777,0.7777777777777777,0.0,1.0,-1.0,2.0,0,0,0
3.0,0.0,3.0,0.0,7.0,0.0,7.0,0.0,,,,left,0.5297522000037134,151.64540180005133,ae11,151.64540180005133,None,148.70387140009552,150.7033742996864,True,1.0,['p'],True,0.48,0.6,0.2,1.0,1.0,0.9455672104350704,0.48,unsucc_cost,0.0,0.0,150.7033742996864,None,ae11,1,2022-04-29_14h28.10.531,threat_forest,2021.2.3,59.998619923447386,True,4.0,0.4666666666666667,0.45,-0.9911111111111113,-1.175555555555556,1,1,1,-0.6353459289330299,0.48,1.0,0.48,0.6,0.8,-0.8000000000000002,-0.7600000000000002,0.23999999999999977,0.23999999999999977,1.0,1.0,-1.0,1.0,1,1,1
4.0,0.0,4.0,0.0,0.0,0.0,0.0,0.0,155.61284099984914,159.120467599947,None,right,0.8463610000908375,161.29489739984274,ae11,155.61284099984914,159.120467599947,161.29489739984274,None,True,5.0,['r'],False,0.2222222222222222,0.6666666666666666,0.6666666666666666,2.0,2.0,0.77250688571426,-0.023281607963558,succ_gain,1.0,6.0,,,ae11,1,2022-04-29_14h28.10.531,threat_forest,2021.2.3,59.998619923447386,True,34.0,0.4583333333333333,0.4625,-1.3888888888888888,-1.19,0,0,1,-0.16680929633710173,-0.023281607963558,0.2222222222222222,0.2222222222222222,0.6666666666666666,0.33333333333333337,-1.3333333333333335,-1.777777777777778,3.2222222222222223,3.2222222222222223,0.0,2.0,-1.0,5.0,0,0,0
4.0,0.0,4.0,0.0,1.0,0.0,1.0,0.0,,,,left,0.7345595001243055,165.49141849996522,ae11,155.61284099984914,159.120467599947,165.49141849996522,None,False,6.0,['r'],False,0.2222222222222222,0.6666666666666666,0.6666666666666666,2.0,2.0,0.77250688571426,-0.1802912771224362,wait_cost,1.0,5.0,164.1701712999493,None,ae11,1,2022-04-29_14h28.10.531,threat_forest,2021.2.3,59.998619923447386,False,34.0,0.4583333333333333,0.4625,-1.3888888888888888,-1.19,0,0,0,-0.3084842789918228,-0.1802912771224362,0.2222222222222222,0.2222222222222222,0.6666666666666666,0.33333333333333337,-1.3333333333333335,-1.777777777777778,4.222222222222222,4.222222222222222,0.0,2.0,1.0,6.0,0,0,0
4.0,0.0,4.0,0.0,2.0,0.0,2.0,0.0,,,,left,0.8743116003461182,170.7785384999588,ae11,170.7785384999588,None,166.2539570000954,168.25380459986627,True,5.0,['r'],True,0.25,0.25,0.0,0.0,2.0,0.5118595071429148,0.0722950122974537,succ_gain,0.0,6.0,168.25380459986627,None,ae11,1,2022-04-29_14h28.10.531,threat_forest,2021.2.3,59.998619923447386,True,34.0,0.4583333333333333,0.4625,-1.3888888888888888,-1.19,1,0,1,-0.13431844473036975,0.0722950122974537,0.25,0.25,0.25,1.0,-1.0,-1.0,4.0,4.0,1.0,2.0,-1.0,5.0,0,0,1
4.0,0.0,4.0,0.0,3.0,0.0,3.0,0.0,,,,left,0.7918597003445029,174.6421161997132,ae11,171.67093010013923,173.67068929970264,174.6421161997132,None,False,6.0,['r'],False,0.2222222222222222,0.6666666666666666,0.6666666666666666,2.0,2.0,0.77250688571426,-0.5059906550068587,wait_cost,1.0,5.0,173.67068929970264,None,ae11,1,2022-04-29_14h28.10.531,threat_forest,2021.2.3,59.998619923447386,False,34.0,0.4583333333333333,0.4625,-1.3888888888888888,-1.19,0,0,0,-0.23337104888959037,-0.5059906550068587,0.0,0.2222222222222222,0.6666666666666666,0.33333333333333337,-1.3333333333333335,-1.777777777777778,4.222222222222222,4.222222222222222,0.0,2.0,1.0,6.0,0,0,0
4.0,0.0,4.0,0.0,4.0,0.0,4.0,0.0,,,,left,0.5621779998764396,178.45780440000817,ae11,171.67093010013923,173.67068929970264,178.45780440000817,None,False,5.0,['r'],False,0.2222222222222222,0.6666666666666666,0.6666666666666666,2.0,2.0,0.77250688571426,-0.5782107338820301,wait_cost,1.0,4.0,177.45401619980112,None,ae11,1,2022-04-29_14h28.10.531,threat_forest,2021.2.3,59.998619923447386,False,34.0,0.4583333333333333,0.4625,-1.3888888888888888,-1.19,0,0,0,-0.5759367534766715,-0.5782107338820301,0.0,0.2222222222222222,0.6666666666666666,0.33333333333333337,-1.3333333333333335,-1.777777777777778,3.2222222222222223,3.2222222222222223,0.0,2.0,-1.0,5.0,0,0,0
4.0,0.0,4.0,0.0,5.0,0.0,5.0,0.0,,,,left,0.3959697000682354,183.19249479984865,ae11,171.67093010013923,173.67068929970264,183.19249479984865,None,False,4.0,['r'],False,0.2222222222222222,0.6666666666666666,0.6666666666666666,2.0,2.0,0.77250688571426,-0.5933641975308642,wait_cost,1.0,3.0,181.054035499692,None,ae11,1,2022-04-29_14h28.10.531,threat_forest,2021.2.3,59.998619923447386,False,34.0,0.4583333333333333,0.4625,-1.3888888888888888,-1.19,0,0,0,-0.9264175856342804,-0.5933641975308642,0.0,0.2222222222222222,0.6666666666666666,0.33333333333333337,-1.3333333333333335,-1.777777777777778,2.2222222222222223,2.2222222222222223,0.0,2.0,-1.0,4.0,0,0,0
4.0,0.0,4.0,0.0,6.0,0.0,6.0,0.0,,,,right,0.8299052002839744,189.0583583000116,ae11,189.0583583000116,None,183.62101210001856,185.62046229979023,False,3.0,['r'],True,0.25,0.25,0.0,0.0,2.0,0.5118595071429148,-0.5729166666666667,wait_cost,0.0,2.0,185.62046229979023,None,ae11,1,2022-04-29_14h28.10.531,threat_forest,2021.2.3,59.998619923447386,False,34.0,0.4583333333333333,0.4625,-1.3888888888888888,-1.19,1,0,0,-0.18644380124002952,-0.5729166666666667,0.0,0.25,0.25,1.0,-1.0,-1.0,2.0,2.0,1.0,2.0,-1.0,3.0,0,0,1
4.0,0.0,4.0,0.0,7.0,0.0,7.0,0.0,,,,left,0.4523962000384927,195.01277099968863,ae11,189.92085490003228,191.92087949998677,195.01277099968863,None,False,2.0,['r'],False,0.2222222222222222,0.6666666666666666,0.6666666666666666,2.0,2.0,0.77250688571426,-0.7777777777777778,wait_cost,1.0,1.0,191.9208794999868,None,ae11,1,2022-04-29_14h28.10.531,threat_forest,2021.2.3,59.998619923447386,False,34.0,0.4583333333333333,0.4625,-1.3888888888888888,-1.19,0,0,0,-0.7931969343366934,-0.7777777777777778,0.0,0.2222222222222222,0.6666666666666666,0.33333333333333337,-1.3333333333333335,-1.777777777777778,0.2222222222222221,0.2222222222222221,0.0,2.0,-1.0,2.0,0,0,0
5.0,0.0,5.0,0.0,0.0,0.0,0.0,0.0,200.7104615997523,204.22141940006983,None,left,0.7181551996618509,206.9272825000808,ae11,206.9272825000808,None,200.7104615997523,204.22141940006986,True,4.0,['r'],True,0.3333333333333333,0.3333333333333333,0.0,0.0,2.0,0.5793801642856949,0.0501512138139916,unsucc_cost,0.0,2.0,,,ae11,1,2022-04-29_14h28.10.531,threat_forest,2021.2.3,59.998619923447386,True,46.0,0.3666666666666667,0.4125,-1.0533333333333335,-1.221111111111111,1,0,1,-0.33106957777425267,0.0501512138139916,0.3333333333333333,0.3333333333333333,0.3333333333333333,1.0,-0.6666666666666669,-0.6666666666666669,3.333333333333333,3.333333333333333,1.0,2.0,-1.0,4.0,0,0,1
5.0,0.0,5.0,0.0,1.0,0.0,1.0,0.0,,,,left,0.8969750003889203,212.19510489981624,ae11,207.671377599705,209.67090100003406,212.19510489981624,None,False,2.0,['r'],False,0.24,0.4,0.4,2.0,2.0,0.9801625908629508,-0.0088371924279834,wait_cost,1.0,1.0,209.6709010000341,None,ae11,1,2022-04-29_14h28.10.531,threat_forest,2021.2.3,59.998619923447386,False,46.0,0.3666666666666667,0.4125,-1.0533333333333335,-1.221111111111111,0,0,0,-0.10872728755818913,-0.0088371924279834,0.24,0.24,0.4,0.6,-1.6,-1.4400000000000002,0.5599999999999998,0.5599999999999998,0.0,2.0,-1.0,2.0,0,0,0
5.0,0.0,5.0,0.0,2.0,0.0,2.0,0.0,,,,left,0.6084262998774648,218.2407891997136,ae11,218.2407891997136,None,213.1217471999116,215.1212959997356,True,1.0,['r'],True,0.3333333333333333,0.3333333333333333,0.0,0.0,2.0,0.5793801642856949,0.1210402633744854,unsucc_cost,0.0,0.0,215.1212959997356,None,ae11,1,2022-04-29_14h28.10.531,threat_forest,2021.2.3,59.998619923447386,True,46.0,0.3666666666666667,0.4125,-1.0533333333333335,-1.221111111111111,1,0,1,-0.49687949159332334,0.1210402633744854,1.0,0.3333333333333333,0.3333333333333333,1.0,-0.6666666666666669,-0.6666666666666669,0.33333333333333315,0.33333333333333315,1.0,2.0,-1.0,1.0,1,0,1
6.0,0.0,6.0,0.0,0.0,0.0,0.0,0.0,222.3311724998057,225.82650389987973,None,right,1.085802000015974,226.51250310009345,ae11,222.3311724998057,225.82650389987975,226.51250310009345,None,True,4.0,['r'],False,0.4,0.4,0.0,0.0,1.0,0.6126016192893442,0.0461191598079562,succ_gain,1.0,5.0,,,ae11,1,2022-04-29_14h28.10.531,threat_forest,2021.2.3,59.998619923447386,True,7.0,0.45,0.4083333333333333,-1.0666666666666667,-1.06,1,0,1,0.08231888446207428,0.0461191598079562,0.4,0.4,0.4,1.0,-0.7999999999999999,-0.7999999999999999,3.2,3.2,0.0,1.0,-1.0,4.0,0,0,1
6.0,0.0,6.0,0.0,1.0,0.0,1.0,0.0,,,,right,1.0046469001099467,233.17873589973897,ae11,233.17873589973897,None,227.62148319976404,229.62138739973307,False,5.0,['r'],True,0.3333333333333333,0.5,0.3333333333333333,2.0,1.0,1.0,0.0085305486968449,wait_cost,0.0,4.0,229.62138739973307,None,ae11,1,2022-04-29_14h28.10.531,threat_forest,2021.2.3,59.998619923447386,False,7.0,0.45,0.4083333333333333,-1.0666666666666667,-1.06,0,0,0,0.004636136601383042,0.0085305486968449,0.3333333333333333,0.3333333333333333,0.5,0.6666666666666667,-1.5,-1.3333333333333335,3.6666666666666665,3.6666666666666665,1.0,1.0,1.0,5.0,0,0,0
6.0,0.0,6.0,0.0,2.0,0.0,2.0,0.0,,,,right,0.5107799996621907,238.4438193999231,ae11,234.2049523000605,236.20472719985992,238.4438193999231,None,True,4.0,['r'],False,0.4,0.4,0.0,0.0,1.0,0.6126016192893442,0.0645959259259258,unsucc_cost,1.0,2.0,236.20472719985992,None,ae11,1,2022-04-29_14h28.10.531,threat_forest,2021.2.3,59.998619923447386,True,7.0,0.45,0.4083333333333333,-1.0666666666666667,-1.06,1,0,1,-0.6718163105194761,0.0645959259259258,0.4,0.4,0.4,1.0,-0.7999999999999999,-0.7999999999999999,3.2,3.2,0.0,1.0,-1.0,4.0,0,0,1
6.0,0.0,6.0,0.0,3.0,0.0,3.0,0.0,,,,right,0.9429343999363482,242.092698500026,ae11,242.092698500026,None,238.97165660001335,240.97142020007595,False,2.0,['r'],True,0.3333333333333333,0.5,0.3333333333333333,2.0,1.0,1.0,0.0040555555555554,wait_cost,0.0,1.0,240.97142020007595,None,ae11,1,2022-04-29_14h28.10.531,threat_forest,2021.2.3,59.998619923447386,False,7.0,0.45,0.4083333333333333,-1.0666666666666667,-1.06,0,0,0,-0.05875856405334677,0.0040555555555554,0.3333333333333333,0.3333333333333333,0.5,0.6666666666666667,-1.5,-1.3333333333333335,0.6666666666666665,0.6666666666666665,1.0,1.0,-1.0,2.0,0,0,0
6.0,0.0,6.0,0.0,4.0,0.0,4.0,0.0,,,,right,0.6549015999771655,248.5599809000269,ae11,243.05507689993829,245.05520709976554,248.5599809000269,None,True,1.0,['r'],False,0.4,0.4,0.0,0.0,1.0,0.6126016192893442,0.1533333333333333,unsucc_cost,1.0,0.0,245.05520709976557,None,ae11,1,2022-04-29_14h28.10.531,threat_forest,2021.2.3,59.998619923447386,True,7.0,0.45,0.4083333333333333,-1.0666666666666667,-1.06,1,0,1,-0.4232702836748935,0.1533333333333333,1.0,0.4,0.4,1.0,-0.7999999999999999,-0.7999999999999999,0.20000000000000007,0.20000000000000007,0.0,1.0,-1.0,1.0,1,0,1
7.0,0.0,7.0,0.0,0.0,0.0,0.0,0.0,252.2633746000938,255.7717218999751,None,left,0.755145899951458,258.5113697000779,ae11,258.5113697000779,None,252.2633746000938,255.7717218999751,True,4.0,['r'],True,0.2222222222222222,0.6666666666666666,0.6666666666666666,2.0,2.0,0.77250688571426,-0.0834227138822206,figh_cost,0.0,1.0,,,ae11,1,2022-04-29_14h28.10.531,threat_forest,2021.2.3,59.998619923447386,True,49.0,0.5833333333333333,0.5166666666666666,-0.888888888888889,-0.9777777777777779,0,0,1,-0.2808443034336977,-0.0834227138822206,0.2222222222222222,0.2222222222222222,0.6666666666666666,0.33333333333333337,-1.3333333333333335,-1.777777777777778,2.2222222222222223,2.2222222222222223,1.0,2.0,-1.0,4.0,0,0,0
7.0,0.0,7.0,0.0,1.0,0.0,1.0,0.0,,,,right,0.6579511002637446,262.90717729972675,ae11,259.2886353000067,261.28849190007895,262.90717729972675,None,True,1.0,['r'],False,0.5,0.5,0.0,0.0,2.0,0.6309297535714574,0.1781925154320986,succ_gain,1.0,3.0,261.2884919000789,None,ae11,1,2022-04-29_14h28.10.531,threat_forest,2021.2.3,59.998619923447386,True,49.0,0.5833333333333333,0.5166666666666666,-0.888888888888889,-0.9777777777777779,1,0,1,-0.4186246661269638,0.1781925154320986,1.0,0.5,0.5,1.0,0.0,0.0,1.0,1.0,0.0,2.0,-1.0,1.0,1,0,1
7.0,0.0,7.0,0.0,2.0,0.0,2.0,0.0,,,,right,0.8408017000183463,268.93902039993554,ae11,259.2886353000067,261.28849190007895,268.93902039993554,None,True,3.0,['r'],False,0.5,0.5,0.0,0.0,2.0,0.6309297535714574,0.1944444444444444,succ_gain,1.0,5.0,265.5882986998185,None,ae11,1,2022-04-29_14h28.10.531,threat_forest,2021.2.3,59.998619923447386,True,49.0,0.5833333333333333,0.5166666666666666,-0.888888888888889,-0.9777777777777779,1,0,1,-0.17339943751569958,0.1944444444444444,0.5,0.5,0.5,1.0,0.0,0.0,3.0,3.0,0.0,2.0,1.0,3.0,0,0,1
7.0,0.0,7.0,0.0,3.0,0.0,3.0,0.0,,,,right,0.6023312001489103,273.61167880008,ae11,273.61167880008,None,269.80561979999766,271.80500819999725,False,5.0,['r'],True,0.2222222222222222,0.6666666666666666,0.6666666666666666,2.0,2.0,0.77250688571426,-0.064429012345679,wait_cost,0.0,4.0,271.80500819999725,None,ae11,1,2022-04-29_14h28.10.531,threat_forest,2021.2.3,59.998619923447386,False,49.0,0.5833333333333333,0.5166666666666666,-0.888888888888889,-0.9777777777777779,0,0,0,-0.5069478185990262,-0.064429012345679,0.2222222222222222,0.2222222222222222,0.6666666666666666,0.33333333333333337,-1.3333333333333335,-1.777777777777778,3.2222222222222223,3.2222222222222223,1.0,2.0,1.0,5.0,0,0,0
7.0,0.0,7.0,0.0,4.0,0.0,4.0,0.0,,,,right,0.8606779999099672,277.079381399788,ae11,274.23886410007253,276.2388822999783,277.079381399788,None,True,4.0,['r'],False,0.5,0.5,0.0,0.0,2.0,0.6309297535714574,0.1597222222222222,unsucc_cost,1.0,2.0,276.2388822999783,None,ae11,1,2022-04-29_14h28.10.531,threat_forest,2021.2.3,59.998619923447386,True,49.0,0.5833333333333333,0.5166666666666666,-0.888888888888889,-0.9777777777777779,1,0,1,-0.15003482834820983,0.1597222222222222,0.5,0.5,0.5,1.0,0.0,0.0,4.0,4.0,0.0,2.0,-1.0,4.0,0,0,1
7.0,0.0,7.0,0.0,5.0,0.0,5.0,0.0,,,,right,0.7123028999194503,280.98905239999294,ae11,274.23886410007253,276.2388822999783,280.98905239999294,None,True,2.0,['r'],False,0.5,0.5,0.0,0.0,2.0,0.6309297535714574,0.1388888888888888,unsucc_cost,1.0,0.0,279.9720827001147,None,ae11,1,2022-04-29_14h28.10.531,threat_forest,2021.2.3,59.998619923447386,True,49.0,0.5833333333333333,0.5166666666666666,-0.888888888888889,-0.9777777777777779,1,0,1,-0.33925203680093546,0.1388888888888888,0.5,0.5,0.5,1.0,0.0,0.0,2.0,2.0,0.0,2.0,-1.0,2.0,0,0,1
8.0,0.0,8.0,0.0,0.0,0.0,0.0,0.0,284.9512292998843,288.4550075000152,None,right,0.8137217001058161,292.1455016001128,ae11,284.9512292998843,288.4550075000152,292.1455016001128,None,True,5.0,['p'],False,0.25,0.5,0.5,1.0,1.0,0.9463946303571862,0.0122551342604393,succ_gain,1.0,6.0,,,ae11,1,2022-04-29_14h28.10.531,threat_forest,2021.2.3,59.998619923447386,True,71.0,0.35,0.4666666666666666,-1.7350000000000003,-1.3119444444444446,0,0,1,-0.20613686319980648,0.0122551342604393,0.25,0.25,0.5,0.5,-2.0,-1.75,3.25,3.25,0.0,1.0,-1.0,5.0,0,0,0
8.0,0.0,8.0,0.0,1.0,0.0,1.0,0.0,,,,left,0.8886720999144018,297.906667499803,ae11,284.9512292998843,288.4550075000152,297.906667499803,None,False,6.0,['p'],False,0.25,0.5,0.5,1.0,1.0,0.9463946303571862,-0.1389304220625,wait_cost,1.0,5.0,294.98877219995484,None,ae11,1,2022-04-29_14h28.10.531,threat_forest,2021.2.3,59.998619923447386,False,71.0,0.35,0.4666666666666666,-1.7350000000000003,-1.3119444444444446,0,0,0,-0.11802695299809773,-0.1389304220625,0.25,0.25,0.5,0.5,-2.0,-1.75,4.25,4.25,0.0,1.0,1.0,6.0,0,0,0
8.0,0.0,8.0,0.0,2.0,0.0,2.0,0.0,,,,right,1.3201218997128308,302.97242729971185,ae11,284.9512292998843,288.4550075000152,302.97242729971185,None,True,5.0,['p'],False,0.25,0.5,0.5,1.0,1.0,0.9463946303571862,0.0321252749999999,unsucc_cost,1.0,3.0,300.82221619971097,None,ae11,1,2022-04-29_14h28.10.531,threat_forest,2021.2.3,59.998619923447386,True,71.0,0.35,0.4666666666666666,-1.7350000000000003,-1.3119444444444446,0,0,1,0.2777240806017368,0.0321252749999999,0.25,0.25,0.5,0.5,-2.0,-1.75,3.25,3.25,0.0,1.0,-1.0,5.0,0,0,0
8.0,0.0,8.0,0.0,3.0,0.0,3.0,0.0,,,,right,1.395718699786812,307.57288149977103,ae11,284.9512292998843,288.4550075000152,307.57288149977103,None,True,3.0,['p'],False,0.25,0.5,0.5,1.0,1.0,0.9463946303571862,0.0315734062499999,succ_gain,1.0,4.0,306.33928339974955,None,ae11,1,2022-04-29_14h28.10.531,threat_forest,2021.2.3,59.998619923447386,True,71.0,0.35,0.4666666666666666,-1.7350000000000003,-1.3119444444444446,0,0,1,0.3334094795847235,0.0315734062499999,0.25,0.25,0.5,0.5,-2.0,-1.75,1.25,1.25,0.0,1.0,-1.0,3.0,0,0,0
8.0,0.0,8.0,0.0,4.0,0.0,4.0,0.0,,,,left,0.7325797998346388,311.7406570999883,ae11,284.9512292998843,288.4550075000152,311.7406570999883,None,False,4.0,['p'],False,0.25,0.5,0.5,1.0,1.0,0.9463946303571862,0.0339687500000001,wait_cost,1.0,3.0,310.98916140012443,None,ae11,1,2022-04-29_14h28.10.531,threat_forest,2021.2.3,59.998619923447386,False,71.0,0.35,0.4666666666666666,-1.7350000000000003,-1.3119444444444446,0,0,0,-0.31118300227086343,0.0339687500000001,0.25,0.25,0.5,0.5,-2.0,-1.75,2.25,2.25,0.0,1.0,1.0,4.0,0,0,0
8.0,0.0,8.0,0.0,5.0,0.0,5.0,0.0,,,,left,0.7118739997968078,318.26191469980404,ae11,284.9512292998843,288.4550075000152,318.26191469980404,None,False,3.0,['p'],False,0.25,0.5,0.5,1.0,1.0,0.9463946303571862,0.0737499999999999,wait_cost,1.0,2.0,314.5225005997345,None,ae11,1,2022-04-29_14h28.10.531,threat_forest,2021.2.3,59.998619923447386,False,71.0,0.35,0.4666666666666666,-1.7350000000000003,-1.3119444444444446,0,0,0,-0.33985434980811086,0.0737499999999999,0.25,0.25,0.5,0.5,-2.0,-1.75,1.25,1.25,0.0,1.0,-1.0,3.0,0,0,0
8.0,0.0,8.0,0.0,6.0,0.0,6.0,0.0,,,,left,0.6960630998946726,323.5897299000062,ae11,284.9512292998843,288.4550075000152,323.5897299000062,None,False,2.0,['p'],False,0.25,0.5,0.5,1.0,1.0,0.9463946303571862,0.045,wait_cost,1.0,1.0,321.0061065000482,None,ae11,1,2022-04-29_14h28.10.531,threat_forest,2021.2.3,59.998619923447386,False,71.0,0.35,0.4666666666666666,-1.7350000000000003,-1.3119444444444446,0,0,0,-0.3623149619889487,0.045,0.25,0.25,0.5,0.5,-2.0,-1.75,0.25,0.25,0.0,1.0,-1.0,2.0,0,0,0
8.0,0.0,8.0,0.0,7.0,0.0,7.0,0.0,,,,left,0.494882000144571,328.9897214998491,ae11,284.9512292998843,288.4550075000152,328.9897214998491,None,False,1.0,['p'],False,0.25,0.5,0.5,1.0,1.0,0.9463946303571862,0.25,wait_cost,1.0,0.0,326.3059673998505,None,ae11,1,2022-04-29_14h28.10.531,threat_forest,2021.2.3,59.998619923447386,False,71.0,0.35,0.4666666666666666,-1.7350000000000003,-1.3119444444444446,0,0,0,-0.7034359283776418,0.25,1.0,0.25,0.5,0.5,-2.0,-1.75,-0.75,0.0,0.0,1.0,-1.0,1.0,1,0,0
9.0,0.0,9.0,0.0,0.0,0.0,0.0,0.0,333.78669859981164,337.2898587998934,None,right,0.7241283999755979,338.8851302000694,ae11,338.8851302000694,None,333.78669859981164,337.2898587998934,False,4.0,['p'],True,0.27,0.3,0.1,1.0,2.0,0.7963326591781347,0.0116156252879662,wait_cost,0.0,3.0,,,ae11,1,2022-04-29_14h28.10.531,threat_forest,2021.2.3,59.998619923447386,False,1.0,0.4833333333333333,0.41666666666666663,-0.7877777777777778,-1.2613888888888891,1,0,0,-0.3227865542881302,0.0116156252879662,0.27,0.27,0.3,0.9,-1.1,-1.02,2.98,2.98,1.0,2.0,-1.0,4.0,0,0,1
9.0,0.0,9.0,0.0,1.0,0.0,1.0,0.0,,,,right,0.7775288997218013,344.0598662998528,ae11,344.0598662998528,None,333.78669859981164,337.2898587998934,False,3.0,['p'],True,0.27,0.3,0.1,1.0,2.0,0.7963326591781347,0.0431681748711396,wait_cost,0.0,2.0,341.6396107999608,None,ae11,1,2022-04-29_14h28.10.531,threat_forest,2021.2.3,59.998619923447386,False,1.0,0.4833333333333333,0.41666666666666663,-0.7877777777777778,-1.2613888888888891,1,0,0,-0.2516344655593428,0.0431681748711396,0.27,0.27,0.3,0.9,-1.1,-1.02,1.98,1.98,1.0,2.0,-1.0,3.0,0,0,1
9.0,0.0,9.0,0.0,2.0,0.0,2.0,0.0,,,,right,0.581220000050962,349.59306399989873,ae11,344.85682020010427,346.8561177998781,349.59306399989873,None,True,2.0,['p'],False,0.4444444444444445,0.6666666666666666,0.3333333333333333,1.0,2.0,0.9656336071428248,0.0702178235965045,succ_gain,1.0,4.0,346.8561177998781,None,ae11,1,2022-04-29_14h28.10.531,threat_forest,2021.2.3,59.998619923447386,True,1.0,0.4833333333333333,0.41666666666666663,-0.7877777777777778,-1.2613888888888891,1,1,1,-0.5426259362281075,0.0702178235965045,0.4444444444444445,0.4444444444444445,0.6666666666666666,0.6666666666666667,-0.3333333333333335,-0.5555555555555556,1.4444444444444444,1.4444444444444444,0.0,2.0,-1.0,2.0,0,1,1
9.0,0.0,9.0,0.0,3.0,0.0,3.0,0.0,,,,right,0.6524991998448968,355.1135279000737,ae11,355.1135279000737,None,350.20681319991127,352.2063651997596,False,4.0,['p'],True,0.27,0.3,0.1,1.0,2.0,0.7963326591781347,0.03128469792524,wait_cost,0.0,3.0,352.2063651997596,None,ae11,1,2022-04-29_14h28.10.531,threat_forest,2021.2.3,59.998619923447386,False,1.0,0.4833333333333333,0.41666666666666663,-0.7877777777777778,-1.2613888888888891,1,0,0,-0.42694536607738637,0.03128469792524,0.27,0.27,0.3,0.9,-1.1,-1.02,2.98,2.98,1.0,2.0,1.0,4.0,0,0,1
9.0,0.0,9.0,0.0,4.0,0.0,4.0,0.0,,,,right,0.795864500105381,359.21044990001246,ae11,355.7901107999496,357.7899397998117,359.21044990001246,None,True,3.0,['p'],False,0.4444444444444445,0.6666666666666666,0.3333333333333333,1.0,2.0,0.9656336071428248,0.1229938271604937,figh_cost,1.0,0.0,357.7899397998117,None,ae11,1,2022-04-29_14h28.10.531,threat_forest,2021.2.3,59.998619923447386,True,1.0,0.4833333333333333,0.41666666666666663,-0.7877777777777778,-1.2613888888888891,1,1,1,-0.22832633362610877,0.1229938271604937,0.4444444444444445,0.4444444444444445,0.6666666666666666,0.6666666666666667,-0.3333333333333335,-0.5555555555555556,2.4444444444444446,2.4444444444444446,0.0,2.0,-1.0,3.0,0,1,1
10.0,0.0,10.0,0.0,0.0,0.0,0.0,0.0,364.14924159972,367.6568760997616,None,left,0.7363102999515831,369.9498439999297,ae11,364.14924159972,367.6568760997616,369.9498439999297,None,False,5.0,['p'],False,0.2040816326530612,0.2857142857142857,0.2857142857142857,2.0,2.0,0.9335459102197724,-0.0417655517413427,wait_cost,1.0,4.0,,,ae11,1,2022-04-29_14h28.10.531,threat_forest,2021.2.3,59.998619923447386,False,21.0,0.47619047619047616,0.4797619047619047,-1.012471655328798,-0.900124716553288,0,0,0,-0.30610364590783007,-0.0417655517413427,0.2040816326530612,0.2040816326530612,0.2857142857142857,0.7142857142857143,-1.7142857142857144,-1.4693877551020407,3.5306122448979593,3.5306122448979593,0.0,2.0,-1.0,5.0,0,0,0
10.0,0.0,10.0,0.0,1.0,0.0,1.0,0.0,,,,left,0.7915603998117149,375.8614488998428,ae11,375.8614488998428,None,370.70691550010815,372.7069592997432,True,4.0,['p'],True,0.4444444444444445,0.6666666666666666,0.3333333333333333,1.0,2.0,0.9656336071428248,0.1275977123343487,unsucc_cost,0.0,2.0,372.7069592997432,None,ae11,1,2022-04-29_14h28.10.531,threat_forest,2021.2.3,59.998619923447386,True,21.0,0.47619047619047616,0.4797619047619047,-1.012471655328798,-0.900124716553288,1,0,1,-0.23374909200818295,0.1275977123343487,0.4444444444444445,0.4444444444444445,0.6666666666666666,0.6666666666666667,-0.3333333333333335,-0.5555555555555556,3.4444444444444446,3.4444444444444446,1.0,2.0,-1.0,4.0,0,0,1
10.0,0.0,10.0,0.0,2.0,0.0,2.0,0.0,,,,left,0.7186410999856889,379.1902185999788,ae11,379.1902185999788,None,370.70691550010815,372.7069592997432,True,2.0,['p'],True,0.4444444444444445,0.6666666666666666,0.3333333333333333,1.0,2.0,0.9656336071428248,0.0826028463262662,figh_cost,0.0,0.0,378.6736920997501,None,ae11,1,2022-04-29_14h28.10.531,threat_forest,2021.2.3,59.998619923447386,True,21.0,0.47619047619047616,0.4797619047619047,-1.012471655328798,-0.900124716553288,1,0,1,-0.3303932114132299,0.0826028463262662,0.4444444444444445,0.4444444444444445,0.6666666666666666,0.6666666666666667,-0.3333333333333335,-0.5555555555555556,1.4444444444444444,1.4444444444444444,1.0,2.0,-1.0,2.0,0,0,1
11.0,0.0,11.0,0.0,0.0,0.0,0.0,0.0,382.6538430000656,386.1570500996895,None,left,1.137201300356537,386.7575535997749,ae11,382.6538430000656,386.1570500996895,386.7575535997749,None,False,4.0,['p'],False,0.2962962962962963,0.3333333333333333,0.1111111111111111,1.0,2.0,0.8325252476189534,0.0040645764059328,wait_cost,1.0,3.0,,,ae11,1,2022-04-29_14h28.10.531,threat_forest,2021.2.3,59.998619923447386,False,22.0,0.41666666666666663,0.4464285714285714,-0.7129629629629629,-0.8627173091458804,0,0,0,0.12857024426621105,0.0040645764059328,0.2962962962962963,0.2962962962962963,0.3333333333333333,0.8888888888888888,-1.0000000000000002,-0.925925925925926,3.074074074074074,3.074074074074074,0.0,2.0,-1.0,4.0,0,0,0
11.0,0.0,11.0,0.0,1.0,0.0,1.0,0.0,,,,left,1.0189935001544654,391.195370899979,ae11,382.6538430000656,386.1570500996895,391.195370899979,None,False,3.0,['p'],False,0.2962962962962963,0.3333333333333333,0.1111111111111111,1.0,2.0,0.8325252476189534,0.0620848397426785,wait_cost,1.0,2.0,389.9234436000697,None,ae11,1,2022-04-29_14h28.10.531,threat_forest,2021.2.3,59.998619923447386,False,22.0,0.41666666666666663,0.4464285714285714,-0.7129629629629629,-0.8627173091458804,0,0,0,0.018815375569081604,0.0620848397426785,0.2962962962962963,0.2962962962962963,0.3333333333333333,0.8888888888888888,-1.0000000000000002,-0.925925925925926,2.074074074074074,2.074074074074074,0.0,2.0,-1.0,3.0,0,0,0
11.0,0.0,11.0,0.0,2.0,0.0,2.0,0.0,,,,left,0.7242522998712957,397.4621704998426,ae11,382.6538430000656,386.1570500996895,397.4621704998426,None,False,2.0,['p'],False,0.2962962962962963,0.3333333333333333,0.1111111111111111,1.0,2.0,0.8325252476189534,-0.0199136464224679,wait_cost,1.0,1.0,394.2404447998852,None,ae11,1,2022-04-29_14h28.10.531,threat_forest,2021.2.3,59.998619923447386,False,22.0,0.41666666666666663,0.4464285714285714,-0.7129629629629629,-0.8627173091458804,0,0,0,-0.3226154668164273,-0.0199136464224679,0.2962962962962963,0.2962962962962963,0.3333333333333333,0.8888888888888888,-1.0000000000000002,-0.925925925925926,1.074074074074074,1.074074074074074,0.0,2.0,-1.0,2.0,0,0,0
11.0,0.0,11.0,0.0,3.0,0.0,3.0,0.0,,,,left,0.8397288001142442,401.0263396999799,ae11,401.0263396999799,None,398.2071706000716,400.20745670003816,True,1.0,['p'],True,0.4166666666666667,0.5,0.1666666666666666,1.0,2.0,0.9358932809493992,0.2234885831047097,succ_gain,0.0,3.0,400.20745670003816,None,ae11,1,2022-04-29_14h28.10.531,threat_forest,2021.2.3,59.998619923447386,True,22.0,0.41666666666666663,0.4464285714285714,-0.7129629629629629,-0.8627173091458804,1,0,1,-0.17467629628117387,0.2234885831047097,1.0,0.4166666666666667,0.5,0.8333333333333334,-0.4999999999999998,-0.4999999999999998,0.5000000000000002,0.5000000000000002,1.0,2.0,-1.0,1.0,1,0,1
11.0,0.0,11.0,0.0,4.0,0.0,4.0,0.0,,,,left,0.8092498001642525,404.9085701000877,ae11,401.89081679983065,403.89044889993966,404.9085701000877,None,False,3.0,['p'],False,0.2962962962962963,0.3333333333333333,0.1111111111111111,1.0,2.0,0.8325252476189534,0.1209705075445815,wait_cost,1.0,2.0,403.89044889993966,None,ae11,1,2022-04-29_14h28.10.531,threat_forest,2021.2.3,59.998619923447386,False,22.0,0.41666666666666663,0.4464285714285714,-0.7129629629629629,-0.8627173091458804,0,0,0,-0.2116476331152608,0.1209705075445815,0.2962962962962963,0.2962962962962963,0.3333333333333333,0.8888888888888888,-1.0000000000000002,-0.925925925925926,2.074074074074074,2.074074074074074,0.0,2.0,1.0,3.0,0,0,0
11.0,0.0,11.0,0.0,5.0,0.0,5.0,0.0,,,,left,0.6499393000267446,410.3637786000036,ae11,410.3637786000036,None,405.7408369998448,407.74075850006193,True,2.0,['p'],True,0.4166666666666667,0.5,0.1666666666666666,1.0,2.0,0.9358932809493992,0.0601851851851852,unsucc_cost,0.0,0.0,407.74075850006193,None,ae11,1,2022-04-29_14h28.10.531,threat_forest,2021.2.3,59.998619923447386,True,22.0,0.41666666666666663,0.4464285714285714,-0.7129629629629629,-0.8627173091458804,1,0,1,-0.4308763050273042,0.0601851851851852,0.4166666666666667,0.4166666666666667,0.5,0.8333333333333334,-0.4999999999999998,-0.4999999999999998,1.5000000000000002,1.5000000000000002,1.0,2.0,-1.0,2.0,0,0,1
12.0,0.0,12.0,0.0,0.0,0.0,0.0,0.0,415.9359993999824,419.4411031999625,None,right,0.9755470999516548,420.3484642999247,ae11,415.9359993999824,419.4411031999625,420.3484642999247,None,True,5.0,['r'],False,0.3333333333333333,0.3333333333333333,0.0,0.0,1.0,0.5793801642856949,0.0360091124884982,unsucc_cost,1.0,3.0,,,ae11,1,2022-04-29_14h28.10.531,threat_forest,2021.2.3,59.998619923447386,True,66.0,0.5,0.4583333333333333,-1.5,-1.1064814814814814,1,0,1,-0.024756837202281584,0.0360091124884982,0.3333333333333333,0.3333333333333333,0.3333333333333333,1.0,-1.0000000000000002,-1.0000000000000002,4.0,4.0,0.0,1.0,-1.0,5.0,0,0,1
12.0,0.0,12.0,0.0,1.0,0.0,1.0,0.0,,,,right,0.7028242000378668,426.3770027998835,ae11,415.9359993999824,419.4411031999625,426.3770027998835,None,True,3.0,['r'],False,0.3333333333333333,0.3333333333333333,0.0,0.0,1.0,0.5793801642856949,0.0403131826957271,succ_gain,1.0,4.0,423.34111629985273,None,ae11,1,2022-04-29_14h28.10.531,threat_forest,2021.2.3,59.998619923447386,True,66.0,0.5,0.4583333333333333,-1.5,-1.1064814814814814,1,0,1,-0.35264848951434663,0.0403131826957271,0.3333333333333333,0.3333333333333333,0.3333333333333333,1.0,-1.0000000000000002,-1.0000000000000002,1.9999999999999998,1.9999999999999998,0.0,1.0,-1.0,3.0,0,0,1
12.0,0.0,12.0,0.0,2.0,0.0,2.0,0.0,,,,right,0.9971585003659128,430.99564810004085,ae11,430.99564810004085,None,427.10779629973695,429.1079373997636,False,4.0,['r'],True,0.2222222222222222,0.6666666666666666,0.6666666666666666,2.0,1.0,0.77250688571426,-0.0169514936747448,wait_cost,0.0,3.0,429.1079373997636,None,ae11,1,2022-04-29_14h28.10.531,threat_forest,2021.2.3,59.998619923447386,False,66.0,0.5,0.4583333333333333,-1.5,-1.1064814814814814,0,0,0,-0.0028455443580439493,-0.0169514936747448,0.2222222222222222,0.2222222222222222,0.6666666666666666,0.33333333333333337,-2.0,-2.0,2.0,2.0,1.0,1.0,1.0,4.0,0,0,0
12.0,0.0,12.0,0.0,3.0,0.0,3.0,0.0,,,,right,0.697890100069344,435.0307660000399,ae11,432.0246724998578,434.02451829984784,435.0307660000399,None,True,3.0,['r'],False,0.3333333333333333,0.3333333333333333,0.0,0.0,1.0,0.5793801642856949,0.1003086419753085,unsucc_cost,1.0,1.0,434.02451829984784,None,ae11,1,2022-04-29_14h28.10.531,threat_forest,2021.2.3,59.998619923447386,True,66.0,0.5,0.4583333333333333,-1.5,-1.1064814814814814,1,0,1,-0.35969363837366564,0.1003086419753085,0.3333333333333333,0.3333333333333333,0.3333333333333333,1.0,-1.0000000000000002,-1.0000000000000002,1.9999999999999998,1.9999999999999998,0.0,1.0,-1.0,3.0,0,0,1
12.0,0.0,12.0,0.0,4.0,0.0,4.0,0.0,,,,left,0.8060440998524427,440.2456529997289,ae11,440.2456529997289,None,435.7576329000294,437.757938799914,True,1.0,['r'],True,0.2222222222222222,0.6666666666666666,0.6666666666666666,2.0,1.0,0.77250688571426,0.0679012345679012,figh_cost,0.0,0.0,437.757938799914,None,ae11,1,2022-04-29_14h28.10.531,threat_forest,2021.2.3,59.998619923447386,True,66.0,0.5,0.4583333333333333,-1.5,-1.1064814814814814,0,0,1,-0.2156168235151651,0.0679012345679012,1.0,0.2222222222222222,0.6666666666666666,0.33333333333333337,-2.0,-2.0,-1.0,0.0,1.0,1.0,-1.0,1.0,1,0,0
13.0,0.0,13.0,0.0,0.0,0.0,0.0,0.0,446.038227299694,449.54237919999287,None,right,1.227237899787724,450.2531556999311,ae11,450.2531556999311,None,446.038227299694,449.54237919999287,False,5.0,['p'],True,0.16,0.2,0.2,2.0,1.0,0.8198746470064713,-0.0406469608296754,wait_cost,0.0,4.0,,,ae11,1,2022-04-29_14h28.10.531,threat_forest,2021.2.3,59.998619923447386,False,3.0,0.35,0.425,-1.4225000000000003,-1.4612500000000002,0,0,0,0.20476603429260817,-0.0406469608296754,0.16,0.16,0.2,0.8,-2.0,-1.7200000000000004,3.2799999999999994,3.2799999999999994,1.0,1.0,-1.0,5.0,0,0,0
13.0,0.0,13.0,0.0,1.0,0.0,1.0,0.0,,,,right,0.6488735000602901,454.6024164999835,ae11,451.5081325997599,453.50819549988955,454.6024164999835,None,True,4.0,['p'],False,0.375,0.5,0.25,1.0,1.0,0.9850568223215076,0.0507783712463378,figh_cost,1.0,1.0,453.5081954998896,None,ae11,1,2022-04-29_14h28.10.531,threat_forest,2021.2.3,59.998619923447386,True,3.0,0.35,0.425,-1.4225000000000003,-1.4612500000000002,1,0,1,-0.43251749643781623,0.0507783712463378,0.375,0.375,0.5,0.75,-1.25,-1.125,2.875,2.875,0.0,1.0,-1.0,4.0,0,0,1
13.0,0.0,13.0,0.0,2.0,0.0,2.0,0.0,,,,right,0.6447749002836645,460.6427986999042,ae11,451.5081325997599,453.50819549988955,460.6427986999042,None,True,1.0,['p'],False,0.375,0.5,0.25,1.0,1.0,0.9850568223215076,0.0417231582641601,succ_gain,1.0,2.0,457.2747427998111,None,ae11,1,2022-04-29_14h28.10.531,threat_forest,2021.2.3,59.998619923447386,True,3.0,0.35,0.425,-1.4225000000000003,-1.4612500000000002,1,0,1,-0.43885401490645004,0.0417231582641601,1.0,0.375,0.5,0.75,-1.25,-1.125,-0.125,0.0,0.0,1.0,-1.0,1.0,1,0,1
13.0,0.0,13.0,0.0,3.0,0.0,3.0,0.0,,,,right,0.5351724997162819,466.5672021000646,ae11,466.5672021000646,None,461.3085830998607,463.307869900018,False,2.0,['p'],True,0.16,0.2,0.2,2.0,1.0,0.8198746470064713,-0.0276563437499999,wait_cost,0.0,1.0,463.307869900018,None,ae11,1,2022-04-29_14h28.10.531,threat_forest,2021.2.3,59.998619923447386,False,3.0,0.35,0.425,-1.4225000000000003,-1.4612500000000002,0,0,0,-0.6251661546790833,-0.0276563437499999,0.16,0.16,0.2,0.8,-2.0,-1.7200000000000004,0.2799999999999996,0.2799999999999996,1.0,1.0,1.0,2.0,0,0,0
13.0,0.0,13.0,0.0,4.0,0.0,4.0,0.0,,,,right,0.6569531001150608,470.9808088000864,ae11,470.9808088000864,None,461.3085830998607,463.307869900018,False,1.0,['p'],True,0.16,0.2,0.2,2.0,1.0,0.8198746470064713,0.0513999999999998,wait_cost,0.0,0.0,469.1251912000589,None,ae11,1,2022-04-29_14h28.10.531,threat_forest,2021.2.3,59.998619923447386,False,3.0,0.35,0.425,-1.4225000000000003,-1.4612500000000002,0,0,0,-0.42014264795413364,0.0513999999999998,1.0,0.16,0.2,0.8,-2.0,-1.7200000000000004,-0.7200000000000004,0.0,1.0,1.0,-1.0,1.0,1,0,0
14.0,0.0,14.0,0.0,0.0,0.0,0.0,0.0,475.7922577001154,479.2839724998921,None,right,0.7855714000761509,481.4550656001084,ae11,481.4550656001084,None,475.7922577001154,479.2839724998921,False,5.0,['p'],True,0.1975308641975308,0.2222222222222222,0.1111111111111111,1.0,1.0,0.7461067557824965,-0.0071988747894753,wait_cost,0.0,4.0,,,ae11,1,2022-04-29_14h28.10.531,threat_forest,2021.2.3,59.998619923447386,False,48.0,0.3111111111111111,0.33055555555555555,-1.3792592592592592,-1.4008796296296298,0,0,0,-0.2413439278029485,-0.0071988747894753,0.1975308641975308,0.1975308641975308,0.2222222222222222,0.8888888888888888,-1.6666666666666667,-1.5185185185185184,3.481481481481482,3.481481481481482,1.0,1.0,-1.0,5.0,0,0,0
14.0,0.0,14.0,0.0,1.0,0.0,1.0,0.0,,,,right,1.2388814999721944,485.4164661001414,ae11,482.25870240014046,484.25852310005575,485.4164661001414,None,True,4.0,['p'],False,0.32,0.4,0.2,1.0,1.0,0.9455672104350704,0.0393429374403599,unsucc_cost,1.0,2.0,484.25852310005575,None,ae11,1,2022-04-29_14h28.10.531,threat_forest,2021.2.3,59.998619923447386,True,48.0,0.3111111111111111,0.33055555555555555,-1.3792592592592592,-1.4008796296296298,1,0,1,0.2142089564041183,0.0393429374403599,0.32,0.32,0.4,0.8,-1.4,-1.24,2.76,2.76,0.0,1.0,-1.0,4.0,0,0,1
14.0,0.0,14.0,0.0,2.0,0.0,2.0,0.0,,,,right,1.0397067000158131,491.0825368999504,ae11,491.0825368999504,None,486.6755272997543,488.6754073998891,False,2.0,['p'],True,0.1975308641975308,0.2222222222222222,0.1111111111111111,1.0,1.0,0.7461067557824965,0.0037858795279334,wait_cost,0.0,1.0,488.6754073998891,None,ae11,1,2022-04-29_14h28.10.531,threat_forest,2021.2.3,59.998619923447386,False,48.0,0.3111111111111111,0.33055555555555555,-1.3792592592592592,-1.4008796296296298,0,0,0,0.03893865416281964,0.0037858795279334,0.1975308641975308,0.1975308641975308,0.2222222222222222,0.8888888888888888,-1.6666666666666667,-1.5185185185185184,0.4814814814814816,0.4814814814814816,1.0,1.0,-1.0,2.0,0,0,0
14.0,0.0,14.0,0.0,3.0,0.0,3.0,0.0,,,,left,0.7277901000343263,496.6115688998252,ae11,496.6115688998252,None,486.6755272997543,488.6754073998891,True,1.0,['p'],True,0.1975308641975308,0.2222222222222222,0.1111111111111111,1.0,1.0,0.7461067557824965,0.0209731064269448,unsucc_cost,0.0,0.0,494.142064999789,None,ae11,1,2022-04-29_14h28.10.531,threat_forest,2021.2.3,59.998619923447386,True,48.0,0.3111111111111111,0.33055555555555555,-1.3792592592592592,-1.4008796296296298,0,0,1,-0.31774259648751657,0.0209731064269448,1.0,0.1975308641975308,0.2222222222222222,0.8888888888888888,-1.6666666666666667,-1.5185185185185184,-0.5185185185185184,0.0,1.0,1.0,-1.0,1.0,1,0,0
15.0,0.0,15.0,0.0,0.0,0.0,0.0,0.0,500.9986363998614,504.5086594000459,None,right,0.7721493998542428,507.5188188999891,ae11,507.5188188999891,None,500.9986363998614,504.5086594000459,False,4.0,['r'],True,0.36,0.6,0.4,2.0,1.0,0.9801625908629508,0.0090639294214999,wait_cost,0.0,3.0,,,ae11,1,2022-04-29_14h28.10.531,threat_forest,2021.2.3,59.998619923447386,False,0.0,0.55,0.4305555555555556,-0.9100000000000001,-1.1446296296296297,0,0,0,-0.25857722455328824,0.0090639294214999,0.36,0.36,0.6,0.6,-1.4000000000000004,-1.3200000000000003,2.6799999999999997,2.6799999999999997,1.0,1.0,-1.0,4.0,0,0,0
15.0,0.0,15.0,0.0,1.0,0.0,1.0,0.0,,,,right,0.7480354001745582,511.0441590999253,ae11,511.0441590999253,None,500.9986363998614,504.5086594000459,False,3.0,['r'],True,0.36,0.6,0.4,2.0,1.0,0.9801625908629508,0.0196917849999999,wait_cost,0.0,2.0,510.3088410999626,None,ae11,1,2022-04-29_14h28.10.531,threat_forest,2021.2.3,59.998619923447386,False,0.0,0.55,0.4305555555555556,-0.9100000000000001,-1.1446296296296297,0,0,0,-0.2903049756909452,0.0196917849999999,0.36,0.36,0.6,0.6,-1.4000000000000004,-1.3200000000000003,1.6799999999999997,1.6799999999999997,1.0,1.0,-1.0,3.0,0,0,0
15.0,0.0,15.0,0.0,2.0,0.0,2.0,0.0,,,,right,1.0475973999127746,515.6923695998266,ae11,515.6923695998266,None,500.9986363998614,504.5086594000459,False,2.0,['r'],True,0.36,0.6,0.4,2.0,1.0,0.9801625908629508,0.0199038400000001,wait_cost,0.0,1.0,513.808662999887,None,ae11,1,2022-04-29_14h28.10.531,threat_forest,2021.2.3,59.998619923447386,False,0.0,0.55,0.4305555555555556,-0.9100000000000001,-1.1446296296296297,0,0,0,0.04649935170177098,0.0199038400000001,0.36,0.36,0.6,0.6,-1.4000000000000004,-1.3200000000000003,0.6799999999999997,0.6799999999999997,1.0,1.0,-1.0,2.0,0,0,0
15.0,0.0,15.0,0.0,3.0,0.0,3.0,0.0,,,,right,0.6147648999467492,521.8621152997948,ae11,516.7593204998411,518.7588758999482,521.8621152997948,None,True,1.0,['r'],False,0.5,0.5,0.0,0.0,1.0,0.6309297535714574,0.1268499999999999,succ_gain,1.0,2.0,518.7588758999482,None,ae11,1,2022-04-29_14h28.10.531,threat_forest,2021.2.3,59.998619923447386,True,0.0,0.55,0.4305555555555556,-0.9100000000000001,-1.1446296296296297,1,1,1,-0.48651536077126156,0.1268499999999999,1.0,0.5,0.5,1.0,-0.5,-0.5,0.5,0.5,0.0,1.0,-1.0,1.0,1,1,1
15.0,0.0,15.0,0.0,4.0,0.0,4.0,0.0,,,,right,0.6226603002287447,527.7650659000501,ae11,527.7650659000501,None,522.509527800139,524.5088642998599,False,2.0,['r'],True,0.36,0.6,0.4,2.0,1.0,0.9801625908629508,0.0124499999999999,wait_cost,0.0,1.0,524.5088642998599,None,ae11,1,2022-04-29_14h28.10.531,threat_forest,2021.2.3,59.998619923447386,False,0.0,0.55,0.4305555555555556,-0.9100000000000001,-1.1446296296296297,0,0,0,-0.4737541733857664,0.0124499999999999,0.36,0.36,0.6,0.6,-1.4000000000000004,-1.3200000000000003,0.6799999999999997,0.6799999999999997,1.0,1.0,1.0,2.0,0,0,0
15.0,0.0,15.0,0.0,5.0,0.0,5.0,0.0,,,,right,0.4877872997894883,531.2316712001339,ae11,528.4093841998838,530.4092949000187,531.2316712001339,None,True,1.0,['r'],False,0.5,0.5,0.0,0.0,1.0,0.6309297535714574,0.2324999999999999,succ_gain,1.0,2.0,530.4092949000187,None,ae11,1,2022-04-29_14h28.10.531,threat_forest,2021.2.3,59.998619923447386,True,0.0,0.55,0.4305555555555556,-0.9100000000000001,-1.1446296296296297,1,1,1,-0.7178758292311576,0.2324999999999999,1.0,0.5,0.5,1.0,-0.5,-0.5,0.5,0.5,0.0,1.0,-1.0,1.0,1,1,1
15.0,0.0,15.0,0.0,6.0,0.0,6.0,0.0,,,,right,0.4410532000474632,536.8095543999225,ae11,528.4093841998838,530.4092949000187,536.8095543999225,None,True,2.0,['r'],False,0.5,0.5,0.0,0.0,1.0,0.6309297535714574,0.07,unsucc_cost,1.0,0.0,533.7426335001364,None,ae11,1,2022-04-29_14h28.10.531,threat_forest,2021.2.3,59.998619923447386,True,0.0,0.55,0.4305555555555556,-0.9100000000000001,-1.1446296296296297,1,1,1,-0.8185897757828497,0.07,0.5,0.5,0.5,1.0,-0.5,-0.5,1.5,1.5,0.0,1.0,1.0,2.0,0,1,1
16.0,0.0,16.0,0.0,0.0,0.0,0.0,0.0,542.6387386000715,546.1429043998942,None,left,1.2988849999383092,547.8367755999789,ae11,542.6387386000715,546.1429043998942,547.8367755999789,None,False,5.0,['p'],False,0.18,0.2,0.1,1.0,1.0,0.7058405977926203,-0.0277547547885865,wait_cost,1.0,4.0,,,ae11,1,2022-04-29_14h28.10.531,threat_forest,2021.2.3,59.998619923447386,False,11.0,0.35,0.45,-1.3425000000000002,-1.1262500000000002,0,0,0,0.26150620408380437,-0.0277547547885865,0.18,0.18,0.2,0.9,-1.7000000000000002,-1.5600000000000003,3.4399999999999995,3.4399999999999995,0.0,1.0,-1.0,5.0,0,0,0
16.0,0.0,16.0,0.0,1.0,0.0,1.0,0.0,,,,left,0.7149979998357594,553.2985120997764,ae11,542.6387386000715,546.1429043998942,553.2985120997764,None,False,4.0,['p'],False,0.18,0.2,0.1,1.0,1.0,0.7058405977926203,-0.0205973805047607,wait_cost,1.0,3.0,551.1593641997315,None,ae11,1,2022-04-29_14h28.10.531,threat_forest,2021.2.3,59.998619923447386,False,11.0,0.35,0.45,-1.3425000000000002,-1.1262500000000002,0,0,0,-0.3354755337245465,-0.0205973805047607,0.18,0.18,0.2,0.9,-1.7000000000000002,-1.5600000000000003,2.4399999999999995,2.4399999999999995,0.0,1.0,-1.0,4.0,0,0,0
16.0,0.0,16.0,0.0,2.0,0.0,2.0,0.0,,,,left,0.5973416999913752,558.6831769999117,ae11,542.6387386000715,546.1429043998942,558.6831769999117,None,False,3.0,['p'],False,0.18,0.2,0.1,1.0,1.0,0.7058405977926203,-0.0159439686328126,wait_cost,1.0,2.0,556.0431904997677,None,ae11,1,2022-04-29_14h28.10.531,threat_forest,2021.2.3,59.998619923447386,False,11.0,0.35,0.45,-1.3425000000000002,-1.1262500000000002,0,0,0,-0.5152659675314739,-0.0159439686328126,0.18,0.18,0.2,0.9,-1.7000000000000002,-1.5600000000000003,1.4399999999999997,1.4399999999999997,0.0,1.0,-1.0,3.0,0,0,0
16.0,0.0,16.0,0.0,3.0,0.0,3.0,0.0,,,,left,0.5862875003367662,563.7981372997165,ae11,563.7981372997165,None,559.3098097997718,561.3098670998588,True,2.0,['p'],True,0.375,0.5,0.25,1.0,1.0,0.9850568223215076,0.0473156982421875,unsucc_cost,0.0,0.0,561.3098670998588,None,ae11,1,2022-04-29_14h28.10.531,threat_forest,2021.2.3,59.998619923447386,True,11.0,0.35,0.45,-1.3425000000000002,-1.1262500000000002,1,0,1,-0.5339449948081119,0.0473156982421875,0.375,0.375,0.5,0.75,-1.25,-1.125,0.875,0.875,1.0,1.0,-1.0,2.0,0,0,1
17.0,0.0,17.0,0.0,0.0,0.0,0.0,0.0,569.3717471999116,572.8766858000308,None,left,1.1734875002875924,573.9389009000733,ae11,569.3717471999116,572.8766858000308,573.9389009000733,None,False,4.0,['r'],False,0.28125,0.375,0.25,2.0,2.0,0.9634951148421658,-0.0007636143604934,wait_cost,1.0,3.0,,,ae11,1,2022-04-29_14h28.10.531,threat_forest,2021.2.3,59.998619923447386,False,40.0,0.35416666666666663,0.3520833333333333,-0.8958333333333335,-1.1191666666666669,0,0,0,0.15998008460124677,-0.0007636143604934,0.28125,0.28125,0.375,0.75,-1.25,-1.125,2.875,2.875,0.0,2.0,-1.0,4.0,0,0,0
17.0,0.0,17.0,0.0,1.0,0.0,1.0,0.0,,,,left,0.5425338000059128,579.9331638999283,ae11,579.9331638999283,None,575.1435464997776,577.143377199769,True,3.0,['r'],True,0.3333333333333333,0.3333333333333333,0.0,0.0,2.0,0.5793801642856949,0.1051879490716752,succ_gain,0.0,5.0,577.143377199769,None,ae11,1,2022-04-29_14h28.10.531,threat_forest,2021.2.3,59.998619923447386,True,40.0,0.35416666666666663,0.3520833333333333,-0.8958333333333335,-1.1191666666666669,1,0,1,-0.6115048913499813,0.1051879490716752,0.3333333333333333,0.3333333333333333,0.3333333333333333,1.0,-0.6666666666666669,-0.6666666666666669,2.333333333333333,2.333333333333333,1.0,2.0,-1.0,3.0,0,0,1
17.0,0.0,17.0,0.0,2.0,0.0,2.0,0.0,,,,left,0.7032953999005258,584.8390520997345,ae11,580.4938529999927,582.4936764999293,584.8390520997345,None,False,5.0,['r'],False,0.28125,0.375,0.25,2.0,2.0,0.9634951148421658,-0.0090943703910818,wait_cost,1.0,4.0,582.4936764999293,None,ae11,1,2022-04-29_14h28.10.531,threat_forest,2021.2.3,59.998619923447386,False,40.0,0.35416666666666663,0.3520833333333333,-0.8958333333333335,-1.1191666666666669,0,0,0,-0.35197827642533536,-0.0090943703910818,0.28125,0.28125,0.375,0.75,-1.25,-1.125,3.875,3.875,0.0,2.0,1.0,5.0,0,0,0
17.0,0.0,17.0,0.0,3.0,0.0,3.0,0.0,,,,left,0.7965558003634214,590.4479052000679,ae11,590.4479052000679,None,585.5603530998342,587.5603030999191,True,4.0,['r'],True,0.3333333333333333,0.3333333333333333,0.0,0.0,2.0,0.5793801642856949,0.0651312934027776,unsucc_cost,0.0,2.0,587.5603030999191,None,ae11,1,2022-04-29_14h28.10.531,threat_forest,2021.2.3,59.998619923447386,True,40.0,0.35416666666666663,0.3520833333333333,-0.8958333333333335,-1.1191666666666669,1,0,1,-0.22745809513245946,0.0651312934027776,0.3333333333333333,0.3333333333333333,0.3333333333333333,1.0,-0.6666666666666669,-0.6666666666666669,3.333333333333333,3.333333333333333,1.0,2.0,-1.0,4.0,0,0,1
17.0,0.0,17.0,0.0,4.0,0.0,4.0,0.0,,,,left,0.8074962999671698,593.9876288999803,ae11,591.2770797000267,593.2768365000375,593.9876288999803,None,False,2.0,['r'],False,0.28125,0.375,0.25,2.0,2.0,0.9634951148421658,-0.0260416666666666,wait_cost,1.0,1.0,593.2768365000375,None,ae11,1,2022-04-29_14h28.10.531,threat_forest,2021.2.3,59.998619923447386,False,40.0,0.35416666666666663,0.3520833333333333,-0.8958333333333335,-1.1191666666666669,0,0,0,-0.21381680597982353,-0.0260416666666666,0.28125,0.28125,0.375,0.75,-1.25,-1.125,0.875,0.875,0.0,2.0,-1.0,2.0,0,0,0
17.0,0.0,17.0,0.0,5.0,0.0,5.0,0.0,,,,left,0.7288597002625465,599.7635673996992,ae11,599.7635673996992,None,594.8331105997786,596.8439058000222,True,1.0,['r'],True,0.3333333333333333,0.3333333333333333,0.0,0.0,2.0,0.5793801642856949,0.3333333333333332,unsucc_cost,0.0,0.0,596.8439058000222,None,ae11,1,2022-04-29_14h28.10.531,threat_forest,2021.2.3,59.998619923447386,True,40.0,0.35416666666666663,0.3520833333333333,-0.8958333333333335,-1.1191666666666669,1,0,1,-0.3162740205535653,0.3333333333333332,1.0,0.3333333333333333,0.3333333333333333,1.0,-0.6666666666666669,-0.6666666666666669,0.33333333333333315,0.33333333333333315,1.0,2.0,-1.0,1.0,1,0,1
0.0,0.0,0.0,0.0,0.0,0.0,0.0,0.0,13.24880569986999,16.760542399715632,None,left,0.6842039003968239,17.798444699961692,ae11,17.798444699961692,None,13.24880569986999,16.760542399715632,True,4.0,['p'],True,0.25,0.25,0.0,0.0,1.0,0.5118595071429148,0.013244588621374,unsucc_cost,0.0,2.0,,,ae11,2,2022-04-29_14h41.34.857,threat_forest,2021.2.3,59.91044588103704,True,20.0,0.4583333333333333,0.40625,-1.625,-1.2604166666666667,1,0,1,-0.37949930578720553,0.013244588621374,0.25,0.25,0.25,1.0,-1.25,-1.25,2.75,2.75,1.0,1.0,-1.0,4.0,0,0,1
0.0,0.0,0.0,0.0,1.0,0.0,1.0,0.0,,,,left,0.8026390001177788,21.19642119994387,ae11,21.19642119994387,None,13.24880569986999,16.760542399715632,True,2.0,['p'],True,0.25,0.25,0.0,0.0,1.0,0.5118595071429148,0.0041767131925127,succ_gain,0.0,3.0,20.51015209965408,None,ae11,2,2022-04-29_14h41.34.857,threat_forest,2021.2.3,59.91044588103704,True,20.0,0.4583333333333333,0.40625,-1.625,-1.2604166666666667,1,0,1,-0.21985023010738416,0.0041767131925127,0.25,0.25,0.25,1.0,-1.25,-1.25,0.75,0.75,1.0,1.0,-1.0,2.0,0,0,1
0.0,0.0,0.0,0.0,2.0,0.0,2.0,0.0,,,,left,0.934628099668771,25.23433799995109,ae11,22.030359100084752,24.043845999985933,25.23433799995109,None,False,3.0,['p'],False,0.2222222222222222,0.6666666666666666,0.6666666666666666,2.0,1.0,0.77250688571426,0.0031536825646125,wait_cost,1.0,2.0,24.043845999985933,None,ae11,2,2022-04-29_14h41.34.857,threat_forest,2021.2.3,59.91044588103704,False,20.0,0.4583333333333333,0.40625,-1.625,-1.2604166666666667,0,0,0,-0.06760658318365055,0.0031536825646125,0.2222222222222222,0.2222222222222222,0.6666666666666666,0.33333333333333337,-2.0,-2.0,1.0,1.0,0.0,1.0,1.0,3.0,0,0,0
0.0,0.0,0.0,0.0,3.0,0.0,3.0,0.0,,,,left,0.6785250999964774,29.550618999637663,ae11,29.550618999637663,None,26.194108999799937,28.193795599974692,True,2.0,['p'],True,0.25,0.25,0.0,0.0,1.0,0.5118595071429148,0.0096239631558642,unsucc_cost,0.0,0.0,28.19379559997469,None,ae11,2,2022-04-29_14h41.34.857,threat_forest,2021.2.3,59.91044588103704,True,20.0,0.4583333333333333,0.40625,-1.625,-1.2604166666666667,1,0,1,-0.3878338070289197,0.0096239631558642,0.25,0.25,0.25,1.0,-1.25,-1.25,0.75,0.75,1.0,1.0,-1.0,2.0,0,0,1
1.0,0.0,1.0,0.0,0.0,0.0,0.0,0.0,35.75745359994471,39.26100849965587,None,left,0.3348689000122249,41.10311529971659,ae11,41.10311529971659,None,35.75745359994471,39.26100849965587,True,4.0,['p'],True,0.3333333333333333,0.3333333333333333,0.0,0.0,1.0,0.5793801642856949,0.0288602254985421,succ_gain,0.0,5.0,,,ae11,2,2022-04-29_14h41.34.857,threat_forest,2021.2.3,59.91044588103704,True,28.0,0.3666666666666667,0.4125,-1.3400000000000003,-1.4825000000000002,1,0,1,-1.0940161669989128,0.0288602254985421,0.3333333333333333,0.3333333333333333,0.3333333333333333,1.0,-1.0000000000000002,-1.0000000000000002,3.0,3.0,1.0,1.0,-1.0,4.0,0,0,1
1.0,0.0,1.0,0.0,1.0,0.0,1.0,0.0,,,,left,0.5933988001197577,45.94862450007349,ae11,45.94862450007349,None,35.75745359994471,39.26100849965587,True,5.0,['p'],True,0.3333333333333333,0.3333333333333333,0.0,0.0,1.0,0.5793801642856949,0.0568114824954731,unsucc_cost,0.0,3.0,43.46078359987587,None,ae11,2,2022-04-29_14h41.34.857,threat_forest,2021.2.3,59.91044588103704,True,28.0,0.3666666666666667,0.4125,-1.3400000000000003,-1.4825000000000002,1,0,1,-0.5218885931703355,0.0568114824954731,0.3333333333333333,0.3333333333333333,0.3333333333333333,1.0,-1.0000000000000002,-1.0000000000000002,4.0,4.0,1.0,1.0,1.0,5.0,0,0,1
1.0,0.0,1.0,0.0,2.0,0.0,2.0,0.0,,,,left,0.6866859002038836,50.09428839990869,ae11,50.09428839990869,None,35.75745359994471,39.26100849965587,True,3.0,['p'],True,0.3333333333333333,0.3333333333333333,0.0,0.0,1.0,0.5793801642856949,0.0487072941563785,unsucc_cost,0.0,1.0,48.56095709977672,None,ae11,2,2022-04-29_14h41.34.857,threat_forest,2021.2.3,59.91044588103704,True,28.0,0.3666666666666667,0.4125,-1.3400000000000003,-1.4825000000000002,1,0,1,-0.37587829625323704,0.0487072941563785,0.3333333333333333,0.3333333333333333,0.3333333333333333,1.0,-1.0000000000000002,-1.0000000000000002,1.9999999999999998,1.9999999999999998,1.0,1.0,-1.0,3.0,0,0,1
1.0,0.0,1.0,0.0,3.0,0.0,3.0,0.0,,,,left,0.6693830001167953,56.59475669963285,ae11,56.59475669963285,None,35.75745359994471,39.26100849965587,True,1.0,['p'],True,0.3333333333333333,0.3333333333333333,0.0,0.0,1.0,0.5793801642856949,0.04145412345679,unsucc_cost,0.0,0.0,52.81082409992814,None,ae11,2,2022-04-29_14h41.34.857,threat_forest,2021.2.3,59.91044588103704,True,28.0,0.3666666666666667,0.4125,-1.3400000000000003,-1.4825000000000002,1,0,1,-0.40139888622981423,0.04145412345679,1.0,0.3333333333333333,0.3333333333333333,1.0,-1.0000000000000002,-1.0000000000000002,-2.220446049250313e-16,0.0,1.0,1.0,-1.0,1.0,1,0,1
2.0,0.0,2.0,0.0,0.0,0.0,0.0,0.0,62.12510479986668,65.61692979978397,None,None,,67.17096709972247,ae11,62.12510479986668,65.61692979978397,67.17096709972247,None,False,4.0,['p'],False,0.1975308641975308,0.2222222222222222,0.1111111111111111,1.0,2.0,0.7461067557824965,-0.0011819097279037,wait_cost,1.0,3.0,,,ae11,2,2022-04-29_14h41.34.857,threat_forest,2021.2.3,59.91044588103704,None,54.0,0.2777777777777778,0.32222222222222224,-1.1882716049382718,-1.264135802469136,0,0,0,,-0.0011819097279037,0.1975308641975308,0.1975308641975308,0.2222222222222222,0.8888888888888888,-1.4444444444444444,-1.3209876543209877,2.6790123456790123,2.6790123456790123,0.0,2.0,-1.0,4.0,0,0,0
2.0,0.0,2.0,0.0,1.0,0.0,1.0,0.0,,,,left,0.6457458999939263,73.45206749998033,ae11,73.45206749998033,None,70.17809979990125,72.17794719990343,True,3.0,['p'],True,0.2777777777777778,0.3333333333333333,0.1666666666666666,1.0,2.0,0.8929352898779304,0.0571396934166679,unsucc_cost,0.0,1.0,72.17794719990343,None,ae11,2,2022-04-29_14h41.34.857,threat_forest,2021.2.3,59.91044588103704,True,54.0,0.2777777777777778,0.32222222222222224,-1.1882716049382718,-1.264135802469136,1,0,1,-0.4373491962420984,0.0571396934166679,0.2777777777777778,0.2777777777777778,0.3333333333333333,0.8333333333333334,-1.1666666666666665,-1.0555555555555556,1.9444444444444444,1.9444444444444444,1.0,2.0,-1.0,3.0,0,0,1
2.0,0.0,2.0,0.0,2.0,0.0,2.0,0.0,,,,left,0.7984720002859831,76.81176669988781,ae11,76.81176669988781,None,70.17809979990125,72.17794719990343,True,1.0,['p'],True,0.2777777777777778,0.3333333333333333,0.1666666666666666,1.0,2.0,0.8929352898779304,0.0818945598659017,unsucc_cost,0.0,0.0,76.128149099648,None,ae11,2,2022-04-29_14h41.34.857,threat_forest,2021.2.3,59.91044588103704,True,54.0,0.2777777777777778,0.32222222222222224,-1.1882716049382718,-1.264135802469136,1,0,1,-0.22505537733200273,0.0818945598659017,1.0,0.2777777777777778,0.3333333333333333,0.8333333333333334,-1.1666666666666665,-1.0555555555555556,-0.05555555555555558,0.0,1.0,2.0,-1.0,1.0,1,0,1
3.0,0.0,3.0,0.0,0.0,0.0,0.0,0.0,82.4314572000876,85.9214932997711,None,right,0.6859030001796782,86.93966750008985,ae11,82.4314572000876,85.9214932997711,86.93966750008985,None,True,5.0,['p'],False,0.5555555555555556,0.6666666666666666,0.1666666666666666,1.0,2.0,0.8929352898779306,0.0304669022621303,succ_gain,1.0,6.0,,,ae11,2,2022-04-29_14h41.34.857,threat_forest,2021.2.3,59.91044588103704,True,51.0,0.5555555555555556,0.4166666666666667,-0.2376543209876542,-0.712962962962963,1,1,1,-0.37701906040904287,0.0304669022621303,0.5555555555555556,0.5555555555555556,0.6666666666666666,0.8333333333333334,0.16666666666666674,0.05555555555555569,5.055555555555555,5.055555555555555,0.0,2.0,-1.0,5.0,0,1,1
3.0,0.0,3.0,0.0,1.0,0.0,1.0,0.0,,,,left,0.6984923998825252,92.56728779990226,ae11,82.4314572000876,85.9214932997711,92.56728779990226,None,False,6.0,['p'],False,0.5555555555555556,0.6666666666666666,0.1666666666666666,1.0,2.0,0.8929352898779306,-0.0252043745840764,wait_cost,1.0,5.0,89.645043999888,None,ae11,2,2022-04-29_14h41.34.857,threat_forest,2021.2.3,59.91044588103704,False,51.0,0.5555555555555556,0.4166666666666667,-0.2376543209876542,-0.712962962962963,1,1,0,-0.35883098097062105,-0.0252043745840764,0.5555555555555556,0.5555555555555556,0.6666666666666666,0.8333333333333334,0.16666666666666674,0.05555555555555569,6.055555555555555,6.0,0.0,2.0,1.0,6.0,0,1,1
3.0,0.0,3.0,0.0,2.0,0.0,2.0,0.0,,,,left,0.7781499000266194,97.2315752999857,ae11,82.4314572000876,85.9214932997711,97.2315752999857,None,False,5.0,['p'],False,0.5555555555555556,0.6666666666666666,0.1666666666666666,1.0,2.0,0.8929352898779306,0.0638481739499262,wait_cost,1.0,4.0,95.29531249962749,None,ae11,2,2022-04-29_14h41.34.857,threat_forest,2021.2.3,59.91044588103704,False,51.0,0.5555555555555556,0.4166666666666667,-0.2376543209876542,-0.712962962962963,1,1,0,-0.25083609980684507,0.0638481739499262,0.5555555555555556,0.5555555555555556,0.6666666666666666,0.8333333333333334,0.16666666666666674,0.05555555555555569,5.055555555555555,5.055555555555555,0.0,2.0,-1.0,5.0,0,1,1
3.0,0.0,3.0,0.0,3.0,0.0,3.0,0.0,,,,right,1.4033873002044857,102.9864007998258,ae11,102.9864007998258,None,98.028656499926,100.0283991000615,False,4.0,['p'],True,0.3950617283950617,0.4444444444444444,0.1111111111111111,1.0,2.0,0.8733423231021583,0.0256986690693583,wait_cost,0.0,3.0,100.0283991000615,None,ae11,2,2022-04-29_14h41.34.857,threat_forest,2021.2.3,59.91044588103704,False,51.0,0.5555555555555556,0.4166666666666667,-0.2376543209876542,-0.712962962962963,1,0,0,0.33888881448948094,0.0256986690693583,0.3950617283950617,0.3950617283950617,0.4444444444444444,0.8888888888888888,-0.5555555555555556,-0.5308641975308641,3.469135802469136,3.469135802469136,1.0,2.0,-1.0,4.0,0,0,1
3.0,0.0,3.0,0.0,4.0,0.0,4.0,0.0,,,,right,0.6276491996832192,110.08554330002517,ae11,104.4117795000784,106.41146710002795,110.08554330002517,None,True,3.0,['p'],False,0.5555555555555556,0.6666666666666666,0.1666666666666666,1.0,2.0,0.8929352898779306,0.1721536351165981,succ_gain,1.0,5.0,106.41146710002796,None,ae11,2,2022-04-29_14h41.34.857,threat_forest,2021.2.3,59.91044588103704,True,51.0,0.5555555555555556,0.4166666666666667,-0.2376543209876542,-0.712962962962963,1,1,1,-0.4657738678191561,0.1721536351165981,0.5555555555555556,0.5555555555555556,0.6666666666666666,0.8333333333333334,0.16666666666666674,0.05555555555555569,3.055555555555556,3.055555555555556,0.0,2.0,-1.0,3.0,0,1,1
3.0,0.0,3.0,0.0,5.0,0.0,5.0,0.0,,,,right,0.668649900238961,114.08991409977898,ae11,114.08991409977898,None,110.74543830007316,112.74481040006503,False,5.0,['p'],True,0.3950617283950617,0.4444444444444444,0.1111111111111111,1.0,2.0,0.8733423231021583,-0.0538408779149519,wait_cost,0.0,4.0,112.74481040006503,None,ae11,2,2022-04-29_14h41.34.857,threat_forest,2021.2.3,59.91044588103704,False,51.0,0.5555555555555556,0.4166666666666667,-0.2376543209876542,-0.712962962962963,1,0,0,-0.402494673861038,-0.0538408779149519,0.0,0.3950617283950617,0.4444444444444444,0.8888888888888888,-0.5555555555555556,-0.5308641975308641,4.469135802469136,4.469135802469136,1.0,2.0,1.0,5.0,0,0,1
3.0,0.0,3.0,0.0,6.0,0.0,6.0,0.0,,,,right,0.6283599999733269,119.11764539964496,ae11,119.11764539964496,None,110.74543830007316,112.74481040006503,False,4.0,['p'],True,0.3950617283950617,0.4444444444444444,0.1111111111111111,1.0,2.0,0.8733423231021583,-0.0582990397805212,wait_cost,0.0,3.0,116.778525499627,None,ae11,2,2022-04-29_14h41.34.857,threat_forest,2021.2.3,59.91044588103704,False,51.0,0.5555555555555556,0.4166666666666667,-0.2376543209876542,-0.712962962962963,1,0,0,-0.4646420283928468,-0.0582990397805212,0.0,0.3950617283950617,0.4444444444444444,0.8888888888888888,-0.5555555555555556,-0.5308641975308641,3.469135802469136,3.469135802469136,1.0,2.0,-1.0,4.0,0,0,1
3.0,0.0,3.0,0.0,7.0,0.0,7.0,0.0,,,,right,0.6009363001212478,122.44693979993464,ae11,122.44693979993464,None,110.74543830007316,112.74481040006503,False,3.0,['p'],True,0.3950617283950617,0.4444444444444444,0.1111111111111111,1.0,2.0,0.8733423231021583,-0.1111111111111111,wait_cost,0.0,2.0,121.76201479975134,None,ae11,2,2022-04-29_14h41.34.857,threat_forest,2021.2.3,59.91044588103704,False,51.0,0.5555555555555556,0.4166666666666667,-0.2376543209876542,-0.712962962962963,1,0,0,-0.5092663398791424,-0.1111111111111111,0.0,0.3950617283950617,0.4444444444444444,0.8888888888888888,-0.5555555555555556,-0.5308641975308641,2.469135802469136,2.469135802469136,1.0,2.0,-1.0,3.0,0,0,1
4.0,0.0,4.0,0.0,0.0,0.0,0.0,0.0,126.50132460007444,130.01214829972014,None,left,0.7374839000403881,133.5785610000603,ae11,133.5785610000603,None,126.50132460007444,130.01214829972014,True,4.0,['r'],True,0.5,0.5,0.0,0.0,1.0,0.6309297535714574,0.0993054550861626,succ_gain,0.0,5.0,,,ae11,2,2022-04-29_14h41.34.857,threat_forest,2021.2.3,59.91044588103704,True,30.0,0.5833333333333333,0.5694444444444444,-1.25,-0.7438271604938271,1,0,1,-0.304511021460161,0.0993054550861626,0.5,0.5,0.5,1.0,-0.5,-0.5,3.5,3.5,1.0,1.0,-1.0,4.0,0,0,1
4.0,0.0,4.0,0.0,1.0,0.0,1.0,0.0,,,,left,0.7316169999539852,137.4457062999718,ae11,137.4457062999718,None,126.50132460007444,130.01214829972014,True,5.0,['r'],True,0.5,0.5,0.0,0.0,1.0,0.6309297535714574,0.120817124271262,succ_gain,0.0,6.0,136.34540029987693,None,ae11,2,2022-04-29_14h41.34.857,threat_forest,2021.2.3,59.91044588103704,True,30.0,0.5833333333333333,0.5694444444444444,-1.25,-0.7438271604938271,1,0,1,-0.3124981260569012,0.120817124271262,0.5,0.5,0.5,1.0,-0.5,-0.5,4.5,4.5,1.0,1.0,1.0,5.0,0,0,1
4.0,0.0,4.0,0.0,2.0,0.0,2.0,0.0,,,,right,0.9736874997615814,142.08009349973872,ae11,142.08009349973872,None,126.50132460007444,130.01214829972014,False,6.0,['r'],True,0.5,0.5,0.0,0.0,1.0,0.6309297535714574,0.0843701774691357,wait_cost,0.0,5.0,140.19563909992576,None,ae11,2,2022-04-29_14h41.34.857,threat_forest,2021.2.3,59.91044588103704,False,30.0,0.5833333333333333,0.5694444444444444,-1.25,-0.7438271604938271,1,0,0,-0.02666486895435115,0.0843701774691357,0.5,0.5,0.5,1.0,-0.5,-0.5,5.5,5.5,1.0,1.0,1.0,6.0,0,0,1
4.0,0.0,4.0,0.0,3.0,0.0,3.0,0.0,,,,left,0.8413081001490355,146.41831369977444,ae11,143.07896779989824,145.0788131998852,146.41831369977444,None,False,5.0,['r'],False,0.2222222222222222,0.6666666666666666,0.6666666666666666,2.0,1.0,0.77250688571426,-0.2127593449931412,wait_cost,1.0,4.0,145.0788131998852,None,ae11,2,2022-04-29_14h41.34.857,threat_forest,2021.2.3,59.91044588103704,False,30.0,0.5833333333333333,0.5694444444444444,-1.25,-0.7438271604938271,0,0,0,-0.1727973363378367,-0.2127593449931412,0.2222222222222222,0.2222222222222222,0.6666666666666666,0.33333333333333337,-2.0,-2.0,3.0,3.0,0.0,1.0,-1.0,5.0,0,0,0
4.0,0.0,4.0,0.0,4.0,0.0,4.0,0.0,,,,left,0.750834200065583,149.9487529997714,ae11,149.9487529997714,None,147.27927189972252,149.27915519988164,True,4.0,['r'],True,0.5,0.5,0.0,0.0,1.0,0.6309297535714574,0.1597222222222222,unsucc_cost,0.0,2.0,149.27915519988164,None,ae11,2,2022-04-29_14h41.34.857,threat_forest,2021.2.3,59.91044588103704,True,30.0,0.5833333333333333,0.5694444444444444,-1.25,-0.7438271604938271,1,0,1,-0.28657042380804315,0.1597222222222222,0.5,0.5,0.5,1.0,-0.5,-0.5,3.5,3.5,1.0,1.0,-1.0,4.0,0,0,1
4.0,0.0,4.0,0.0,5.0,0.0,5.0,0.0,,,,left,0.524277999997139,154.1956862998195,ae11,154.1956862998195,None,147.27927189972252,149.27915519988164,True,2.0,['r'],True,0.5,0.5,0.0,0.0,1.0,0.6309297535714574,0.1388888888888888,unsucc_cost,0.0,0.0,152.72899729991332,None,ae11,2,2022-04-29_14h41.34.857,threat_forest,2021.2.3,59.91044588103704,True,30.0,0.5833333333333333,0.5694444444444444,-1.25,-0.7438271604938271,1,0,1,-0.6457332009989997,0.1388888888888888,0.5,0.5,0.5,1.0,-0.5,-0.5,1.5,1.5,1.0,1.0,-1.0,2.0,0,0,1
5.0,0.0,5.0,0.0,0.0,0.0,0.0,0.0,157.6738310996443,161.1794829997234,None,right,0.7886385000310838,164.93957399995998,ae11,164.93957399995998,None,157.6738310996443,161.1794829997234,False,5.0,['r'],True,0.46875,0.625,0.25,2.0,2.0,0.9634951148421658,-0.0188382549218505,wait_cost,0.0,4.0,,,ae11,2,2022-04-29_14h41.34.857,threat_forest,2021.2.3,59.91044588103704,False,62.0,0.6125,0.5979166666666667,0.012499999999999956,-0.61875,1,0,0,-0.2374472379959847,-0.0188382549218505,0.46875,0.46875,0.625,0.75,-0.25,-0.375,4.625,4.625,1.0,2.0,-1.0,5.0,0,0,1
5.0,0.0,5.0,0.0,1.0,0.0,1.0,0.0,,,,right,0.657279500272125,170.75350999971852,ae11,165.74644379969686,167.74620139971375,170.75350999971852,None,True,4.0,['r'],False,0.6,0.6,0.0,0.0,2.0,0.6126016192893442,0.1143347718572616,succ_gain,1.0,6.0,167.74620139971375,None,ae11,2,2022-04-29_14h41.34.857,threat_forest,2021.2.3,59.91044588103704,True,62.0,0.6125,0.5979166666666667,0.012499999999999956,-0.61875,1,1,1,-0.4196459319790787,0.1143347718572616,0.6,0.6,0.6,1.0,0.3999999999999999,0.3999999999999999,4.4,4.4,0.0,2.0,-1.0,4.0,0,1,1
5.0,0.0,5.0,0.0,2.0,0.0,2.0,0.0,,,,right,0.6261905003339052,177.23734579980373,ae11,177.23734579980373,None,171.42986749997362,173.42949809972197,False,6.0,['r'],True,0.46875,0.625,0.25,2.0,2.0,0.9634951148421658,0.0037362915515899,wait_cost,0.0,5.0,173.42949809972197,None,ae11,2,2022-04-29_14h41.34.857,threat_forest,2021.2.3,59.91044588103704,False,62.0,0.6125,0.5979166666666667,0.012499999999999956,-0.61875,1,0,0,-0.46810064054360384,0.0037362915515899,0.46875,0.46875,0.625,0.75,-0.25,-0.375,5.625,5.625,1.0,2.0,1.0,6.0,0,0,1
5.0,0.0,5.0,0.0,3.0,0.0,3.0,0.0,,,,right,0.750036499928683,183.4339825999923,ae11,183.4339825999923,None,171.42986749997362,173.42949809972197,False,5.0,['r'],True,0.46875,0.625,0.25,2.0,2.0,0.9634951148421658,0.0176632690429687,wait_cost,0.0,4.0,179.8961628000252,None,ae11,2,2022-04-29_14h41.34.857,threat_forest,2021.2.3,59.91044588103704,False,62.0,0.6125,0.5979166666666667,0.012499999999999956,-0.61875,1,0,0,-0.28763340706438273,0.0176632690429687,0.46875,0.46875,0.625,0.75,-0.25,-0.375,4.625,4.625,1.0,2.0,-1.0,5.0,0,0,1
5.0,0.0,5.0,0.0,4.0,0.0,4.0,0.0,,,,right,0.6794531000778079,187.58406969998032,ae11,187.58406969998032,None,171.42986749997362,173.42949809972197,False,4.0,['r'],True,0.46875,0.625,0.25,2.0,2.0,0.9634951148421658,0.04546875,wait_cost,0.0,3.0,186.2129804999568,None,ae11,2,2022-04-29_14h41.34.857,threat_forest,2021.2.3,59.91044588103704,False,62.0,0.6125,0.5979166666666667,0.012499999999999956,-0.61875,1,0,0,-0.3864670689977254,0.04546875,0.46875,0.46875,0.625,0.75,-0.25,-0.375,3.625,3.625,1.0,2.0,-1.0,4.0,0,0,1
5.0,0.0,5.0,0.0,5.0,0.0,5.0,0.0,,,,left,1.6020649001002312,191.22003159997985,ae11,188.28469239966944,190.29623709991574,191.22003159997985,None,False,3.0,['r'],False,0.6,0.6,0.0,0.0,2.0,0.6126016192893442,0.2465625,wait_cost,1.0,2.0,190.29623709991571,None,ae11,2,2022-04-29_14h41.34.857,threat_forest,2021.2.3,59.91044588103704,False,62.0,0.6125,0.5979166666666667,0.012499999999999956,-0.61875,1,1,0,0.47129335974832276,0.2465625,0.6,0.6,0.6,1.0,0.3999999999999999,0.3999999999999999,3.4,3.4,0.0,2.0,-1.0,3.0,0,1,1
5.0,0.0,5.0,0.0,6.0,0.0,6.0,0.0,,,,right,0.7046666000969708,196.77121979976076,ae11,196.77121979976076,None,192.84672789974135,194.84665369987488,False,2.0,['r'],True,0.46875,0.625,0.25,2.0,2.0,0.9634951148421658,-0.0656249999999999,wait_cost,0.0,1.0,194.84665369987488,None,ae11,2,2022-04-29_14h41.34.857,threat_forest,2021.2.3,59.91044588103704,False,62.0,0.6125,0.5979166666666667,0.012499999999999956,-0.61875,1,0,0,-0.35003049568983535,-0.0656249999999999,0.46875,0.46875,0.625,0.75,-0.25,-0.375,1.625,1.625,1.0,2.0,-1.0,2.0,0,0,1
5.0,0.0,5.0,0.0,7.0,0.0,7.0,0.0,,,,left,0.8215527003630996,203.23293559998277,ae11,203.23293559998277,None,192.84672789974135,194.84665369987488,True,1.0,['r'],True,0.46875,0.625,0.25,2.0,2.0,0.9634951148421658,0.46875,fight_cost,0.0,0.0,199.4966843998991,None,ae11,2,2022-04-29_14h41.34.857,threat_forest,2021.2.3,59.91044588103704,True,62.0,0.6125,0.5979166666666667,0.012499999999999956,-0.61875,1,0,1,-0.19655919217703435,0.46875,1.0,0.46875,0.625,0.75,-0.25,-0.375,0.625,0.625,1.0,2.0,-1.0,1.0,1,0,1
6.0,0.0,6.0,0.0,0.0,0.0,0.0,0.0,207.99388459976765,211.4908313998021,None,right,0.8272720999084413,212.4252010998316,ae11,212.4252010998316,None,207.99388459976765,211.49083139980212,False,5.0,['r'],True,0.46875,0.625,0.25,2.0,2.0,0.9634951148421658,-0.0155794500840503,wait_cost,0.0,4.0,,,ae11,2,2022-04-29_14h41.34.857,threat_forest,2021.2.3,59.91044588103704,False,19.0,0.5982142857142857,0.6053571428571429,-0.044642857142857206,-0.016071428571428625,0,0,0,-0.18962161762828733,-0.0155794500840503,0.46875,0.46875,0.625,0.75,-0.25,-0.375,4.625,4.625,1.0,2.0,-1.0,5.0,0,0,0
6.0,0.0,6.0,0.0,1.0,0.0,1.0,0.0,,,,right,0.6342942002229393,217.7709003998898,ae11,217.7709003998898,None,207.99388459976765,211.49083139980212,False,4.0,['r'],True,0.46875,0.625,0.25,2.0,2.0,0.9634951148421658,0.0392515045692686,wait_cost,0.0,3.0,215.28009149990976,None,ae11,2,2022-04-29_14h41.34.857,threat_forest,2021.2.3,59.91044588103704,False,19.0,0.5982142857142857,0.6053571428571429,-0.044642857142857206,-0.016071428571428625,0,0,0,-0.4552423939708151,0.0392515045692686,0.46875,0.46875,0.625,0.75,-0.25,-0.375,3.625,3.625,1.0,2.0,-1.0,4.0,0,0,0
6.0,0.0,6.0,0.0,2.0,0.0,2.0,0.0,,,,right,0.9952102997340262,223.6504238997586,ae11,223.6504238997586,None,207.99388459976765,211.49083139980212,False,3.0,['r'],True,0.46875,0.625,0.25,2.0,2.0,0.9634951148421658,0.0903189960791139,wait_cost,0.0,2.0,220.4304140000604,None,ae11,2,2022-04-29_14h41.34.857,threat_forest,2021.2.3,59.91044588103704,False,19.0,0.5982142857142857,0.6053571428571429,-0.044642857142857206,-0.016071428571428625,0,0,0,-0.004801207639576888,0.0903189960791139,0.46875,0.46875,0.625,0.75,-0.25,-0.375,2.625,2.625,1.0,2.0,-1.0,3.0,0,0,0
6.0,0.0,6.0,0.0,3.0,0.0,3.0,0.0,,,,right,0.7973691001534462,227.98330109985545,ae11,227.98330109985545,None,207.99388459976765,211.49083139980212,False,2.0,['r'],True,0.46875,0.625,0.25,2.0,2.0,0.9634951148421658,-0.0014329915839104,wait_cost,0.0,1.0,226.66346680000424,None,ae11,2,2022-04-29_14h41.34.857,threat_forest,2021.2.3,59.91044588103704,False,19.0,0.5982142857142857,0.6053571428571429,-0.044642857142857206,-0.016071428571428625,0,0,0,-0.2264375955338357,-0.0014329915839104,0.46875,0.46875,0.625,0.75,-0.25,-0.375,1.625,1.625,1.0,2.0,-1.0,2.0,0,0,0
6.0,0.0,6.0,0.0,4.0,0.0,4.0,0.0,,,,left,1.2017016001045704,232.2676483998075,ae11,232.2676483998075,None,207.99388459976765,211.49083139980212,True,1.0,['r'],True,0.46875,0.625,0.25,2.0,2.0,0.9634951148421658,0.3303161932497608,fight_cost,0.0,0.0,230.7968484996818,None,ae11,2,2022-04-29_14h41.34.857,threat_forest,2021.2.3,59.91044588103704,True,19.0,0.5982142857142857,0.6053571428571429,-0.044642857142857206,-0.016071428571428625,0,0,1,0.18373855246836582,0.3303161932497608,1.0,0.46875,0.625,0.75,-0.25,-0.375,0.625,0.625,1.0,2.0,-1.0,1.0,1,0,0
7.0,0.0,7.0,0.0,0.0,0.0,0.0,0.0,236.45381999993697,239.9637078996748,None,left,0.6090028001926839,240.8032756000757,ae11,240.8032756000757,None,236.45381999993697,239.96370789967477,True,5.0,['r'],True,0.5,0.5,0.0,0.0,2.0,0.6309297535714574,0.0630973775,succ_gain,0.0,6.0,,,ae11,2,2022-04-29_14h41.34.857,threat_forest,2021.2.3,59.91044588103704,True,67.0,0.55,0.5741071428571429,-0.4800000000000001,-0.26232142857142865,1,0,1,-0.4959324132652675,0.0630973775,0.5,0.5,0.5,1.0,0.0,0.0,5.0,5.0,1.0,2.0,-1.0,5.0,0,0,1
7.0,0.0,7.0,0.0,1.0,0.0,1.0,0.0,,,,left,0.755146499723196,246.14245909964663,ae11,241.4322933997028,243.44695609994233,246.14245909964663,None,False,6.0,['r'],False,0.36,0.6,0.4,2.0,2.0,0.9801625908629508,-0.1255866,wait_cost,1.0,5.0,243.44695609994235,None,ae11,2,2022-04-29_14h41.34.857,threat_forest,2021.2.3,59.91044588103704,False,67.0,0.55,0.5741071428571429,-0.4800000000000001,-0.26232142857142865,0,0,0,-0.2808435091878441,-0.1255866,0.36,0.36,0.6,0.6,-0.8000000000000003,-0.9600000000000002,5.04,5.04,0.0,2.0,1.0,6.0,0,0,0
7.0,0.0,7.0,0.0,2.0,0.0,2.0,0.0,,,,left,0.5516164000146091,251.38411569967863,ae11,251.38411569967863,None,246.9308420997113,248.93096680007875,True,5.0,['r'],True,0.5,0.5,0.0,0.0,2.0,0.6309297535714574,0.1117124999999999,succ_gain,0.0,6.0,248.93096680007875,None,ae11,2,2022-04-29_14h41.34.857,threat_forest,2021.2.3,59.91044588103704,True,67.0,0.55,0.5741071428571429,-0.4800000000000001,-0.26232142857142865,1,0,1,-0.5949024017888539,0.1117124999999999,0.5,0.5,0.5,1.0,0.0,0.0,5.0,5.0,1.0,2.0,-1.0,5.0,0,0,1
7.0,0.0,7.0,0.0,3.0,0.0,3.0,0.0,,,,left,0.7195855001918972,255.4860425996594,ae11,251.9642762998119,253.96363599970937,255.4860425996594,None,False,6.0,['r'],False,0.36,0.6,0.4,2.0,2.0,0.9801625908629508,-0.238868,wait_cost,1.0,5.0,253.96363599970937,None,ae11,2,2022-04-29_14h41.34.857,threat_forest,2021.2.3,59.91044588103704,False,67.0,0.55,0.5741071428571429,-0.4800000000000001,-0.26232142857142865,0,0,0,-0.329079926925477,-0.238868,0.0,0.36,0.6,0.6,-0.8000000000000003,-0.9600000000000002,5.04,5.04,0.0,2.0,1.0,6.0,0,0,0
7.0,0.0,7.0,0.0,4.0,0.0,4.0,0.0,,,,right,0.7407043003477156,259.65114639978856,ae11,259.65114639978856,None,256.23098709993064,258.2307139998302,False,5.0,['r'],True,0.5,0.5,0.0,0.0,2.0,0.6309297535714574,-0.205,wait_cost,0.0,4.0,258.2307139998302,None,ae11,2,2022-04-29_14h41.34.857,threat_forest,2021.2.3,59.91044588103704,False,67.0,0.55,0.5741071428571429,-0.4800000000000001,-0.26232142857142865,1,0,0,-0.3001537881910126,-0.205,0.0,0.5,0.5,1.0,0.0,0.0,5.0,5.0,1.0,2.0,-1.0,5.0,0,0,1
7.0,0.0,7.0,0.0,5.0,0.0,5.0,0.0,,,,right,0.6996422000229359,262.98342279996723,ae11,262.98342279996723,None,256.23098709993064,258.2307139998302,False,4.0,['r'],True,0.5,0.5,0.0,0.0,2.0,0.6309297535714574,-0.2675,wait_cost,0.0,3.0,262.41359969973564,None,ae11,2,2022-04-29_14h41.34.857,threat_forest,2021.2.3,59.91044588103704,False,67.0,0.55,0.5741071428571429,-0.4800000000000001,-0.26232142857142865,1,0,0,-0.35718621744113516,-0.2675,0.0,0.5,0.5,1.0,0.0,0.0,4.0,4.0,1.0,2.0,-1.0,4.0,0,0,1
7.0,0.0,7.0,0.0,6.0,0.0,6.0,0.0,,,,right,0.9233555998653172,268.3812853000127,ae11,268.3812853000127,None,256.23098709993064,258.2307139998302,False,3.0,['r'],True,0.5,0.5,0.0,0.0,2.0,0.6309297535714574,-0.285,wait_cost,0.0,2.0,265.7142821997404,None,ae11,2,2022-04-29_14h41.34.857,threat_forest,2021.2.3,59.91044588103704,False,67.0,0.55,0.5741071428571429,-0.4800000000000001,-0.26232142857142865,1,0,0,-0.07974085338203371,-0.285,0.0,0.5,0.5,1.0,0.0,0.0,3.0,3.0,1.0,2.0,-1.0,3.0,0,0,1
7.0,0.0,7.0,0.0,7.0,0.0,7.0,0.0,,,,left,0.5948894000612199,273.0045753996819,ae11,269.3311907998286,271.33076119981706,273.0045753996819,None,False,2.0,['r'],False,0.36,0.6,0.4,2.0,2.0,0.9801625908629508,-0.64,wait_cost,1.0,1.0,271.33076119981706,None,ae11,2,2022-04-29_14h41.34.857,threat_forest,2021.2.3,59.91044588103704,False,67.0,0.55,0.5741071428571429,-0.4800000000000001,-0.26232142857142865,0,0,0,-0.5193797729648044,-0.64,0.0,0.36,0.6,0.6,-0.8000000000000003,-0.9600000000000002,1.0399999999999998,1.0399999999999998,0.0,2.0,-1.0,2.0,0,0,0
8.0,0.0,8.0,0.0,0.0,0.0,0.0,0.0,277.8788008997217,281.3814030997455,None,left,0.802634899970144,282.7248728000559,ae11,282.7248728000559,None,277.8788008997217,281.3814030997455,True,5.0,['p'],True,0.2,0.2,0.0,0.0,2.0,0.4554859150035951,-0.008629770690918,unsucc_cost,0.0,3.0,,,ae11,2,2022-04-29_14h41.34.857,threat_forest,2021.2.3,59.91044588103704,True,45.0,0.35,0.45,-0.9750000000000001,-0.7275,0,0,1,-0.21985533845385952,-0.008629770690918,0.2,0.2,0.2,1.0,-1.2000000000000002,-1.2000000000000002,3.8,3.8,1.0,2.0,-1.0,5.0,0,0,0
8.0,0.0,8.0,0.0,1.0,0.0,1.0,0.0,,,,left,1.0063694003038108,287.06900190003216,ae11,283.5479982998222,285.548018399626,287.06900190003216,None,False,3.0,['p'],False,0.375,0.5,0.25,1.0,2.0,0.9850568223215076,0.0803037891387938,wait_cost,1.0,2.0,285.548018399626,None,ae11,2,2022-04-29_14h41.34.857,threat_forest,2021.2.3,59.91044588103704,False,45.0,0.35,0.45,-0.9750000000000001,-0.7275,0,0,0,0.006349201398267901,0.0803037891387938,0.375,0.375,0.5,0.75,-0.75,-0.75,2.25,2.25,0.0,2.0,-1.0,3.0,0,0,0
8.0,0.0,8.0,0.0,2.0,0.0,2.0,0.0,,,,left,0.6719626002013683,291.14032679982483,ae11,291.14032679982483,None,288.09864469990134,290.09814570005983,True,2.0,['p'],True,0.2,0.2,0.0,0.0,2.0,0.4554859150035951,-0.0315145019531249,unsucc_cost,0.0,0.0,290.09814570005983,None,ae11,2,2022-04-29_14h41.34.857,threat_forest,2021.2.3,59.91044588103704,True,45.0,0.35,0.45,-0.9750000000000001,-0.7275,0,0,1,-0.3975525944700041,-0.0315145019531249,0.2,0.2,0.2,1.0,-1.2000000000000002,-1.2000000000000002,0.7999999999999998,0.7999999999999998,1.0,2.0,-1.0,2.0,0,0,0
9.0,0.0,9.0,0.0,0.0,0.0,0.0,0.0,297.2670465996489,300.76127769984305,None,right,1.2136129001155496,303.34242919972166,ae11,303.34242919972166,None,297.2670465996489,300.76127769984305,False,4.0,['r'],True,0.5185185185185185,0.6666666666666666,0.2222222222222222,2.0,2.0,0.9327883776363328,0.0236802094142134,wait_cost,0.0,3.0,,,ae11,2,2022-04-29_14h41.34.857,threat_forest,2021.2.3,59.91044588103704,False,60.0,0.6458333333333333,0.4979166666666666,0.17592592592592587,-0.39953703703703713,1,1,0,0.1936017786228746,0.0236802094142134,0.5185185185185185,0.5185185185185185,0.6666666666666666,0.7777777777777778,-1.1102230246251565e-16,-0.14814814814814825,3.8518518518518516,3.8518518518518516,1.0,2.0,-1.0,4.0,0,1,1
9.0,0.0,9.0,0.0,1.0,0.0,1.0,0.0,,,,right,0.9027680000290276,308.2721075997688,ae11,308.2721075997688,None,297.2670465996489,300.76127769984305,False,3.0,['r'],True,0.5185185185185185,0.6666666666666666,0.2222222222222222,2.0,2.0,0.9327883776363328,0.0775141179228561,wait_cost,0.0,2.0,306.5815423997119,None,ae11,2,2022-04-29_14h41.34.857,threat_forest,2021.2.3,59.91044588103704,False,60.0,0.6458333333333333,0.4979166666666666,0.17592592592592587,-0.39953703703703713,1,1,0,-0.10228967991614821,0.0775141179228561,0.5185185185185185,0.5185185185185185,0.6666666666666666,0.7777777777777778,-1.1102230246251565e-16,-0.14814814814814825,2.8518518518518516,2.8518518518518516,1.0,2.0,-1.0,3.0,0,1,1
9.0,0.0,9.0,0.0,2.0,0.0,2.0,0.0,,,,right,0.5241838996298611,314.4375402997248,ae11,309.1985378996469,311.19801829988137,314.4375402997248,None,True,2.0,['r'],False,0.625,0.625,0.0,0.0,2.0,0.6021808102656677,0.0752723743505239,succ_gain,1.0,4.0,311.19801829988137,None,ae11,2,2022-04-29_14h41.34.857,threat_forest,2021.2.3,59.91044588103704,True,60.0,0.6458333333333333,0.4979166666666666,0.17592592592592587,-0.39953703703703713,1,1,1,-0.6459127027387653,0.0752723743505239,0.625,0.625,0.625,1.0,0.5,0.5,2.5,2.5,0.0,2.0,-1.0,2.0,0,1,1
9.0,0.0,9.0,0.0,3.0,0.0,3.0,0.0,,,,right,0.653929699677974,320.13793609989807,ae11,309.1985378996469,311.19801829988137,320.13793609989807,None,True,4.0,['r'],False,0.625,0.625,0.0,0.0,2.0,0.6021808102656677,0.0963112997256515,succ_gain,1.0,6.0,316.9817419000901,None,ae11,2,2022-04-29_14h41.34.857,threat_forest,2021.2.3,59.91044588103704,True,60.0,0.6458333333333333,0.4979166666666666,0.17592592592592587,-0.39953703703703713,1,1,1,-0.4247554261498431,0.0963112997256515,0.625,0.625,0.625,1.0,0.5,0.5,4.5,4.5,0.0,2.0,1.0,4.0,0,1,1
9.0,0.0,9.0,0.0,4.0,0.0,4.0,0.0,,,,right,0.4967974997125566,325.6620745998807,ae11,325.6620745998807,None,320.8203565999865,322.83167109964415,False,6.0,['r'],True,0.5185185185185185,0.6666666666666666,0.2222222222222222,2.0,2.0,0.9327883776363328,-0.0548708752476756,wait_cost,0.0,5.0,322.8316710996441,None,ae11,2,2022-04-29_14h41.34.857,threat_forest,2021.2.3,59.91044588103704,False,60.0,0.6458333333333333,0.4979166666666666,0.17592592592592587,-0.39953703703703713,1,1,0,-0.6995727811602415,-0.0548708752476756,0.0,0.5185185185185185,0.6666666666666666,0.7777777777777778,-1.1102230246251565e-16,-0.14814814814814825,5.851851851851852,5.851851851851852,1.0,2.0,1.0,6.0,0,1,1
9.0,0.0,9.0,0.0,5.0,0.0,5.0,0.0,,,,left,0.7547741997987032,328.7723810998723,ae11,326.1822759998031,328.1818519998342,328.7723810998723,None,False,5.0,['r'],False,0.625,0.625,0.0,0.0,2.0,0.6021808102656677,0.0,wait_cost,1.0,4.0,328.1818519998342,None,ae11,2,2022-04-29_14h41.34.857,threat_forest,2021.2.3,59.91044588103704,False,60.0,0.6458333333333333,0.4979166666666666,0.17592592592592587,-0.39953703703703713,1,1,0,-0.2813366475786954,0.0,0.0,0.625,0.625,1.0,0.5,0.5,5.5,5.5,0.0,2.0,-1.0,5.0,0,1,1
9.0,0.0,9.0,0.0,6.0,0.0,6.0,0.0,,,,left,0.5025065997615457,333.4724489999935,ae11,326.1822759998031,328.1818519998342,333.4724489999935,None,False,4.0,['r'],False,0.625,0.625,0.0,0.0,2.0,0.6021808102656677,0.0,wait_cost,1.0,3.0,331.54838269995525,None,ae11,2,2022-04-29_14h41.34.857,threat_forest,2021.2.3,59.91044588103704,False,60.0,0.6458333333333333,0.4979166666666666,0.17592592592592587,-0.39953703703703713,1,1,0,-0.6881465052813324,0.0,0.0,0.625,0.625,1.0,0.5,0.5,4.5,4.5,0.0,2.0,-1.0,4.0,0,1,1
9.0,0.0,9.0,0.0,7.0,0.0,7.0,0.0,,,,left,0.6272284998558462,336.68553490005434,ae11,326.1822759998031,328.1818519998342,336.68553490005434,None,False,3.0,['r'],False,0.625,0.625,0.0,0.0,2.0,0.6021808102656677,0.0,wait_cost,1.0,2.0,335.99854059983045,None,ae11,2,2022-04-29_14h41.34.857,threat_forest,2021.2.3,59.91044588103704,False,60.0,0.6458333333333333,0.4979166666666666,0.17592592592592587,-0.39953703703703713,1,1,0,-0.46644437115711307,0.0,0.0,0.625,0.625,1.0,0.5,0.5,3.5,3.5,0.0,2.0,-1.0,3.0,0,1,1
10.0,0.0,10.0,0.0,0.0,0.0,0.0,0.0,340.6138762999326,344.1154474997893,None,right,0.7411726000718772,346.04331879969686,ae11,346.04331879969686,None,340.6138762999326,344.1154474997893,False,4.0,['r'],True,0.24,0.3,0.2,2.0,2.0,0.9003120349047065,0.0048924551776182,wait_cost,0.0,3.0,,,ae11,2,2022-04-29_14h41.34.857,threat_forest,2021.2.3,59.91044588103704,False,15.0,0.4833333333333333,0.5645833333333332,-0.8977777777777778,-0.360925925925926,0,0,0,-0.2995217522376641,0.0048924551776182,0.24,0.24,0.3,0.8,-1.4,-1.24,2.76,2.76,1.0,2.0,-1.0,4.0,0,0,0
10.0,0.0,10.0,0.0,1.0,0.0,1.0,0.0,,,,right,1.1459427000954747,349.8374701999128,ae11,346.8157996996306,348.81552980002016,349.8374701999128,None,True,3.0,['r'],False,0.4444444444444445,0.6666666666666666,0.3333333333333333,1.0,2.0,0.9656336071428248,0.0878193674113966,unsucc_cost,1.0,1.0,348.81552980002016,None,ae11,2,2022-04-29_14h41.34.857,threat_forest,2021.2.3,59.91044588103704,True,15.0,0.4833333333333333,0.5645833333333332,-0.8977777777777778,-0.360925925925926,0,0,1,0.1362276171258216,0.0878193674113966,0.4444444444444445,0.4444444444444445,0.6666666666666666,0.6666666666666667,-0.3333333333333335,-0.5555555555555556,2.4444444444444446,2.4444444444444446,0.0,2.0,-1.0,3.0,0,0,0
10.0,0.0,10.0,0.0,2.0,0.0,2.0,0.0,,,,right,0.888213099911809,355.0333031998016,ae11,346.8157996996306,348.81552980002016,355.0333031998016,None,True,1.0,['r'],False,0.4444444444444445,0.6666666666666666,0.3333333333333333,1.0,2.0,0.9656336071428248,0.1942183425968263,fight_cost,1.0,0.0,353.015432999935,None,ae11,2,2022-04-29_14h41.34.857,threat_forest,2021.2.3,59.91044588103704,True,15.0,0.4833333333333333,0.5645833333333332,-0.8977777777777778,-0.360925925925926,0,0,1,-0.11854358740176889,0.1942183425968263,1.0,0.4444444444444445,0.6666666666666666,0.6666666666666667,-0.3333333333333335,-0.5555555555555556,0.4444444444444444,0.4444444444444444,0.0,2.0,-1.0,1.0,1,0,0
11.0,0.0,11.0,0.0,0.0,0.0,0.0,0.0,361.14877699967474,364.6492809997872,None,right,0.6918489001691341,368.42280539963394,ae11,361.14877699967474,364.64928099978715,368.42280539963394,None,True,5.0,['r'],False,0.5,0.5,0.0,0.0,1.0,0.6309297535714574,0.07495910506875,unsucc_cost,1.0,3.0,,,ae11,2,2022-04-29_14h41.34.857,threat_forest,2021.2.3,59.91044588103704,True,24.0,0.55,0.5166666666666666,-0.9100000000000001,-0.903888888888889,1,0,1,-0.36838769956355666,0.07495910506875,0.5,0.5,0.5,1.0,-0.5,-0.5,4.5,4.5,0.0,1.0,-1.0,5.0,0,0,1
11.0,0.0,11.0,0.0,1.0,0.0,1.0,0.0,,,,right,0.7030738000757992,373.3843139996752,ae11,361.14877699967474,364.64928099978715,373.3843139996752,None,True,3.0,['r'],False,0.5,0.5,0.0,0.0,1.0,0.6309297535714574,0.103973876875,unsucc_cost,1.0,1.0,371.1320683998056,None,ae11,2,2022-04-29_14h41.34.857,threat_forest,2021.2.3,59.91044588103704,True,24.0,0.55,0.5166666666666666,-0.9100000000000001,-0.903888888888889,1,0,1,-0.35229341391066177,0.103973876875,0.5,0.5,0.5,1.0,-0.5,-0.5,2.5,2.5,0.0,1.0,-1.0,3.0,0,0,1
11.0,0.0,11.0,0.0,2.0,0.0,2.0,0.0,,,,left,0.6313573000952601,378.7380200996995,ae11,378.7380200996995,None,374.1162111996673,376.11608899990097,True,1.0,['r'],True,0.36,0.6,0.4,2.0,1.0,0.9801625908629508,0.083914875,succ_gain,0.0,2.0,376.11608899990097,None,ae11,2,2022-04-29_14h41.34.857,threat_forest,2021.2.3,59.91044588103704,True,24.0,0.55,0.5166666666666666,-0.9100000000000001,-0.903888888888889,0,0,1,-0.45988333248866314,0.083914875,1.0,0.36,0.6,0.6,-1.4000000000000004,-1.3200000000000003,-0.3200000000000003,0.0,1.0,1.0,-1.0,1.0,1,0,0
11.0,0.0,11.0,0.0,3.0,0.0,3.0,0.0,,,,right,0.8321503000333905,384.6525093000382,ae11,384.6525093000382,None,374.1162111996673,376.11608899990097,False,2.0,['r'],True,0.36,0.6,0.4,2.0,1.0,0.9801625908629508,-0.0082544999999999,wait_cost,0.0,1.0,381.3993591000326,None,ae11,2,2022-04-29_14h41.34.857,threat_forest,2021.2.3,59.91044588103704,False,24.0,0.55,0.5166666666666666,-0.9100000000000001,-0.903888888888889,0,0,0,-0.18374220539741404,-0.0082544999999999,0.36,0.36,0.6,0.6,-1.4000000000000004,-1.3200000000000003,0.6799999999999997,0.6799999999999997,1.0,1.0,1.0,2.0,0,0,0
11.0,0.0,11.0,0.0,4.0,0.0,4.0,0.0,,,,right,0.8055753000080585,388.0608784998767,ae11,385.516343599651,387.51610579993576,388.0608784998767,None,True,1.0,['r'],False,0.5,0.5,0.0,0.0,1.0,0.6309297535714574,0.2324999999999999,succ_gain,1.0,2.0,387.51610579993576,None,ae11,2,2022-04-29_14h41.34.857,threat_forest,2021.2.3,59.91044588103704,True,24.0,0.55,0.5166666666666666,-0.9100000000000001,-0.903888888888889,1,0,1,-0.21619859841517852,0.2324999999999999,1.0,0.5,0.5,1.0,-0.5,-0.5,0.5,0.5,0.0,1.0,-1.0,1.0,1,0,1
11.0,0.0,11.0,0.0,5.0,0.0,5.0,0.0,,,,right,0.6436553997918963,394.4329025996849,ae11,385.516343599651,387.51610579993576,394.4329025996849,None,True,2.0,['r'],False,0.5,0.5,0.0,0.0,1.0,0.6309297535714574,0.07,succ_gain,1.0,3.0,390.89952039998025,None,ae11,2,2022-04-29_14h41.34.857,threat_forest,2021.2.3,59.91044588103704,True,24.0,0.55,0.5166666666666666,-0.9100000000000001,-0.903888888888889,1,0,1,-0.4405917895822403,0.07,0.5,0.5,0.5,1.0,-0.5,-0.5,1.5,1.5,0.0,1.0,1.0,2.0,0,0,1
11.0,0.0,11.0,0.0,6.0,0.0,6.0,0.0,,,,right,0.6277567003853619,399.02360259974375,ae11,399.02360259974375,None,395.1019864999689,397.11611739965156,False,3.0,['r'],True,0.36,0.6,0.4,2.0,1.0,0.9801625908629508,-0.5367999999999999,wait_cost,0.0,2.0,397.1161173996516,None,ae11,2,2022-04-29_14h41.34.857,threat_forest,2021.2.3,59.91044588103704,False,24.0,0.55,0.5166666666666666,-0.9100000000000001,-0.903888888888889,0,0,0,-0.4656026073488977,-0.5367999999999999,0.0,0.36,0.6,0.6,-1.4000000000000004,-1.3200000000000003,1.6799999999999997,1.6799999999999997,1.0,1.0,1.0,3.0,0,0,0
11.0,0.0,11.0,0.0,7.0,0.0,7.0,0.0,,,,right,0.733666299842298,402.6180290998891,ae11,402.6180290998891,None,395.1019864999689,397.11611739965156,False,2.0,['r'],True,0.36,0.6,0.4,2.0,1.0,0.9801625908629508,-0.64,wait_cost,0.0,1.0,401.68280459987,None,ae11,2,2022-04-29_14h41.34.857,threat_forest,2021.2.3,59.91044588103704,False,24.0,0.55,0.5166666666666666,-0.9100000000000001,-0.903888888888889,0,0,0,-0.30970098611169106,-0.64,0.0,0.36,0.6,0.6,-1.4000000000000004,-1.3200000000000003,0.6799999999999997,0.6799999999999997,1.0,1.0,-1.0,2.0,0,0,0
12.0,0.0,12.0,0.0,0.0,0.0,0.0,0.0,407.01829409971833,410.5164822996594,None,left,0.5758444000966847,413.6247350000776,ae11,413.6247350000776,None,407.01829409971833,410.5164822996594,True,5.0,['r'],True,0.5,0.5,0.0,0.0,1.0,0.6309297535714574,0.0653299800297634,succ_gain,0.0,6.0,,,ae11,2,2022-04-29_14h41.34.857,threat_forest,2021.2.3,59.91044588103704,True,44.0,0.5357142857142857,0.5428571428571429,-0.7806122448979592,-0.8453061224489797,1,0,1,-0.5519177935013161,0.0653299800297634,0.5,0.5,0.5,1.0,-0.5,-0.5,4.5,4.5,1.0,1.0,-1.0,5.0,0,0,1
12.0,0.0,12.0,0.0,1.0,0.0,1.0,0.0,,,,right,0.5075186002068222,417.1412055999972,ae11,417.1412055999972,None,407.01829409971833,410.5164822996594,False,6.0,['r'],True,0.5,0.5,0.0,0.0,1.0,0.6309297535714574,-0.0434388067740604,wait_cost,0.0,5.0,416.2333108996973,None,ae11,2,2022-04-29_14h41.34.857,threat_forest,2021.2.3,59.91044588103704,False,44.0,0.5357142857142857,0.5428571428571429,-0.7806122448979592,-0.8453061224489797,1,0,0,-0.6782219180839767,-0.0434388067740604,0.5,0.5,0.5,1.0,-0.5,-0.5,5.5,5.5,1.0,1.0,1.0,6.0,0,0,1
12.0,0.0,12.0,0.0,2.0,0.0,2.0,0.0,,,,left,0.6708341003395617,420.8666570000351,ae11,420.8666570000351,None,407.01829409971833,410.5164822996594,True,5.0,['r'],True,0.5,0.5,0.0,0.0,1.0,0.6309297535714574,0.0981848763621676,succ_gain,0.0,6.0,419.68287679972127,None,ae11,2,2022-04-29_14h41.34.857,threat_forest,2021.2.3,59.91044588103704,True,44.0,0.5357142857142857,0.5428571428571429,-0.7806122448979592,-0.8453061224489797,1,0,1,-0.39923341499486015,0.0981848763621676,0.5,0.5,0.5,1.0,-0.5,-0.5,4.5,4.5,1.0,1.0,-1.0,5.0,0,0,1
12.0,0.0,12.0,0.0,3.0,0.0,3.0,0.0,,,,right,0.8072987999767065,425.4045360996388,ae11,425.4045360996388,None,407.01829409971833,410.5164822996594,False,6.0,['r'],True,0.5,0.5,0.0,0.0,1.0,0.6309297535714574,-0.1560938150770512,wait_cost,0.0,5.0,423.5658439998515,None,ae11,2,2022-04-29_14h41.34.857,threat_forest,2021.2.3,59.91044588103704,False,44.0,0.5357142857142857,0.5428571428571429,-0.7806122448979592,-0.8453061224489797,1,0,0,-0.21406141904739465,-0.1560938150770512,0.0,0.5,0.5,1.0,-0.5,-0.5,5.5,5.5,1.0,1.0,1.0,6.0,0,0,1
