miniblock.thisRepN,miniblock.thisTrialN,miniblock.thisN,miniblock.thisIndex,day.thisRepN,day.thisTrialN,day.thisN,day.thisIndex,forest.started,fixation_forest.started,fixation_forest.stopped,key_resp.keys,key_resp.rt,key_resp.started,Subject_ID,weather_left.started,weather_left.stopped,weather_right.started,weather_right.stopped,foraging T/F,in_LP,p/r heuristic,good_weather.T/F,p_succ_correct,p_succ_uncorrected,r_threat,n_oponents,gain_if_succ,weather_entropy,OP_value_difference,action_outcome,forest_side_L=0_R=1,out_LP,fixation_day.started,fixation_day.stopped,participant,session,date,expName,psychopyVersion,frameRate,foraging T/F NaNs,fora_NR,forest_mean_p,mvt_cutoff_p,forest_mean_ev,mvt_cutoff_ev,mvt_policy_eg,mvt_policy_p,fora_response,logRT,optimal policy values,multi-heuristic policy,** $\mathit{p}$ success,* $\mathit{p}$ gain,* $\mathit{r}$ predator,expected gain naive,expected gain correct,expected state no bounds,expected state with bounds,weather type,gain magnitude,win stay lose shift,continuous energy state,** binary energy state,** wait when safe,$\mathit{p}$ success based MVT,marginal value,$\mathit{OP}$ values + cap
0.0,0.0,0.0,0.0,0.0,0.0,0.0,0.0,32.89644769998267,36.40041349991225,,right,2.403665400110185,39.388858099933714,xt17,32.89644769998267,36.40041349991225,39.388858099933714,,True,4.0,['p'],False,0.27,0.3,0.1,1.0,1.0,0.7963326591781347,0.00800026338778,succ_gain,1.0,5.0,,,xt17,1,2022-04-21_14h26.14.214,threat_forest,2021.2.3,59.92846936451807,True,6.0,0.4833333333333333,0.4833333333333333,-1.145,-1.145,0,0,1.0,0.8769948223395337,0.00800026338778,0.27,0.27,0.3,0.1,-0.3999999999999999,-0.29000000000000004,3.71,3.71,0.0,1.0,,4.0,0,1,0,0,0.00800026338778
0.0,0.0,0.0,0.0,1.0,0.0,1.0,0.0,,,,left,1.4438672000542283,45.20106059988029,xt17,45.20106059988029,,41.81750790006481,43.81764529994689,True,5.0,['p'],True,0.4444444444444445,0.6666666666666666,0.3333333333333333,1.0,1.0,0.9656336071428248,0.0567567681136075,succ_gain,0.0,6.0,43.81764529994689,,xt17,1,2022-04-21_14h26.14.214,threat_forest,2021.2.3,59.92846936451807,True,6.0,0.4833333333333333,0.4833333333333333,-1.145,-1.145,1,0,1.0,0.3673250695199877,0.0567567681136075,0.4444444444444445,0.4444444444444445,0.6666666666666666,0.3333333333333333,0.0,0.0,5.0,5.0,1.0,1.0,1.0,5.0,0,1,0,1,0.0567567681136075
0.0,0.0,0.0,0.0,2.0,0.0,2.0,0.0,,,,left,2.3919657999649644,50.46799180004746,xt17,50.46799180004746,,41.81750790006481,43.81764529994689,True,6.0,['p'],True,0.4444444444444445,0.6666666666666666,0.3333333333333333,1.0,1.0,0.9656336071428248,0.0551935944575162,succ_gain,0.0,6.0,48.66747420001775,,xt17,1,2022-04-21_14h26.14.214,threat_forest,2021.2.3,59.92846936451807,True,6.0,0.4833333333333333,0.4833333333333333,-1.145,-1.145,1,0,1.0,0.8721155383126628,0.0551935944575162,0.4444444444444445,0.4444444444444445,0.6666666666666666,0.3333333333333333,0.0,0.0,6.0,6.0,1.0,1.0,1.0,6.0,0,1,0,1,0.0551935944575162
0.0,0.0,0.0,0.0,3.0,0.0,3.0,0.0,,,,left,1.805174299981445,56.37222360004671,xt17,52.88442280003801,54.88410030002706,56.37222360004671,,False,6.0,['p'],False,0.27,0.3,0.1,1.0,1.0,0.7963326591781347,-0.3339464734825103,wait_cost,1.0,5.0,54.88410030002706,,xt17,1,2022-04-21_14h26.14.214,threat_forest,2021.2.3,59.92846936451807,False,6.0,0.4833333333333333,0.4833333333333333,-1.145,-1.145,0,0,0.0,0.5906571522094095,-0.3339464734825103,0.0,0.27,0.3,0.1,-0.3999999999999999,-0.29000000000000004,5.71,5.71,0.0,1.0,-1.0,6.0,0,0,0,0,-0.84
0.0,0.0,0.0,0.0,4.0,0.0,4.0,0.0,,,,right,2.056655399966985,62.83474369999021,xt17,52.88442280003801,54.88410030002706,62.83474369999021,,True,5.0,['p'],False,0.27,0.3,0.1,1.0,1.0,0.7963326591781347,-0.3689703611111111,succ_gain,1.0,6.0,60.20088010001928,,xt17,1,2022-04-21_14h26.14.214,threat_forest,2021.2.3,59.92846936451807,True,6.0,0.4833333333333333,0.4833333333333333,-1.145,-1.145,0,0,1.0,0.7210810710981939,-0.3689703611111111,0.0,0.27,0.3,0.1,-0.3999999999999999,-0.29000000000000004,4.71,4.71,0.0,1.0,-1.0,5.0,0,0,0,0,-0.84
0.0,0.0,0.0,0.0,5.0,0.0,5.0,0.0,,,,left,1.999293399974704,69.3513853000477,xt17,52.88442280003801,54.88410030002706,69.3513853000477,,False,6.0,['p'],False,0.27,0.3,0.1,1.0,1.0,0.7963326591781347,0.0,wait_cost,1.0,5.0,66.91760899988003,,xt17,1,2022-04-21_14h26.14.214,threat_forest,2021.2.3,59.92846936451807,False,6.0,0.4833333333333333,0.4833333333333333,-1.145,-1.145,0,0,0.0,0.6927938181221442,0.0,0.0,0.27,0.3,0.1,-0.3999999999999999,-0.29000000000000004,5.71,5.71,0.0,1.0,1.0,6.0,0,0,0,0,-0.84
0.0,0.0,0.0,0.0,6.0,0.0,6.0,0.0,,,,left,1.6118672001175582,76.65225640009157,xt17,52.88442280003801,54.88410030002706,76.65225640009157,,False,5.0,['p'],False,0.27,0.3,0.1,1.0,1.0,0.7963326591781347,0.0,wait_cost,1.0,4.0,73.36775259999558,,xt17,1,2022-04-21_14h26.14.214,threat_forest,2021.2.3,59.92846936451807,False,6.0,0.4833333333333333,0.4833333333333333,-1.145,-1.145,0,0,0.0,0.4773932586297801,0.0,0.0,0.27,0.3,0.1,-0.3999999999999999,-0.29000000000000004,4.71,4.71,0.0,1.0,-1.0,5.0,0,0,0,0,-0.84
0.0,0.0,0.0,0.0,7.0,0.0,7.0,0.0,,,,right,2.3233151000458747,82.38524309988134,xt17,82.38524309988134,,78.2848062000703,80.28450100007467,False,4.0,['p'],True,0.4444444444444445,0.6666666666666666,0.3333333333333333,1.0,1.0,0.9656336071428248,0.0,wait_cost,0.0,3.0,80.28450100007467,,xt17,1,2022-04-21_14h26.14.214,threat_forest,2021.2.3,59.92846936451807,False,6.0,0.4833333333333333,0.4833333333333333,-1.145,-1.145,1,0,0.0,0.8429950881736175,0.0,0.0,0.4444444444444445,0.6666666666666666,0.3333333333333333,0.0,0.0,4.0,4.0,1.0,1.0,-1.0,4.0,0,0,0,1,-0.84
1.0,0.0,1.0,0.0,0.0,0.0,0.0,0.0,88.97963030007668,92.48471889994109,,right,0.943366400199011,94.6352462999057,xt17,88.97963030007668,92.48471889994109,94.6352462999057,,True,5.0,['p'],False,0.4444444444444445,0.6666666666666666,0.3333333333333333,1.0,1.0,0.9656336071428248,0.0467066160950204,figh_cost,1.0,2.0,,,xt17,1,2022-04-21_14h26.14.214,threat_forest,2021.2.3,59.92846936451807,True,57.0,0.4583333333333333,0.4708333333333333,-1.34375,-1.244375,1,0,1.0,-0.05830052441281374,0.0467066160950204,0.4444444444444445,0.4444444444444445,0.6666666666666666,0.3333333333333333,0.0,0.0,5.0,5.0,0.0,1.0,-1.0,5.0,0,1,0,1,0.0467066160950204
1.0,0.0,1.0,0.0,1.0,0.0,1.0,0.0,,,,right,0.9981099001597612,98.13541230000556,xt17,88.97963030007668,92.48471889994109,98.13541230000556,,True,2.0,['p'],False,0.4444444444444445,0.6666666666666666,0.3333333333333333,1.0,1.0,0.9656336071428248,0.034685865190818,figh_cost,1.0,0.0,97.6014553999994,,xt17,1,2022-04-21_14h26.14.214,threat_forest,2021.2.3,59.92846936451807,True,57.0,0.4583333333333333,0.4708333333333333,-1.34375,-1.244375,1,0,1.0,-0.0018918883329169757,0.034685865190818,0.4444444444444445,0.4444444444444445,0.6666666666666666,0.3333333333333333,0.0,0.0,2.0,2.0,0.0,1.0,-1.0,2.0,0,1,0,1,0.034685865190818
2.0,0.0,2.0,0.0,0.0,0.0,0.0,0.0,103.32474120007828,106.83482409990393,,left,2.2818126000929624,109.13689019996671,xt17,103.32474120007828,106.83482409990393,109.13689019996671,,False,5.0,['p'],False,0.2040816326530612,0.2857142857142857,0.2857142857142857,2.0,2.0,0.9335459102197724,-0.0417655517413427,wait_cost,1.0,4.0,,,xt17,1,2022-04-21_14h26.14.214,threat_forest,2021.2.3,59.92846936451807,False,21.0,0.47619047619047616,0.46726190476190477,-1.012471655328798,-1.178110827664399,0,0,0.0,0.8249701271619768,-0.0417655517413427,0.2040816326530612,0.2040816326530612,0.2857142857142857,0.2857142857142857,-0.7142857142857144,-0.46938775510204067,4.530612244897959,4.530612244897959,0.0,2.0,-1.0,5.0,0,1,0,0,-0.0417655517413427
2.0,0.0,2.0,0.0,1.0,0.0,1.0,0.0,,,,left,2.0073467998299748,116.7688833998982,xt17,116.7688833998982,,111.43525139987467,113.43493009987289,True,4.0,['p'],True,0.4444444444444445,0.6666666666666666,0.3333333333333333,1.0,2.0,0.9656336071428248,0.1275977123343487,figh_cost,0.0,1.0,113.43493009987289,,xt17,1,2022-04-21_14h26.14.214,threat_forest,2021.2.3,59.92846936451807,True,21.0,0.47619047619047616,0.46726190476190477,-1.012471655328798,-1.178110827664399,1,0,1.0,0.6968138500188671,0.1275977123343487,0.4444444444444445,0.4444444444444445,0.6666666666666666,0.3333333333333333,0.6666666666666665,0.4444444444444444,4.444444444444445,4.444444444444445,1.0,2.0,-1.0,4.0,0,1,0,1,0.1275977123343487
2.0,0.0,2.0,0.0,2.0,0.0,2.0,0.0,,,,,,122.7188385000918,xt17,122.7188385000918,,111.43525139987467,113.43493009987289,True,1.0,['p'],True,0.4444444444444445,0.6666666666666666,0.3333333333333333,1.0,2.0,0.9656336071428248,0.1913900786299441,wait_cost,0.0,0.0,120.80168949998917,,xt17,1,2022-04-21_14h26.14.214,threat_forest,2021.2.3,59.92846936451807,,21.0,0.47619047619047616,0.46726190476190477,-1.012471655328798,-1.178110827664399,1,0,,,0.1913900786299441,1.0,0.4444444444444445,0.6666666666666666,0.3333333333333333,0.6666666666666665,0.4444444444444444,1.4444444444444444,1.4444444444444444,1.0,2.0,-1.0,1.0,1,1,0,1,0.625
3.0,0.0,3.0,0.0,0.0,0.0,0.0,0.0,128.6266383000184,132.13520139991306,,right,0.7374553000554442,134.45416700001806,xt17,128.6266383000184,132.13520139991306,134.45416700001806,,True,5.0,['p'],False,0.2,0.2,0.0,0.0,2.0,0.4554859150035951,-0.008629770690918,succ_gain,1.0,6.0,,,xt17,1,2022-04-21_14h26.14.214,threat_forest,2021.2.3,59.92846936451807,True,45.0,0.35,0.41309523809523807,-0.9750000000000001,-0.993735827664399,0,0,1.0,-0.30454980269934107,-0.008629770690918,0.2,0.2,0.2,0.0,-0.20000000000000018,-0.20000000000000018,4.8,4.8,0.0,2.0,-1.0,5.0,0,1,0,0,-0.008629770690918
3.0,0.0,3.0,0.0,1.0,0.0,1.0,0.0,,,,right,1.0729882000014186,138.01935989991762,xt17,128.6266383000184,132.13520139991306,138.01935989991762,,True,6.0,['p'],False,0.2,0.2,0.0,0.0,2.0,0.4554859150035951,-0.0656154916381837,succ_gain,1.0,6.0,137.21865779999644,,xt17,1,2022-04-21_14h26.14.214,threat_forest,2021.2.3,59.92846936451807,True,45.0,0.35,0.41309523809523807,-0.9750000000000001,-0.993735827664399,0,0,1.0,0.07044746638531317,-0.0656154916381837,0.2,0.2,0.2,0.0,-0.20000000000000018,-0.20000000000000018,5.8,5.8,0.0,2.0,1.0,6.0,0,1,0,0,-0.0656154916381837
3.0,0.0,3.0,0.0,2.0,0.0,2.0,0.0,,,,right,0.7174420999363065,142.08604829991236,xt17,128.6266383000184,132.13520139991306,142.08604829991236,,True,6.0,['p'],False,0.2,0.2,0.0,0.0,2.0,0.4554859150035951,0.0017642578125,unsucc_cost,1.0,4.0,141.11872350005433,,xt17,1,2022-04-21_14h26.14.214,threat_forest,2021.2.3,59.92846936451807,True,45.0,0.35,0.41309523809523807,-0.9750000000000001,-0.993735827664399,0,0,1.0,-0.3320630315574181,0.0017642578125,0.2,0.2,0.2,0.0,-0.20000000000000018,-0.20000000000000018,5.8,5.8,0.0,2.0,-1.0,6.0,0,1,0,0,0.0017642578125
3.0,0.0,3.0,0.0,3.0,0.0,3.0,0.0,,,,left,2.932284699985757,146.8695960000623,xt17,128.6266383000184,132.13520139991306,146.8695960000623,,False,4.0,['p'],False,0.2,0.2,0.0,0.0,2.0,0.4554859150035951,0.00859375,wait_cost,1.0,3.0,144.83538009994663,,xt17,1,2022-04-21_14h26.14.214,threat_forest,2021.2.3,59.92846936451807,False,45.0,0.35,0.41309523809523807,-0.9750000000000001,-0.993735827664399,0,0,0.0,1.0757818802605348,0.00859375,0.2,0.2,0.2,0.0,-0.20000000000000018,-0.20000000000000018,3.8,3.8,0.0,2.0,-1.0,4.0,0,1,0,0,0.00859375
3.0,0.0,3.0,0.0,4.0,0.0,4.0,0.0,,,,left,1.40812460007146,154.36939870007336,xt17,154.36939870007336,,149.8192565999925,151.81895460002124,True,3.0,['p'],True,0.375,0.5,0.25,1.0,2.0,0.9850568223215076,0.1515624999999999,unsucc_cost,0.0,1.0,151.81895460002124,,xt17,1,2022-04-21_14h26.14.214,threat_forest,2021.2.3,59.92846936451807,True,45.0,0.35,0.41309523809523807,-0.9750000000000001,-0.993735827664399,1,0,1.0,0.34225874818938967,0.1515624999999999,0.375,0.375,0.5,0.25,0.25,0.25,3.25,3.25,1.0,2.0,-1.0,3.0,0,1,0,1,0.1515624999999999
3.0,0.0,3.0,0.0,5.0,0.0,5.0,0.0,,,,left,1.0180111001245675,161.5532551999204,xt17,161.5532551999204,,149.8192565999925,151.81895460002124,True,1.0,['p'],True,0.375,0.5,0.25,1.0,2.0,0.9850568223215076,0.375,succ_gain,0.0,3.0,157.8026119999122,,xt17,1,2022-04-21_14h26.14.214,threat_forest,2021.2.3,59.92846936451807,True,45.0,0.35,0.41309523809523807,-0.9750000000000001,-0.993735827664399,1,0,1.0,0.01785082192405879,0.375,1.0,0.375,0.5,0.25,0.25,0.25,1.25,1.25,1.0,2.0,-1.0,1.0,1,1,0,1,0.625
3.0,0.0,3.0,0.0,6.0,0.0,6.0,0.0,,,,right,2.118450300069526,167.43599439994432,xt17,167.43599439994432,,149.8192565999925,151.81895460002124,False,3.0,['p'],True,0.375,0.5,0.25,1.0,2.0,0.9850568223215076,-0.5171875,wait_cost,0.0,2.0,164.6191396000795,,xt17,1,2022-04-21_14h26.14.214,threat_forest,2021.2.3,59.92846936451807,False,45.0,0.35,0.41309523809523807,-0.9750000000000001,-0.993735827664399,1,0,0.0,0.7506848308468264,-0.5171875,0.0,0.375,0.5,0.25,0.25,0.25,3.25,3.25,1.0,2.0,1.0,3.0,0,0,0,1,-0.84
3.0,0.0,3.0,0.0,7.0,0.0,7.0,0.0,,,,left,1.948027600068599,174.6195529999677,xt17,169.58607960003428,171.58593249996193,174.6195529999677,,False,2.0,['p'],False,0.2,0.2,0.0,0.0,2.0,0.4554859150035951,-0.8,wait_cost,1.0,1.0,171.58593249996193,,xt17,1,2022-04-21_14h26.14.214,threat_forest,2021.2.3,59.92846936451807,False,45.0,0.35,0.41309523809523807,-0.9750000000000001,-0.993735827664399,0,0,0.0,0.6668173735330108,-0.8,0.0,0.2,0.2,0.0,-0.20000000000000018,-0.20000000000000018,1.7999999999999998,1.7999999999999998,0.0,2.0,-1.0,2.0,0,0,0,0,-0.84
4.0,0.0,4.0,0.0,0.0,0.0,0.0,0.0,179.22682840004563,182.73598899994977,,,,183.9052504999563,xt17,183.9052504999563,,179.22682840004563,182.73598899994977,True,4.0,['p'],True,0.16,0.2,0.2,2.0,2.0,0.8198746470064713,0.0047596004754687,wait_cost,0.0,3.0,,,xt17,1,2022-04-21_14h26.14.214,threat_forest,2021.2.3,59.92846936451807,,8.0,0.35,0.35,-1.5300000000000002,-1.2525000000000002,0,0,,,0.0047596004754687,0.16,0.16,0.2,0.2,-0.8000000000000003,-0.5600000000000003,3.4399999999999995,3.4399999999999995,1.0,2.0,-1.0,4.0,0,1,0,0,0.0047596004754687
4.0,0.0,4.0,0.0,1.0,0.0,1.0,0.0,,,,left,1.6128712000790983,192.2033357999753,xt17,186.91972230002284,188.91933589987457,192.2033357999753,,False,3.0,['p'],False,0.25,0.5,0.5,1.0,2.0,0.9463946303571862,0.0267718626953125,wait_cost,1.0,2.0,188.91933589987457,,xt17,1,2022-04-21_14h26.14.214,threat_forest,2021.2.3,59.92846936451807,False,8.0,0.35,0.35,-1.5300000000000002,-1.2525000000000002,0,0,0.0,0.4780159447949088,0.0267718626953125,0.25,0.25,0.5,0.5,-0.5,-0.5,2.5,2.5,0.0,2.0,-1.0,3.0,0,1,0,0,0.0267718626953125
4.0,0.0,4.0,0.0,2.0,0.0,2.0,0.0,,,,left,1.122816199902445,197.970814100001,xt17,197.970814100001,,193.8364019000437,195.8363143000752,True,2.0,['p'],True,0.16,0.2,0.2,2.0,2.0,0.8198746470064713,-0.008327462,succ_gain,0.0,4.0,195.8363143000752,,xt17,1,2022-04-21_14h26.14.214,threat_forest,2021.2.3,59.92846936451807,True,8.0,0.35,0.35,-1.5300000000000002,-1.2525000000000002,0,0,1.0,0.11583999352979688,-0.008327462,0.16,0.16,0.2,0.2,-0.8000000000000003,-0.5600000000000003,1.4399999999999997,1.4399999999999997,1.0,2.0,-1.0,2.0,0,1,0,0,-0.008327462
4.0,0.0,4.0,0.0,3.0,0.0,3.0,0.0,,,,left,1.8711162998806683,203.00347450003028,xt17,199.12001210008748,201.1196109000593,203.00347450003028,,False,4.0,['p'],False,0.25,0.5,0.5,1.0,2.0,0.9463946303571862,0.0410130625,wait_cost,1.0,3.0,201.1196109000593,,xt17,1,2022-04-21_14h26.14.214,threat_forest,2021.2.3,59.92846936451807,False,8.0,0.35,0.35,-1.5300000000000002,-1.2525000000000002,0,0,0.0,0.6265352045694853,0.0410130625,0.25,0.25,0.5,0.5,-0.5,-0.5,3.5,3.5,0.0,2.0,1.0,4.0,0,1,0,0,0.0410130625
4.0,0.0,4.0,0.0,4.0,0.0,4.0,0.0,,,,right,2.343247100012377,209.05581380007789,xt17,209.05581380007789,,204.90314160007983,206.9032320000697,False,3.0,['p'],True,0.16,0.2,0.2,2.0,2.0,0.8198746470064713,0.0636999999999998,wait_cost,0.0,2.0,206.9032320000697,,xt17,1,2022-04-21_14h26.14.214,threat_forest,2021.2.3,59.92846936451807,False,8.0,0.35,0.35,-1.5300000000000002,-1.2525000000000002,0,0,0.0,0.8515376170516201,0.0636999999999998,0.16,0.16,0.2,0.2,-0.8000000000000003,-0.5600000000000003,2.4399999999999995,2.4399999999999995,1.0,2.0,-1.0,3.0,0,1,0,0,0.0636999999999998
4.0,0.0,4.0,0.0,5.0,0.0,5.0,0.0,,,,left,2.0002921000123024,214.9202344999649,xt17,211.4200744999107,213.41976629989225,214.9202344999649,,False,2.0,['p'],False,0.25,0.5,0.5,1.0,2.0,0.9463946303571862,0.045,wait_cost,1.0,1.0,213.41976629989225,,xt17,1,2022-04-21_14h26.14.214,threat_forest,2021.2.3,59.92846936451807,False,8.0,0.35,0.35,-1.5300000000000002,-1.2525000000000002,0,0,0.0,0.6932932199018327,0.045,0.25,0.25,0.5,0.5,-0.5,-0.5,1.5,1.5,0.0,2.0,-1.0,2.0,0,1,0,0,0.045
4.0,0.0,4.0,0.0,6.0,0.0,6.0,0.0,,,,right,1.3548830999061463,219.7205526998732,xt17,211.4200744999107,213.41976629989225,219.7205526998732,,True,1.0,['p'],False,0.25,0.5,0.5,1.0,2.0,0.9463946303571862,0.25,unsucc_cost,1.0,0.0,218.9365407000296,,xt17,1,2022-04-21_14h26.14.214,threat_forest,2021.2.3,59.92846936451807,True,8.0,0.35,0.35,-1.5300000000000002,-1.2525000000000002,0,0,1.0,0.30371517747792814,0.25,1.0,0.25,0.5,0.5,-0.5,-0.5,0.5,1.0,0.0,2.0,-1.0,1.0,1,1,0,0,0.625
5.0,0.0,5.0,0.0,0.0,0.0,0.0,0.0,226.20664169988595,229.7200444000773,,right,1.984247000189498,231.62077490007505,xt17,226.20664169988595,229.7200444000773,231.62077490007505,,True,5.0,['r'],False,0.36,0.6,0.4,2.0,2.0,0.9801625908629508,-0.0333353473,unsucc_cost,1.0,3.0,,,xt17,1,2022-04-21_14h26.14.214,threat_forest,2021.2.3,59.92846936451807,True,67.0,0.55,0.45,-0.4800000000000001,-1.0050000000000001,1,0,1.0,0.6852394971769444,-0.0333353473,0.36,0.36,0.6,0.4,0.19999999999999973,0.039999999999999813,5.04,5.04,0.0,2.0,-1.0,5.0,0,1,0,1,-0.0333353473
5.0,0.0,5.0,0.0,1.0,0.0,1.0,0.0,,,,left,1.764924900140613,237.920438000001,xt17,237.920438000001,,233.63699080003423,235.6367790000513,True,3.0,['r'],True,0.5,0.5,0.0,0.0,2.0,0.6309297535714574,0.1837645000000001,succ_gain,0.0,5.0,235.6367790000513,,xt17,1,2022-04-21_14h26.14.214,threat_forest,2021.2.3,59.92846936451807,True,67.0,0.55,0.45,-0.4800000000000001,-1.0050000000000001,1,1,1.0,0.5681081399846013,0.1837645000000001,0.5,0.5,0.5,0.0,1.0,1.0,4.0,4.0,1.0,2.0,-1.0,3.0,0,1,1,1,0.1837645000000001
5.0,0.0,5.0,0.0,2.0,0.0,2.0,0.0,,,,right,2.537535100011155,243.5871607998852,xt17,239.70368720008992,241.7035397000145,243.5871607998852,,True,5.0,['r'],False,0.36,0.6,0.4,2.0,2.0,0.9801625908629508,-0.050683,figh_cost,1.0,2.0,241.7035397000145,,xt17,1,2022-04-21_14h26.14.214,threat_forest,2021.2.3,59.92846936451807,True,67.0,0.55,0.45,-0.4800000000000001,-1.0050000000000001,1,0,1.0,0.9311931767889486,-0.050683,0.36,0.36,0.6,0.4,0.19999999999999973,0.039999999999999813,5.04,5.04,0.0,2.0,1.0,5.0,0,1,0,1,-0.050683
5.0,0.0,5.0,0.0,3.0,0.0,3.0,0.0,,,,left,1.2368471000809222,250.6041607998777,xt17,250.6041607998777,,246.15385679993776,248.15376890008335,True,2.0,['r'],True,0.5,0.5,0.0,0.0,2.0,0.6309297535714574,0.0903250000000001,succ_gain,0.0,4.0,248.15376890008335,,xt17,1,2022-04-21_14h26.14.214,threat_forest,2021.2.3,59.92846936451807,True,67.0,0.55,0.45,-0.4800000000000001,-1.0050000000000001,1,1,1.0,0.21256548033881748,0.0903250000000001,0.5,0.5,0.5,0.0,1.0,1.0,3.0,3.0,1.0,2.0,-1.0,2.0,0,1,1,1,0.0903250000000001
5.0,0.0,5.0,0.0,4.0,0.0,4.0,0.0,,,,left,1.9083798001520336,255.3206253000535,xt17,255.3206253000535,,246.15385679993776,248.15376890008335,True,4.0,['r'],True,0.5,0.5,0.0,0.0,2.0,0.6309297535714574,0.1425,succ_gain,0.0,6.0,253.8706306999084,,xt17,1,2022-04-21_14h26.14.214,threat_forest,2021.2.3,59.92846936451807,True,67.0,0.55,0.45,-0.4800000000000001,-1.0050000000000001,1,1,1.0,0.6462546099003976,0.1425,0.5,0.5,0.5,0.0,1.0,1.0,5.0,5.0,1.0,2.0,1.0,4.0,0,1,1,1,0.1425
5.0,0.0,5.0,0.0,5.0,0.0,5.0,0.0,,,,left,1.063550200080499,260.8382701999508,xt17,257.2542667000089,259.2538574000355,260.8382701999508,,False,6.0,['r'],False,0.36,0.6,0.4,2.0,2.0,0.9801625908629508,0.0,wait_cost,1.0,5.0,259.2538574000355,,xt17,1,2022-04-21_14h26.14.214,threat_forest,2021.2.3,59.92846936451807,False,67.0,0.55,0.45,-0.4800000000000001,-1.0050000000000001,1,0,0.0,0.06161255725265079,0.0,0.0,0.36,0.6,0.4,0.19999999999999973,0.039999999999999813,6.04,6.04,0.0,2.0,1.0,6.0,0,0,0,1,-0.84
5.0,0.0,5.0,0.0,6.0,0.0,6.0,0.0,,,,left,1.1210600999183953,267.5044533999171,xt17,257.2542667000089,259.2538574000355,267.5044533999171,,False,5.0,['r'],False,0.36,0.6,0.4,2.0,2.0,0.9801625908629508,0.0,wait_cost,1.0,4.0,263.9209165000357,,xt17,1,2022-04-21_14h26.14.214,threat_forest,2021.2.3,59.92846936451807,False,67.0,0.55,0.45,-0.4800000000000001,-1.0050000000000001,1,0,0.0,0.11427475542578666,0.0,0.0,0.36,0.6,0.4,0.19999999999999973,0.039999999999999813,5.04,5.04,0.0,2.0,-1.0,5.0,0,0,0,1,-0.84
5.0,0.0,5.0,0.0,7.0,0.0,7.0,0.0,,,,,,274.021401300095,xt17,274.021401300095,,268.6543944999576,270.65405880007893,True,4.0,['r'],True,0.5,0.5,0.0,0.0,2.0,0.6309297535714574,0.0,wait_cost,0.0,3.0,270.65405880007893,,xt17,1,2022-04-21_14h26.14.214,threat_forest,2021.2.3,59.92846936451807,,67.0,0.55,0.45,-0.4800000000000001,-1.0050000000000001,1,1,,,0.0,0.0,0.5,0.5,0.0,1.0,1.0,5.0,5.0,1.0,2.0,-1.0,4.0,0,0,1,1,-0.84
6.0,0.0,6.0,0.0,0.0,0.0,0.0,0.0,281.02743029990233,284.53754279995337,,left,2.338713900186121,286.13927739998326,xt17,281.02743029990233,284.53754279995337,286.13927739998326,,False,4.0,['p'],False,0.2,0.2,0.0,0.0,1.0,0.4554859150035951,0.0014125395763594,wait_cost,1.0,3.0,,,xt17,1,2022-04-21_14h26.14.214,threat_forest,2021.2.3,59.92846936451807,False,39.0,0.43333333333333335,0.4916666666666667,-1.2000000000000002,-0.8400000000000001,0,0,0.0,0.8496011629706769,0.0014125395763594,0.2,0.2,0.2,0.0,-0.40000000000000013,-0.40000000000000013,3.5999999999999996,3.5999999999999996,0.0,1.0,-1.0,4.0,0,1,0,0,0.0014125395763594
6.0,0.0,6.0,0.0,1.0,0.0,1.0,0.0,,,,left,2.0065083000808954,292.7713709999807,xt17,292.7713709999807,,288.5045195999556,290.50463470001705,True,3.0,['p'],True,0.4444444444444445,0.6666666666666666,0.3333333333333333,1.0,1.0,0.9656336071428248,0.0524121025193765,unsucc_cost,0.0,1.0,290.50463470001705,,xt17,1,2022-04-21_14h26.14.214,threat_forest,2021.2.3,59.92846936451807,True,39.0,0.43333333333333335,0.4916666666666667,-1.2000000000000002,-0.8400000000000001,0,0,1.0,0.6963960473127877,0.0524121025193765,0.4444444444444445,0.4444444444444445,0.6666666666666666,0.3333333333333333,0.0,0.0,3.0,3.0,1.0,1.0,-1.0,3.0,0,1,0,0,0.0524121025193765
6.0,0.0,6.0,0.0,2.0,0.0,2.0,0.0,,,,left,1.6719153001904488,299.0215241000988,xt17,299.0215241000988,,288.5045195999556,290.50463470001705,True,1.0,['p'],True,0.4444444444444445,0.6666666666666666,0.3333333333333333,1.0,1.0,0.9656336071428248,0.0696819590509576,succ_gain,0.0,2.0,296.804474900011,,xt17,1,2022-04-21_14h26.14.214,threat_forest,2021.2.3,59.92846936451807,True,39.0,0.43333333333333335,0.4916666666666667,-1.2000000000000002,-0.8400000000000001,0,0,1.0,0.513969855598529,0.0696819590509576,1.0,0.4444444444444445,0.6666666666666666,0.3333333333333333,0.0,0.0,1.0,1.0,1.0,1.0,-1.0,1.0,1,1,0,0,0.625
6.0,0.0,6.0,0.0,3.0,0.0,3.0,0.0,,,,left,1.9573315000161529,303.3550161998719,xt17,303.3550161998719,,288.5045195999556,290.50463470001705,True,2.0,['p'],True,0.4444444444444445,0.6666666666666666,0.3333333333333333,1.0,1.0,0.9656336071428248,0.0665317786922725,unsucc_cost,0.0,0.0,302.7211650998797,,xt17,1,2022-04-21_14h26.14.214,threat_forest,2021.2.3,59.92846936451807,True,39.0,0.43333333333333335,0.4916666666666667,-1.2000000000000002,-0.8400000000000001,0,0,1.0,0.6715820660034172,0.0665317786922725,0.4444444444444445,0.4444444444444445,0.6666666666666666,0.3333333333333333,0.0,0.0,2.0,2.0,1.0,1.0,1.0,2.0,0,1,0,0,0.0665317786922725
7.0,0.0,7.0,0.0,0.0,0.0,0.0,0.0,309.6609364999458,313.17125599994324,,left,1.2522586998529732,316.85530689987354,xt17,316.85530689987354,,309.6609364999458,313.17125599994324,True,4.0,['p'],True,0.4444444444444445,0.6666666666666666,0.3333333333333333,1.0,1.0,0.9656336071428248,0.0433478243421047,figh_cost,0.0,1.0,,,xt17,1,2022-04-21_14h26.14.214,threat_forest,2021.2.3,59.92846936451807,True,13.0,0.47619047619047616,0.45476190476190476,-1.2040816326530612,-1.2020408163265306,1,0,1.0,0.22494888060855603,0.0433478243421047,0.4444444444444445,0.4444444444444445,0.6666666666666666,0.3333333333333333,0.0,0.0,4.0,4.0,1.0,1.0,-1.0,4.0,0,1,0,1,0.0433478243421047
7.0,0.0,7.0,0.0,1.0,0.0,1.0,0.0,,,,left,2.341855099890381,321.72156299999915,xt17,321.72156299999915,,309.6609364999458,313.17125599994324,True,1.0,['p'],True,0.4444444444444445,0.6666666666666666,0.3333333333333333,1.0,1.0,0.9656336071428248,0.0375658438898273,succ_gain,0.0,2.0,320.1382911999244,,xt17,1,2022-04-21_14h26.14.214,threat_forest,2021.2.3,59.92846936451807,True,13.0,0.47619047619047616,0.45476190476190476,-1.2040816326530612,-1.2020408163265306,1,0,1.0,0.8509433930182642,0.0375658438898273,1.0,0.4444444444444445,0.6666666666666666,0.3333333333333333,0.0,0.0,1.0,1.0,1.0,1.0,-1.0,1.0,1,1,0,1,0.625
7.0,0.0,7.0,0.0,2.0,0.0,2.0,0.0,,,,left,2.4228258000221103,329.0883945000824,xt17,324.08852700004354,326.0880974999164,329.0883945000824,,False,2.0,['p'],False,0.2448979591836734,0.2857142857142857,0.1428571428571428,1.0,1.0,0.8400769154957735,-0.0012328694246004,wait_cost,1.0,1.0,326.0880974999164,,xt17,1,2022-04-21_14h26.14.214,threat_forest,2021.2.3,59.92846936451807,False,13.0,0.47619047619047616,0.45476190476190476,-1.2040816326530612,-1.2020408163265306,0,0,0.0,0.8849345449131399,-0.0012328694246004,0.2448979591836734,0.2448979591836734,0.2857142857142857,0.1428571428571428,-0.5714285714285712,-0.40816326530612246,1.5918367346938775,1.5918367346938775,0.0,1.0,1.0,2.0,0,1,0,0,-0.0012328694246004
7.0,0.0,7.0,0.0,3.0,0.0,3.0,0.0,,,,left,2.0111988000571728,334.3219101000577,xt17,334.3219101000577,,331.5385392999742,333.53830590005964,True,1.0,['p'],True,0.4444444444444445,0.6666666666666666,0.3333333333333333,1.0,1.0,0.9656336071428248,0.0784655024537925,succ_gain,0.0,2.0,333.53830590005964,,xt17,1,2022-04-21_14h26.14.214,threat_forest,2021.2.3,59.92846936451807,True,13.0,0.47619047619047616,0.45476190476190476,-1.2040816326530612,-1.2020408163265306,1,0,1.0,0.6987309622233839,0.0784655024537925,1.0,0.4444444444444445,0.6666666666666666,0.3333333333333333,0.0,0.0,1.0,1.0,1.0,1.0,-1.0,1.0,1,1,0,1,0.625
7.0,0.0,7.0,0.0,4.0,0.0,4.0,0.0,,,,,,339.25567399989814,xt17,339.25567399989814,,331.5385392999742,333.53830590005964,True,2.0,['p'],True,0.4444444444444445,0.6666666666666666,0.3333333333333333,1.0,1.0,0.9656336071428248,0.0811093228758706,wait_cost,0.0,1.0,338.3550446000881,,xt17,1,2022-04-21_14h26.14.214,threat_forest,2021.2.3,59.92846936451807,,13.0,0.47619047619047616,0.45476190476190476,-1.2040816326530612,-1.2020408163265306,1,0,,,0.0811093228758706,0.4444444444444445,0.4444444444444445,0.6666666666666666,0.3333333333333333,0.0,0.0,2.0,2.0,1.0,1.0,1.0,2.0,0,1,0,1,0.0811093228758706
7.0,0.0,7.0,0.0,5.0,0.0,5.0,0.0,,,,left,1.3599211000837386,345.13880630000494,xt17,345.13880630000494,,331.5385392999742,333.53830590005964,True,1.0,['p'],True,0.4444444444444445,0.6666666666666666,0.3333333333333333,1.0,1.0,0.9656336071428248,0.1753590325018896,succ_gain,0.0,2.0,344.25517569994554,,xt17,1,2022-04-21_14h26.14.214,threat_forest,2021.2.3,59.92846936451807,True,13.0,0.47619047619047616,0.45476190476190476,-1.2040816326530612,-1.2020408163265306,1,0,1.0,0.3074266834207362,0.1753590325018896,1.0,0.4444444444444445,0.6666666666666666,0.3333333333333333,0.0,0.0,1.0,1.0,1.0,1.0,-1.0,1.0,1,1,0,1,0.625
7.0,0.0,7.0,0.0,6.0,0.0,6.0,0.0,,,,left,2.439409799873829,349.07223540009,xt17,349.07223540009,,331.5385392999742,333.53830590005964,True,2.0,['p'],True,0.4444444444444445,0.6666666666666666,0.3333333333333333,1.0,1.0,0.9656336071428248,0.0997732426303854,succ_gain,0.0,3.0,348.52193289995193,,xt17,1,2022-04-21_14h26.14.214,threat_forest,2021.2.3,59.92846936451807,True,13.0,0.47619047619047616,0.45476190476190476,-1.2040816326530612,-1.2020408163265306,1,0,1.0,0.8917561247485325,0.0997732426303854,0.4444444444444445,0.4444444444444445,0.6666666666666666,0.3333333333333333,0.0,0.0,2.0,2.0,1.0,1.0,1.0,2.0,0,1,0,1,0.0997732426303854
7.0,0.0,7.0,0.0,7.0,0.0,7.0,0.0,,,,right,0.5993927998933941,355.0724647999741,xt17,355.0724647999741,,331.5385392999742,333.53830590005964,False,3.0,['p'],True,0.4444444444444445,0.6666666666666666,0.3333333333333333,1.0,1.0,0.9656336071428248,-0.3333333333333333,wait_cost,0.0,2.0,353.5388068999164,,xt17,1,2022-04-21_14h26.14.214,threat_forest,2021.2.3,59.92846936451807,False,13.0,0.47619047619047616,0.45476190476190476,-1.2040816326530612,-1.2020408163265306,1,0,0.0,-0.5118381363615875,-0.3333333333333333,0.0,0.4444444444444445,0.6666666666666666,0.3333333333333333,0.0,0.0,3.0,3.0,1.0,1.0,1.0,3.0,0,0,0,1,-0.84
8.0,0.0,8.0,0.0,0.0,0.0,0.0,0.0,360.048603199888,363.5553498999216,,left,1.7016291001345962,365.557683999883,xt17,360.048603199888,363.5553498999216,365.557683999883,,False,4.0,['p'],False,0.2,0.2,0.0,0.0,2.0,0.4554859150035951,-0.0012731594242116,wait_cost,1.0,3.0,,,xt17,1,2022-04-21_14h26.14.214,threat_forest,2021.2.3,59.92846936451807,False,37.0,0.26666666666666666,0.37142857142857144,-1.1277777777777778,-1.1659297052154196,0,0,0.0,0.5315860863882399,-0.0012731594242116,0.2,0.2,0.2,0.0,-0.20000000000000018,-0.20000000000000018,3.8,3.8,0.0,2.0,-1.0,4.0,0,1,0,0,-0.0012731594242116
8.0,0.0,8.0,0.0,1.0,0.0,1.0,0.0,,,,,,371.0563477999531,xt17,371.0563477999531,,367.2891124999151,369.2888416999485,True,3.0,['p'],True,0.2777777777777778,0.3333333333333333,0.1666666666666666,1.0,2.0,0.8929352898779304,0.0598929245085531,wait_cost,0.0,2.0,369.2888416999485,,xt17,1,2022-04-21_14h26.14.214,threat_forest,2021.2.3,59.92846936451807,,37.0,0.26666666666666666,0.37142857142857144,-1.1277777777777778,-1.1659297052154196,1,0,,,0.0598929245085531,0.2777777777777778,0.2777777777777778,0.3333333333333333,0.1666666666666666,-0.16666666666666652,-0.05555555555555558,2.9444444444444446,2.9444444444444446,1.0,2.0,-1.0,3.0,0,1,0,1,0.0598929245085531
8.0,0.0,8.0,0.0,2.0,0.0,2.0,0.0,,,,right,1.1621880000457168,377.2059581000358,xt17,374.0558120999485,376.05561050004326,377.2059581000358,,True,2.0,['p'],False,0.2,0.2,0.0,0.0,2.0,0.4554859150035951,-0.0113551726108823,unsucc_cost,1.0,0.0,376.05561050004326,,xt17,1,2022-04-21_14h26.14.214,threat_forest,2021.2.3,59.92846936451807,True,37.0,0.26666666666666666,0.37142857142857144,-1.1277777777777778,-1.1659297052154196,0,0,1.0,0.15030443539967467,-0.0113551726108823,0.2,0.2,0.2,0.0,-0.20000000000000018,-0.20000000000000018,1.7999999999999998,1.7999999999999998,0.0,2.0,-1.0,2.0,0,1,0,0,-0.0113551726108823
9.0,0.0,9.0,0.0,0.0,0.0,0.0,0.0,382.5780342998914,386.0890392998699,,right,0.9863003001082687,386.7396835000254,xt17,382.5780342998914,386.0890392998699,386.7396835000254,,True,4.0,['r'],False,0.5,0.5,0.0,0.0,1.0,0.6309297535714574,0.0805026556124999,succ_gain,1.0,5.0,,,xt17,1,2022-04-21_14h26.14.214,threat_forest,2021.2.3,59.92846936451807,True,24.0,0.55,0.4083333333333333,-0.9100000000000001,-1.018888888888889,1,1,1.0,-0.013794406745373754,0.0805026556124999,0.5,0.5,0.5,0.0,0.5,0.5,4.5,4.5,0.0,1.0,-1.0,4.0,0,1,1,1,0.0805026556124999
9.0,0.0,9.0,0.0,1.0,0.0,1.0,0.0,,,,left,2.531001999974251,391.6896267998964,xt17,382.5780342998914,386.0890392998699,391.6896267998964,,False,5.0,['r'],False,0.5,0.5,0.0,0.0,1.0,0.6309297535714574,0.10483549125,wait_cost,1.0,4.0,389.7557317998726,,xt17,1,2022-04-21_14h26.14.214,threat_forest,2021.2.3,59.92846936451807,False,24.0,0.55,0.4083333333333333,-0.9100000000000001,-1.018888888888889,1,1,0.0,0.9286152717540026,0.10483549125,0.5,0.5,0.5,0.0,0.5,0.5,5.5,5.5,0.0,1.0,1.0,5.0,0,1,1,1,0.10483549125
9.0,0.0,9.0,0.0,2.0,0.0,2.0,0.0,,,,right,0.7989888999145478,399.3731879000552,xt17,382.5780342998914,386.0890392998699,399.3731879000552,,True,4.0,['r'],False,0.5,0.5,0.0,0.0,1.0,0.6309297535714574,0.1151028749999999,unsucc_cost,1.0,2.0,396.23933489993215,,xt17,1,2022-04-21_14h26.14.214,threat_forest,2021.2.3,59.92846936451807,True,24.0,0.55,0.4083333333333333,-0.9100000000000001,-1.018888888888889,1,1,1.0,-0.22440822578476943,0.1151028749999999,0.5,0.5,0.5,0.0,0.5,0.5,4.5,4.5,0.0,1.0,-1.0,4.0,0,1,1,1,0.1151028749999999
9.0,0.0,9.0,0.0,3.0,0.0,3.0,0.0,,,,right,2.4820687000174075,405.74009760003537,xt17,405.74009760003537,,400.18983460008167,402.18933709990233,False,2.0,['r'],True,0.36,0.6,0.4,2.0,1.0,0.9801625908629508,-0.0082544999999999,wait_cost,0.0,1.0,402.18933709990233,,xt17,1,2022-04-21_14h26.14.214,threat_forest,2021.2.3,59.92846936451807,False,24.0,0.55,0.4083333333333333,-0.9100000000000001,-1.018888888888889,0,0,0.0,0.9090923656972587,-0.0082544999999999,0.36,0.36,0.6,0.4,-0.40000000000000036,-0.3200000000000003,1.6799999999999997,1.6799999999999997,1.0,1.0,-1.0,2.0,0,1,0,0,-0.0082544999999999
9.0,0.0,9.0,0.0,4.0,0.0,4.0,0.0,,,,left,2.0785987998824567,411.9397497999016,xt17,411.9397497999016,,400.18983460008167,402.18933709990233,True,1.0,['r'],True,0.36,0.6,0.4,2.0,1.0,0.9801625908629508,0.1674,figh_cost,0.0,0.0,410.2394550000317,,xt17,1,2022-04-21_14h26.14.214,threat_forest,2021.2.3,59.92846936451807,True,24.0,0.55,0.4083333333333333,-0.9100000000000001,-1.018888888888889,0,0,1.0,0.7316940128038162,0.1674,1.0,0.36,0.6,0.4,-0.40000000000000036,-0.3200000000000003,0.6799999999999997,1.0,1.0,1.0,-1.0,1.0,1,1,0,0,0.625
10.0,0.0,10.0,0.0,0.0,0.0,0.0,0.0,418.5997450998984,422.0979329999536,,,,424.5264934999868,xt17,424.5264934999868,,418.5997450998984,422.0979329999536,True,4.0,['r'],True,0.24,0.3,0.2,2.0,2.0,0.9003120349047065,-0.0027286024196422,wait_cost,0.0,3.0,,,xt17,1,2022-04-21_14h26.14.214,threat_forest,2021.2.3,59.92846936451807,,55.0,0.2928571428571428,0.42142857142857143,-1.0485714285714285,-0.9792857142857143,0,0,,,-0.0027286024196422,0.24,0.24,0.3,0.2,-0.3999999999999999,-0.24,3.76,3.76,1.0,2.0,-1.0,4.0,0,1,0,0,-0.0027286024196422
10.0,0.0,10.0,0.0,1.0,0.0,1.0,0.0,,,,left,1.108886499889195,433.1901662999298,xt17,433.1901662999298,,418.5997450998984,422.0979329999536,True,3.0,['r'],True,0.24,0.3,0.2,2.0,2.0,0.9003120349047065,0.0453145987444508,unsucc_cost,0.0,1.0,429.5397427999415,,xt17,1,2022-04-21_14h26.14.214,threat_forest,2021.2.3,59.92846936451807,True,55.0,0.2928571428571428,0.42142857142857143,-1.0485714285714285,-0.9792857142857143,0,0,1.0,0.10335635857629087,0.0453145987444508,0.24,0.24,0.3,0.2,-0.3999999999999999,-0.24,2.76,2.76,1.0,2.0,-1.0,3.0,0,1,0,0,0.0453145987444508
10.0,0.0,10.0,0.0,2.0,0.0,2.0,0.0,,,,right,0.991635699989274,439.7071666000411,xt17,439.7071666000411,,418.5997450998984,422.0979329999536,False,1.0,['r'],True,0.24,0.3,0.2,2.0,2.0,0.9003120349047065,0.0803828504416493,wait_cost,0.0,0.0,436.3231627999339,,xt17,1,2022-04-21_14h26.14.214,threat_forest,2021.2.3,59.92846936451807,False,55.0,0.2928571428571428,0.42142857142857143,-1.0485714285714285,-0.9792857142857143,0,0,0.0,-0.008399477059658853,0.0803828504416493,1.0,0.24,0.3,0.2,-0.3999999999999999,-0.24,0.76,1.0,1.0,2.0,-1.0,1.0,1,1,0,0,0.625
11.0,0.0,11.0,0.0,0.0,0.0,0.0,0.0,444.1658375998959,447.6733152999077,,right,1.2860288999509066,450.96010189992376,xt17,450.96010189992376,,444.1658375998959,447.6733152999077,False,4.0,['p'],True,0.24,0.3,0.2,2.0,2.0,0.9003120349047065,0.0048924551776182,wait_cost,0.0,3.0,,,xt17,1,2022-04-21_14h26.14.214,threat_forest,2021.2.3,59.92846936451807,False,15.0,0.4833333333333333,0.38809523809523805,-0.8977777777777778,-0.9731746031746031,0,0,0.0,0.2515590983085699,0.0048924551776182,0.24,0.24,0.3,0.2,-0.3999999999999999,-0.24,3.76,3.76,1.0,2.0,-1.0,4.0,0,1,0,0,0.0048924551776182
11.0,0.0,11.0,0.0,1.0,0.0,1.0,0.0,,,,left,2.04359669983387,457.3404721999541,xt17,457.3404721999541,,444.1658375998959,447.6733152999077,True,3.0,['p'],True,0.24,0.3,0.2,2.0,2.0,0.9003120349047065,0.0206023046878086,succ_gain,0.0,5.0,454.27341219992377,,xt17,1,2022-04-21_14h26.14.214,threat_forest,2021.2.3,59.92846936451807,True,15.0,0.4833333333333333,0.38809523809523805,-0.8977777777777778,-0.9731746031746031,0,0,1.0,0.7147113435944927,0.0206023046878086,0.24,0.24,0.3,0.2,-0.3999999999999999,-0.24,2.76,2.76,1.0,2.0,-1.0,3.0,0,1,0,0,0.0206023046878086
11.0,0.0,11.0,0.0,2.0,0.0,2.0,0.0,,,,,,463.9239256000146,xt17,459.40727810002863,461.4068467998877,463.9239256000146,,True,5.0,['p'],False,0.4444444444444445,0.6666666666666666,0.3333333333333333,1.0,2.0,0.9656336071428248,0.0727072881708411,wait_cost,1.0,4.0,461.4068467998877,,xt17,1,2022-04-21_14h26.14.214,threat_forest,2021.2.3,59.92846936451807,,15.0,0.4833333333333333,0.38809523809523805,-0.8977777777777778,-0.9731746031746031,1,1,,,0.0727072881708411,0.4444444444444445,0.4444444444444445,0.6666666666666666,0.3333333333333333,0.6666666666666665,0.4444444444444444,5.444444444444445,5.444444444444445,0.0,2.0,1.0,5.0,0,1,1,1,0.0727072881708411
11.0,0.0,11.0,0.0,3.0,0.0,3.0,0.0,,,,left,1.5881244000047443,470.326056699967,xt17,470.326056699967,,466.9238016998861,468.9236735999584,True,4.0,['p'],True,0.24,0.3,0.2,2.0,2.0,0.9003120349047065,0.0167818183813442,unsucc_cost,0.0,2.0,468.9236735999584,,xt17,1,2022-04-21_14h26.14.214,threat_forest,2021.2.3,59.92846936451807,True,15.0,0.4833333333333333,0.38809523809523805,-0.8977777777777778,-0.9731746031746031,0,0,1.0,0.46255369729119333,0.0167818183813442,0.24,0.24,0.3,0.2,-0.3999999999999999,-0.24,3.76,3.76,1.0,2.0,-1.0,4.0,0,1,0,0,0.0167818183813442
11.0,0.0,11.0,0.0,4.0,0.0,4.0,0.0,,,,right,1.152179499855265,475.440845000092,xt17,471.9406965998933,473.9403125999961,475.440845000092,,True,2.0,['p'],False,0.4444444444444445,0.6666666666666666,0.3333333333333333,1.0,2.0,0.9656336071428248,0.1022222222222222,unsucc_cost,1.0,0.0,473.9403125999961,,xt17,1,2022-04-21_14h26.14.214,threat_forest,2021.2.3,59.92846936451807,True,15.0,0.4833333333333333,0.38809523809523805,-0.8977777777777778,-0.9731746031746031,1,1,1.0,0.14165536598225553,0.1022222222222222,0.4444444444444445,0.4444444444444445,0.6666666666666666,0.3333333333333333,0.6666666666666665,0.4444444444444444,2.4444444444444446,2.4444444444444446,0.0,2.0,-1.0,2.0,0,1,1,1,0.1022222222222222
12.0,0.0,12.0,0.0,0.0,0.0,0.0,0.0,479.2668401999399,482.7738330999855,,left,1.3662726001348346,483.9409684999846,xt17,479.2668401999399,482.7738330999855,483.9409684999846,,False,5.0,['p'],False,0.375,0.5,0.25,1.0,1.0,0.9850568223215076,0.037518611380037,wait_cost,1.0,4.0,,,xt17,1,2022-04-21_14h26.14.214,threat_forest,2021.2.3,59.92846936451807,False,9.0,0.4,0.44166666666666665,-1.3025,-1.100138888888889,0,0,0.0,0.31208630209903326,0.037518611380037,0.375,0.375,0.5,0.25,-0.25,-0.125,4.875,4.875,0.0,1.0,-1.0,5.0,0,1,0,0,0.037518611380037
12.0,0.0,12.0,0.0,1.0,0.0,1.0,0.0,,,,left,1.0315503999590874,488.97459680004977,xt17,479.2668401999399,482.7738330999855,488.97459680004977,,False,4.0,['p'],False,0.375,0.5,0.25,1.0,1.0,0.9850568223215076,0.0528715126498535,wait_cost,1.0,3.0,487.3243307999801,,xt17,1,2022-04-21_14h26.14.214,threat_forest,2021.2.3,59.92846936451807,False,9.0,0.4,0.44166666666666665,-1.3025,-1.100138888888889,0,0,0.0,0.031062913178064512,0.0528715126498535,0.375,0.375,0.5,0.25,-0.25,-0.125,3.875,3.875,0.0,1.0,-1.0,4.0,0,1,0,0,0.0528715126498535
12.0,0.0,12.0,0.0,2.0,0.0,2.0,0.0,,,,,,495.6771688000299,xt17,495.6771688000299,,490.024252000032,492.0239351000637,True,3.0,['p'],True,0.24,0.3,0.2,2.0,1.0,0.9003120349047065,0.0003182842476561,wait_cost,0.0,2.0,492.0239351000637,,xt17,1,2022-04-21_14h26.14.214,threat_forest,2021.2.3,59.92846936451807,,9.0,0.4,0.44166666666666665,-1.3025,-1.100138888888889,0,0,,,0.0003182842476561,0.24,0.24,0.3,0.2,-0.7,-0.48,2.52,2.52,1.0,1.0,-1.0,3.0,0,1,0,0,0.0003182842476561
12.0,0.0,12.0,0.0,3.0,0.0,3.0,0.0,,,,right,0.9309640999417752,503.82495049992576,xt17,498.69106399989687,500.69080900005065,503.82495049992576,,True,2.0,['p'],False,0.375,0.5,0.25,1.0,1.0,0.9850568223215076,0.0367406982421875,figh_cost,1.0,0.0,500.69080900005065,,xt17,1,2022-04-21_14h26.14.214,threat_forest,2021.2.3,59.92846936451807,True,9.0,0.4,0.44166666666666665,-1.3025,-1.100138888888889,0,0,1.0,-0.07153456319852775,0.0367406982421875,0.375,0.375,0.5,0.25,-0.25,-0.125,1.875,1.875,0.0,1.0,-1.0,2.0,0,1,0,0,0.0367406982421875
13.0,0.0,13.0,0.0,0.0,0.0,0.0,0.0,510.5305230999365,514.0409979999531,,right,1.2047545998357236,517.8420875000302,xt17,510.5305230999365,514.0409979999531,517.8420875000302,,True,4.0,['r'],False,0.28125,0.375,0.25,2.0,2.0,0.9634951148421658,-0.0007636143604934,unsucc_cost,1.0,2.0,,,xt17,1,2022-04-21_14h26.14.214,threat_forest,2021.2.3,59.92846936451807,True,40.0,0.35416666666666663,0.3770833333333333,-0.8958333333333335,-1.0991666666666666,0,0,1.0,0.18627589461420663,-0.0007636143604934,0.28125,0.28125,0.375,0.25,-0.25,-0.125,3.875,3.875,0.0,2.0,-1.0,4.0,0,1,0,0,-0.0007636143604934
13.0,0.0,13.0,0.0,1.0,0.0,1.0,0.0,,,,right,1.602758700028062,523.9084785000887,xt17,523.9084785000887,,519.0746023000684,521.0743960000109,False,2.0,['r'],True,0.3333333333333333,0.3333333333333333,0.0,0.0,2.0,0.5793801642856949,0.0190226231038631,wait_cost,0.0,1.0,521.0743960000109,,xt17,1,2022-04-21_14h26.14.214,threat_forest,2021.2.3,59.92846936451807,False,40.0,0.35416666666666663,0.3770833333333333,-0.8958333333333335,-1.0991666666666666,1,0,0.0,0.471726332058338,0.0190226231038631,0.3333333333333333,0.3333333333333333,0.3333333333333333,0.0,0.33333333333333315,0.33333333333333315,2.333333333333333,2.333333333333333,1.0,2.0,-1.0,2.0,0,1,0,1,0.0190226231038631
13.0,0.0,13.0,0.0,2.0,0.0,2.0,0.0,,,,right,1.8583410999272016,529.124789299909,xt17,525.5412812998984,527.5412926999852,529.124789299909,,True,1.0,['r'],False,0.28125,0.375,0.25,2.0,2.0,0.9634951148421658,0.1100623609705103,succ_gain,1.0,3.0,527.5412926999852,,xt17,1,2022-04-21_14h26.14.214,threat_forest,2021.2.3,59.92846936451807,True,40.0,0.35416666666666663,0.3770833333333333,-0.8958333333333335,-1.0991666666666666,0,0,1.0,0.6196842080023627,0.1100623609705103,1.0,0.28125,0.375,0.25,-0.25,-0.125,0.875,1.0,0.0,2.0,-1.0,1.0,1,1,0,0,0.625
13.0,0.0,13.0,0.0,3.0,0.0,3.0,0.0,,,,right,1.710872899973765,534.2753931998741,xt17,525.5412812998984,527.5412926999852,534.2753931998741,,True,3.0,['r'],False,0.28125,0.375,0.25,2.0,2.0,0.9634951148421658,0.0303292936748929,figh_cost,1.0,0.0,533.007890699897,,xt17,1,2022-04-21_14h26.14.214,threat_forest,2021.2.3,59.92846936451807,True,40.0,0.35416666666666663,0.3770833333333333,-0.8958333333333335,-1.0991666666666666,0,0,1.0,0.5370037080911074,0.0303292936748929,0.28125,0.28125,0.375,0.25,-0.25,-0.125,2.875,2.875,0.0,2.0,1.0,3.0,0,1,0,0,0.0303292936748929
14.0,0.0,14.0,0.0,0.0,0.0,0.0,0.0,541.4500583999325,544.9581162999384,,left,0.9412020999006928,547.8087084998842,xt17,547.8087084998842,,541.4500583999325,544.9581162999384,True,4.0,['p'],True,0.375,0.5,0.25,1.0,2.0,0.9850568223215076,0.0640175729863931,succ_gain,0.0,6.0,,,xt17,1,2022-04-21_14h26.14.214,threat_forest,2021.2.3,59.92846936451807,True,59.0,0.3611111111111111,0.35763888888888884,-1.1404320987654322,-1.018132716049383,1,1,1.0,-0.060597391042709614,0.0640175729863931,0.375,0.375,0.5,0.25,0.25,0.25,4.25,4.25,1.0,2.0,-1.0,4.0,0,1,1,1,0.0640175729863931
14.0,0.0,14.0,0.0,1.0,0.0,1.0,0.0,,,,left,0.909914700081572,553.3616563000251,xt17,548.7753892999608,550.7748716000933,553.3616563000251,,False,6.0,['p'],False,0.1728395061728395,0.2222222222222222,0.2222222222222222,2.0,2.0,0.8571721972794328,-0.10870870610332,wait_cost,1.0,5.0,550.7748716000933,,xt17,1,2022-04-21_14h26.14.214,threat_forest,2021.2.3,59.92846936451807,False,59.0,0.3611111111111111,0.35763888888888884,-1.1404320987654322,-1.018132716049383,0,0,0.0,-0.0944044200388477,-0.10870870610332,0.1728395061728395,0.1728395061728395,0.2222222222222222,0.2222222222222222,-0.7777777777777777,-0.5308641975308643,5.469135802469136,5.469135802469136,0.0,2.0,1.0,6.0,0,1,0,0,-0.10870870610332
14.0,0.0,14.0,0.0,2.0,0.0,2.0,0.0,,,,left,1.3312526000663638,558.292186500039,xt17,548.7753892999608,550.7748716000933,558.292186500039,,False,5.0,['p'],False,0.1728395061728395,0.2222222222222222,0.2222222222222222,2.0,2.0,0.8571721972794328,-0.0361377939425744,wait_cost,1.0,4.0,556.2916210999247,,xt17,1,2022-04-21_14h26.14.214,threat_forest,2021.2.3,59.92846936451807,False,59.0,0.3611111111111111,0.35763888888888884,-1.1404320987654322,-1.018132716049383,0,0,0.0,0.2861203035751848,-0.0361377939425744,0.1728395061728395,0.1728395061728395,0.2222222222222222,0.2222222222222222,-0.7777777777777777,-0.5308641975308643,4.469135802469136,4.469135802469136,0.0,2.0,-1.0,5.0,0,1,0,0,-0.0361377939425744
14.0,0.0,14.0,0.0,3.0,0.0,3.0,0.0,,,,left,1.1526669999584556,562.7253016999457,xt17,548.7753892999608,550.7748716000933,562.7253016999457,,False,4.0,['p'],False,0.1728395061728395,0.2222222222222222,0.2222222222222222,2.0,2.0,0.8571721972794328,-0.0141708501176583,wait_cost,1.0,3.0,561.6417038000654,,xt17,1,2022-04-21_14h26.14.214,threat_forest,2021.2.3,59.92846936451807,False,59.0,0.3611111111111111,0.35763888888888884,-1.1404320987654322,-1.018132716049383,0,0,0.0,0.14207838774140497,-0.0141708501176583,0.1728395061728395,0.1728395061728395,0.2222222222222222,0.2222222222222222,-0.7777777777777777,-0.5308641975308643,3.4691358024691357,3.4691358024691357,0.0,2.0,-1.0,4.0,0,1,0,0,-0.0141708501176583
14.0,0.0,14.0,0.0,4.0,0.0,4.0,0.0,,,,left,1.5490662001539022,568.4093466000631,xt17,548.7753892999608,550.7748716000933,568.4093466000631,,False,3.0,['p'],False,0.1728395061728395,0.2222222222222222,0.2222222222222222,2.0,2.0,0.8571721972794328,0.0140841716201798,wait_cost,1.0,2.0,565.9083839999512,,xt17,1,2022-04-21_14h26.14.214,threat_forest,2021.2.3,59.92846936451807,False,59.0,0.3611111111111111,0.35763888888888884,-1.1404320987654322,-1.018132716049383,0,0,0.0,0.4376522978707115,0.0140841716201798,0.1728395061728395,0.1728395061728395,0.2222222222222222,0.2222222222222222,-0.7777777777777777,-0.5308641975308643,2.4691358024691357,2.4691358024691357,0.0,2.0,-1.0,3.0,0,1,0,0,0.0140841716201798
14.0,0.0,14.0,0.0,5.0,0.0,5.0,0.0,,,,left,2.231179299997166,573.8926679000724,xt17,573.8926679000724,,569.9753664999735,571.9751661000773,True,2.0,['p'],True,0.375,0.5,0.25,1.0,2.0,0.9850568223215076,0.1010802469135803,succ_gain,0.0,4.0,571.9751661000773,,xt17,1,2022-04-21_14h26.14.214,threat_forest,2021.2.3,59.92846936451807,True,59.0,0.3611111111111111,0.35763888888888884,-1.1404320987654322,-1.018132716049383,1,1,1.0,0.8025302797680115,0.1010802469135803,0.375,0.375,0.5,0.25,0.25,0.25,2.25,2.25,1.0,2.0,-1.0,2.0,0,1,1,1,0.1010802469135803
14.0,0.0,14.0,0.0,6.0,0.0,6.0,0.0,,,,right,0.9199260999448596,581.3093324000947,xt17,581.3093324000947,,569.9753664999735,571.9751661000773,False,4.0,['p'],True,0.375,0.5,0.25,1.0,2.0,0.9850568223215076,-0.181520061728395,wait_cost,0.0,3.0,578.1420201999135,,xt17,1,2022-04-21_14h26.14.214,threat_forest,2021.2.3,59.92846936451807,False,59.0,0.3611111111111111,0.35763888888888884,-1.1404320987654322,-1.018132716049383,1,1,0.0,-0.08346193831226047,-0.181520061728395,0.0,0.375,0.5,0.25,0.25,0.25,4.25,4.25,1.0,2.0,1.0,4.0,0,0,1,1,-0.84
14.0,0.0,14.0,0.0,7.0,0.0,7.0,0.0,,,,right,0.8744330999907106,586.4427865999751,xt17,586.4427865999751,,569.9753664999735,571.9751661000773,False,3.0,['p'],True,0.375,0.5,0.25,1.0,2.0,0.9850568223215076,-0.25,wait_cost,0.0,2.0,584.2587888000999,,xt17,1,2022-04-21_14h26.14.214,threat_forest,2021.2.3,59.92846936451807,False,59.0,0.3611111111111111,0.35763888888888884,-1.1404320987654322,-1.018132716049383,1,1,0.0,-0.1341794883180764,-0.25,0.0,0.375,0.5,0.25,0.25,0.25,3.25,3.25,1.0,2.0,-1.0,3.0,0,0,1,1,-0.84
15.0,0.0,15.0,0.0,0.0,0.0,0.0,0.0,591.8819236001,595.3921230998822,,right,1.8074960999656469,596.1596228999551,xt17,591.8819236001,595.3921230998822,596.1596228999551,,True,4.0,['r'],False,0.25,0.25,0.0,0.0,1.0,0.5118595071429148,0.0117925466256169,succ_gain,1.0,5.0,,,xt17,1,2022-04-21_14h26.14.214,threat_forest,2021.2.3,59.92846936451807,True,32.0,0.26785714285714285,0.314484126984127,-1.461734693877551,-1.3010833963214916,1,0,1.0,0.5919425173531004,0.0117925466256169,0.25,0.25,0.25,0.0,-0.25,-0.25,3.75,3.75,0.0,1.0,-1.0,4.0,0,1,0,1,0.0117925466256169
15.0,0.0,15.0,0.0,1.0,0.0,1.0,0.0,,,,right,1.269675699993968,600.777840099996,xt17,600.777840099996,,597.9926203000359,599.9922106999438,False,5.0,['r'],True,0.2040816326530612,0.2857142857142857,0.2857142857142857,2.0,1.0,0.9335459102197724,0.0005939157599406,wait_cost,0.0,4.0,599.9922106999438,,xt17,1,2022-04-21_14h26.14.214,threat_forest,2021.2.3,59.92846936451807,False,32.0,0.26785714285714285,0.314484126984127,-1.461734693877551,-1.3010833963214916,0,0,0.0,0.23876151352657207,0.0005939157599406,0.2040816326530612,0.2040816326530612,0.2857142857142857,0.2857142857142857,-1.0,-0.6734693877551021,4.326530612244898,4.326530612244898,1.0,1.0,1.0,5.0,0,1,0,0,0.0005939157599406
15.0,0.0,15.0,0.0,2.0,0.0,2.0,0.0,,,,left,2.043817700119689,606.8429078999907,xt17,602.0760119999759,604.0757182999514,606.8429078999907,,False,4.0,['r'],False,0.25,0.25,0.0,0.0,1.0,0.5118595071429148,0.0262769237000459,wait_cost,1.0,3.0,604.0757182999514,,xt17,1,2022-04-21_14h26.14.214,threat_forest,2021.2.3,59.92846936451807,False,32.0,0.26785714285714285,0.314484126984127,-1.461734693877551,-1.3010833963214916,1,0,0.0,0.7148194805556176,0.0262769237000459,0.25,0.25,0.25,0.0,-0.25,-0.25,3.75,3.75,0.0,1.0,-1.0,4.0,0,1,0,1,0.0262769237000459
15.0,0.0,15.0,0.0,3.0,0.0,3.0,0.0,,,,left,2.4512165999040008,611.7426829000469,xt17,602.0760119999759,604.0757182999514,611.7426829000469,,False,3.0,['r'],False,0.25,0.25,0.0,0.0,1.0,0.5118595071429148,0.0564614140897925,wait_cost,1.0,2.0,610.9091330999509,,xt17,1,2022-04-21_14h26.14.214,threat_forest,2021.2.3,59.92846936451807,False,32.0,0.26785714285714285,0.314484126984127,-1.461734693877551,-1.3010833963214916,1,0,0.0,0.8965844726952514,0.0564614140897925,0.25,0.25,0.25,0.0,-0.25,-0.25,2.75,2.75,0.0,1.0,-1.0,3.0,0,1,0,1,0.0564614140897925
15.0,0.0,15.0,0.0,4.0,0.0,4.0,0.0,,,,left,2.15073770005256,616.9762271998916,xt17,616.9762271998916,,614.225936899893,616.2258744998835,True,2.0,['r'],True,0.2040816326530612,0.2857142857142857,0.2857142857142857,2.0,1.0,0.9335459102197724,0.0213766824409896,figh_cost,0.0,0.0,616.2258744998835,,xt17,1,2022-04-21_14h26.14.214,threat_forest,2021.2.3,59.92846936451807,True,32.0,0.26785714285714285,0.314484126984127,-1.461734693877551,-1.3010833963214916,0,0,1.0,0.7658108995921502,0.0213766824409896,0.2040816326530612,0.2040816326530612,0.2857142857142857,0.2857142857142857,-1.0,-0.6734693877551021,1.3265306122448979,1.3265306122448979,1.0,1.0,-1.0,2.0,0,1,0,0,0.0213766824409896
16.0,0.0,16.0,0.0,0.0,0.0,0.0,0.0,624.8456272000913,628.3593530999497,,left,1.0739919999614358,630.4436550000682,xt17,630.4436550000682,,624.8456272000913,628.3593530999497,True,4.0,['r'],True,0.5,0.5,0.0,0.0,1.0,0.6309297535714574,0.0805026556124999,unsucc_cost,0.0,2.0,,,xt17,1,2022-04-21_14h26.14.214,threat_forest,2021.2.3,59.92846936451807,True,0.0,0.55,0.4089285714285714,-0.9100000000000001,-1.1858673469387755,1,1,1.0,0.07138254723345153,0.0805026556124999,0.5,0.5,0.5,0.0,0.5,0.5,4.5,4.5,1.0,1.0,-1.0,4.0,0,1,1,1,0.0805026556124999
16.0,0.0,16.0,0.0,1.0,0.0,1.0,0.0,,,,left,1.9074929999187589,636.5932670999318,xt17,636.5932670999318,,624.8456272000913,628.3593530999497,True,2.0,['r'],True,0.5,0.5,0.0,0.0,1.0,0.6309297535714574,0.0445789599999999,unsucc_cost,0.0,0.0,633.5428947000764,,xt17,1,2022-04-21_14h26.14.214,threat_forest,2021.2.3,59.92846936451807,True,0.0,0.55,0.4089285714285714,-0.9100000000000001,-1.1858673469387755,1,1,1.0,0.6457898144023804,0.0445789599999999,0.5,0.5,0.5,0.0,0.5,0.5,2.5,2.5,1.0,1.0,-1.0,2.0,0,1,1,1,0.0445789599999999
17.0,0.0,17.0,0.0,0.0,0.0,0.0,0.0,643.5546426998917,647.0596505000722,,right,1.609355099964887,650.0104576998856,xt17,650.0104576998856,,643.5546426998917,647.0596505000722,False,5.0,['p'],True,0.48,0.6,0.2,1.0,1.0,0.9455672104350704,0.0603064788559827,wait_cost,0.0,4.0,,,xt17,1,2022-04-21_14h26.14.214,threat_forest,2021.2.3,59.92846936451807,False,4.0,0.4666666666666667,0.5083333333333333,-0.9911111111111113,-0.9505555555555557,1,0,0.0,0.4758335397231543,0.0603064788559827,0.48,0.48,0.6,0.2,0.19999999999999984,0.23999999999999977,5.24,5.24,1.0,1.0,-1.0,5.0,0,1,0,1,0.0603064788559827
17.0,0.0,17.0,0.0,1.0,0.0,1.0,0.0,,,,right,2.1219792999327183,656.7604050999507,xt17,656.7604050999507,,643.5546426998917,647.0596505000722,False,4.0,['p'],True,0.48,0.6,0.2,1.0,1.0,0.9455672104350704,0.0855482011192285,wait_cost,0.0,3.0,653.6430901000276,,xt17,1,2022-04-21_14h26.14.214,threat_forest,2021.2.3,59.92846936451807,False,4.0,0.4666666666666667,0.5083333333333333,-0.9911111111111113,-0.9505555555555557,1,0,0.0,0.7523492851643424,0.0855482011192285,0.48,0.48,0.6,0.2,0.19999999999999984,0.23999999999999977,4.24,4.24,1.0,1.0,-1.0,4.0,0,1,0,1,0.0855482011192285
17.0,0.0,17.0,0.0,2.0,0.0,2.0,0.0,,,,,,662.961863799952,xt17,658.9101094000507,660.9098495000508,662.961863799952,,True,3.0,['p'],False,0.2962962962962963,0.3333333333333333,0.1111111111111111,1.0,1.0,0.8325252476189534,0.0084111177933203,wait_cost,1.0,2.0,660.9098495000508,,xt17,1,2022-04-21_14h26.14.214,threat_forest,2021.2.3,59.92846936451807,,4.0,0.4666666666666667,0.5083333333333333,-0.9911111111111113,-0.9505555555555557,0,0,,,0.0084111177933203,0.2962962962962963,0.2962962962962963,0.3333333333333333,0.1111111111111111,-0.3333333333333335,-0.22222222222222232,2.7777777777777777,2.7777777777777777,0.0,1.0,-1.0,3.0,0,1,0,0,0.0084111177933203
17.0,0.0,17.0,0.0,3.0,0.0,3.0,0.0,,,,left,1.6896341999527067,669.7271143998951,xt17,658.9101094000507,660.9098495000508,669.7271143998951,,False,2.0,['p'],False,0.2962962962962963,0.3333333333333333,0.1111111111111111,1.0,1.0,0.8325252476189534,-0.0250792273535538,wait_cost,1.0,1.0,667.9766512000933,,xt17,1,2022-04-21_14h26.14.214,threat_forest,2021.2.3,59.92846936451807,False,4.0,0.4666666666666667,0.5083333333333333,-0.9911111111111113,-0.9505555555555557,0,0,0.0,0.5245120557742318,-0.0250792273535538,0.2962962962962963,0.2962962962962963,0.3333333333333333,0.1111111111111111,-0.3333333333333335,-0.22222222222222232,1.7777777777777777,1.7777777777777777,0.0,1.0,-1.0,2.0,0,1,0,0,-0.0250792273535538
17.0,0.0,17.0,0.0,4.0,0.0,4.0,0.0,,,,left,1.555010800017044,675.1438585000578,xt17,675.1438585000578,,671.4435976000968,673.4432975000236,True,1.0,['p'],True,0.48,0.6,0.2,1.0,1.0,0.9455672104350704,0.2083555555555555,unsucc_cost,0.0,0.0,673.4432975000236,,xt17,1,2022-04-21_14h26.14.214,threat_forest,2021.2.3,59.92846936451807,True,4.0,0.4666666666666667,0.5083333333333333,-0.9911111111111113,-0.9505555555555557,1,0,1.0,0.44148249095565995,0.2083555555555555,1.0,0.48,0.6,0.2,0.19999999999999984,0.23999999999999977,1.2399999999999998,1.2399999999999998,1.0,1.0,-1.0,1.0,1,1,0,1,0.625
0.0,0.0,0.0,0.0,0.0,0.0,0.0,0.0,11.54610520019196,15.056175400037318,,right,1.6943602000828832,17.524390200152993,xt17,17.524390200152993,,11.54610520019196,15.056175400037318,False,4.0,['p'],True,0.1728395061728395,0.2222222222222222,0.2222222222222222,2.0,2.0,0.8571721972794328,-0.0023371412519707,wait_cost,0.0,3.0,,,xt17,2,2022-04-21_14h37.44.307,threat_forest,2021.2.3,60.02700008468413,False,26.0,0.2111111111111111,0.3388888888888889,-1.3654320987654323,-1.1782716049382718,0,0,0.0,0.5273052064973491,-0.0023371412519707,0.1728395061728395,0.1728395061728395,0.2222222222222222,0.2222222222222222,-0.7777777777777777,-0.5308641975308643,3.4691358024691357,3.4691358024691357,1.0,2.0,-1.0,4.0,0,1,0,0,-0.0023371412519707
0.0,0.0,0.0,0.0,1.0,0.0,1.0,0.0,,,,,,24.806760700186715,xt17,19.23976540006697,21.239563200157136,24.806760700186715,,True,3.0,['p'],False,0.2,0.2,0.0,0.0,2.0,0.4554859150035951,0.042656268684952,wait_cost,1.0,2.0,21.239563200157136,,xt17,2,2022-04-21_14h37.44.307,threat_forest,2021.2.3,60.02700008468413,,26.0,0.2111111111111111,0.3388888888888889,-1.3654320987654323,-1.1782716049382718,0,0,,,0.042656268684952,0.2,0.2,0.2,0.0,-0.20000000000000018,-0.20000000000000018,2.8,2.8,0.0,2.0,-1.0,3.0,0,1,0,0,0.042656268684952
0.0,0.0,0.0,0.0,2.0,0.0,2.0,0.0,,,,right,1.062850899994373,31.323659300105646,xt17,19.23976540006697,21.239563200157136,31.323659300105646,,True,2.0,['p'],False,0.2,0.2,0.0,0.0,2.0,0.4554859150035951,0.0080294181291996,unsucc_cost,1.0,0.0,29.80634760018438,,xt17,2,2022-04-21_14h37.44.307,threat_forest,2021.2.3,60.02700008468413,True,26.0,0.2111111111111111,0.3388888888888889,-1.3654320987654323,-1.1782716049382718,0,0,1.0,0.06095482611122907,0.0080294181291996,0.2,0.2,0.2,0.0,-0.20000000000000018,-0.20000000000000018,1.7999999999999998,1.7999999999999998,0.0,2.0,-1.0,2.0,0,1,0,0,0.0080294181291996
1.0,0.0,1.0,0.0,0.0,0.0,0.0,0.0,35.648550200043246,39.15648690005765,,right,1.4394974999595431,41.59044679999352,xt17,41.59044679999352,,35.648550200043246,39.15648690005765,False,5.0,['r'],True,0.24,0.4,0.4,2.0,1.0,0.9801625908629508,-0.0104347549751131,wait_cost,0.0,4.0,,,xt17,2,2022-04-21_14h37.44.307,threat_forest,2021.2.3,60.02700008468413,False,28.0,0.3666666666666667,0.2888888888888889,-1.3400000000000003,-1.3527160493827162,0,0,0.0,0.3642940943263437,-0.0104347549751131,0.24,0.24,0.4,0.4,-1.0,-0.6800000000000002,4.32,4.32,1.0,1.0,-1.0,5.0,0,1,0,0,-0.0104347549751131
1.0,0.0,1.0,0.0,1.0,0.0,1.0,0.0,,,,left,2.3913290000054985,47.40670759999193,xt17,43.0570678000804,45.05663410015404,47.40670759999193,,False,4.0,['r'],False,0.3333333333333333,0.3333333333333333,0.0,0.0,1.0,0.5793801642856949,0.047174490166255,wait_cost,1.0,3.0,45.05663410015404,,xt17,2,2022-04-21_14h37.44.307,threat_forest,2021.2.3,60.02700008468413,False,28.0,0.3666666666666667,0.2888888888888889,-1.3400000000000003,-1.3527160493827162,1,1,0.0,0.8718492783433913,0.047174490166255,0.3333333333333333,0.3333333333333333,0.3333333333333333,0.0,-2.220446049250313e-16,-2.220446049250313e-16,4.0,4.0,0.0,1.0,-1.0,4.0,0,1,1,1,0.047174490166255
1.0,0.0,1.0,0.0,2.0,0.0,2.0,0.0,,,,right,1.5890552999917418,53.35699950018898,xt17,53.35699950018898,,49.82365779997781,51.82337780017406,False,3.0,['r'],True,0.24,0.4,0.4,2.0,1.0,0.9801625908629508,0.0019563714370369,wait_cost,0.0,2.0,51.82337780017406,,xt17,2,2022-04-21_14h37.44.307,threat_forest,2021.2.3,60.02700008468413,False,28.0,0.3666666666666667,0.2888888888888889,-1.3400000000000003,-1.3527160493827162,0,0,0.0,0.46313968870592925,0.0019563714370369,0.24,0.24,0.4,0.4,-1.0,-0.6800000000000002,2.32,2.32,1.0,1.0,-1.0,3.0,0,1,0,0,0.0019563714370369
1.0,0.0,1.0,0.0,3.0,0.0,3.0,0.0,,,,right,2.5602162000723183,58.09084630012512,xt17,58.09084630012512,,49.82365779997781,51.82337780017406,False,2.0,['r'],True,0.24,0.4,0.4,2.0,1.0,0.9801625908629508,-0.0045573333333333,wait_cost,0.0,1.0,56.973426500102505,,xt17,2,2022-04-21_14h37.44.307,threat_forest,2021.2.3,60.02700008468413,False,28.0,0.3666666666666667,0.2888888888888889,-1.3400000000000003,-1.3527160493827162,0,0,0.0,0.9400917080787536,-0.0045573333333333,0.24,0.24,0.4,0.4,-1.0,-0.6800000000000002,1.3199999999999998,1.3199999999999998,1.0,1.0,-1.0,2.0,0,1,0,0,-0.0045573333333333
1.0,0.0,1.0,0.0,4.0,0.0,4.0,0.0,,,,right,0.8729467000812292,65.32421059999615,xt17,60.67375940014608,62.673497800016776,65.32421059999615,,True,1.0,['r'],False,0.3333333333333333,0.3333333333333333,0.0,0.0,1.0,0.5793801642856949,0.1033333333333332,succ_gain,1.0,2.0,62.673497800016776,,xt17,2,2022-04-21_14h37.44.307,threat_forest,2021.2.3,60.02700008468413,True,28.0,0.3666666666666667,0.2888888888888889,-1.3400000000000003,-1.3527160493827162,1,1,1.0,-0.135880778750687,0.1033333333333332,1.0,0.3333333333333333,0.3333333333333333,0.0,-2.220446049250313e-16,-2.220446049250313e-16,0.9999999999999998,1.0,0.0,1.0,-1.0,1.0,1,1,1,1,0.625
1.0,0.0,1.0,0.0,5.0,0.0,5.0,0.0,,,,left,2.784994800109416,69.15775290015154,xt17,60.67375940014608,62.673497800016776,69.15775290015154,,False,2.0,['r'],False,0.3333333333333333,0.3333333333333333,0.0,0.0,1.0,0.5793801642856949,0.0466666666666666,wait_cost,1.0,1.0,68.22360830008984,,xt17,2,2022-04-21_14h37.44.307,threat_forest,2021.2.3,60.02700008468413,False,28.0,0.3666666666666667,0.2888888888888889,-1.3400000000000003,-1.3527160493827162,1,1,0.0,1.0242460062713699,0.0466666666666666,0.3333333333333333,0.3333333333333333,0.3333333333333333,0.0,-2.220446049250313e-16,-2.220446049250313e-16,1.9999999999999998,1.9999999999999998,0.0,1.0,1.0,2.0,0,1,1,1,0.0466666666666666
1.0,0.0,1.0,0.0,6.0,0.0,6.0,0.0,,,,right,1.37314369995147,76.67441059998237,xt17,60.67375940014608,62.673497800016776,76.67441059998237,,True,1.0,['r'],False,0.3333333333333333,0.3333333333333333,0.0,0.0,1.0,0.5793801642856949,0.3333333333333332,unsucc_cost,1.0,0.0,73.97392370016314,,xt17,2,2022-04-21_14h37.44.307,threat_forest,2021.2.3,60.02700008468413,True,28.0,0.3666666666666667,0.2888888888888889,-1.3400000000000003,-1.3527160493827162,1,1,1.0,0.3171027825994417,0.3333333333333332,1.0,0.3333333333333333,0.3333333333333333,0.0,-2.220446049250313e-16,-2.220446049250313e-16,0.9999999999999998,1.0,0.0,1.0,-1.0,1.0,1,1,1,1,0.625
2.0,0.0,2.0,0.0,0.0,0.0,0.0,0.0,81.60092720016837,85.09457190008834,,left,1.1218007998540998,86.70736770005897,xt17,81.60092720016837,85.09457190008834,86.70736770005897,,False,5.0,['r'],False,0.4166666666666667,0.5,0.1666666666666666,1.0,1.0,0.9358932809493992,0.0479638815409865,wait_cost,1.0,4.0,,,xt17,2,2022-04-21_14h37.44.307,threat_forest,2021.2.3,60.02700008468413,False,16.0,0.4,0.38333333333333336,-1.1033333333333333,-1.2216666666666667,1,1,0.0,0.11493525110138332,0.0479638815409865,0.4166666666666667,0.4166666666666667,0.5,0.1666666666666666,2.220446049250313e-16,0.08333333333333348,5.083333333333334,5.083333333333334,0.0,1.0,-1.0,5.0,0,1,1,1,0.0479638815409865
2.0,0.0,2.0,0.0,1.0,0.0,1.0,0.0,,,,left,1.5111221000552175,90.69124300009572,xt17,81.60092720016837,85.09457190008834,90.69124300009572,,False,4.0,['r'],False,0.4166666666666667,0.5,0.1666666666666666,1.0,1.0,0.9358932809493992,0.0652040051667182,wait_cost,1.0,3.0,89.85721640009433,,xt17,2,2022-04-21_14h37.44.307,threat_forest,2021.2.3,60.02700008468413,False,16.0,0.4,0.38333333333333336,-1.1033333333333333,-1.2216666666666667,1,1,0.0,0.41285248747470993,0.0652040051667182,0.4166666666666667,0.4166666666666667,0.5,0.1666666666666666,2.220446049250313e-16,0.08333333333333348,4.083333333333334,4.083333333333334,0.0,1.0,-1.0,4.0,0,1,1,1,0.0652040051667182
2.0,0.0,2.0,0.0,2.0,0.0,2.0,0.0,,,,left,1.950642599957064,95.80775690008886,xt17,81.60092720016837,85.09457190008834,95.80775690008886,,False,3.0,['r'],False,0.4166666666666667,0.5,0.1666666666666666,1.0,1.0,0.9358932809493992,0.0673778190072015,wait_cost,1.0,2.0,94.2240296001546,,xt17,2,2022-04-21_14h37.44.307,threat_forest,2021.2.3,60.02700008468413,False,16.0,0.4,0.38333333333333336,-1.1033333333333333,-1.2216666666666667,1,1,0.0,0.6681588567293097,0.0673778190072015,0.4166666666666667,0.4166666666666667,0.5,0.1666666666666666,2.220446049250313e-16,0.08333333333333348,3.0833333333333335,3.0833333333333335,0.0,1.0,-1.0,3.0,0,1,1,1,0.0673778190072015
2.0,0.0,2.0,0.0,3.0,0.0,3.0,0.0,,,,right,1.1009394000284374,101.0913687001448,xt17,81.60092720016837,85.09457190008834,101.0913687001448,,True,2.0,['r'],False,0.4166666666666667,0.5,0.1666666666666666,1.0,1.0,0.9358932809493992,0.0468307870370371,succ_gain,1.0,3.0,99.7907292000018,,xt17,2,2022-04-21_14h37.44.307,threat_forest,2021.2.3,60.02700008468413,True,16.0,0.4,0.38333333333333336,-1.1033333333333333,-1.2216666666666667,1,1,1.0,0.09616381537963403,0.0468307870370371,0.4166666666666667,0.4166666666666667,0.5,0.1666666666666666,2.220446049250313e-16,0.08333333333333348,2.0833333333333335,2.0833333333333335,0.0,1.0,-1.0,2.0,0,1,1,1,0.0468307870370371
2.0,0.0,2.0,0.0,4.0,0.0,4.0,0.0,,,,left,1.884604300139472,107.27516299998388,xt17,81.60092720016837,85.09457190008834,107.27516299998388,,False,3.0,['r'],False,0.4166666666666667,0.5,0.1666666666666666,1.0,1.0,0.9358932809493992,0.0910277777777777,wait_cost,1.0,2.0,104.22413480002432,,xt17,2,2022-04-21_14h37.44.307,threat_forest,2021.2.3,60.02700008468413,False,16.0,0.4,0.38333333333333336,-1.1033333333333333,-1.2216666666666667,1,1,0.0,0.6337178785132007,0.0910277777777777,0.4166666666666667,0.4166666666666667,0.5,0.1666666666666666,2.220446049250313e-16,0.08333333333333348,3.0833333333333335,3.0833333333333335,0.0,1.0,1.0,3.0,0,1,1,1,0.0910277777777777
2.0,0.0,2.0,0.0,5.0,0.0,5.0,0.0,,,,right,1.869066199986264,112.3644942000974,xt17,112.3644942000974,,109.19116539997049,111.19091090001166,False,2.0,['r'],True,0.27,0.3,0.1,1.0,1.0,0.7963326591781347,-0.0733333333333333,wait_cost,0.0,1.0,111.19091090001166,,xt17,2,2022-04-21_14h37.44.307,threat_forest,2021.2.3,60.02700008468413,False,16.0,0.4,0.38333333333333336,-1.1033333333333333,-1.2216666666666667,0,0,0.0,0.6254389478495038,-0.0733333333333333,0.27,0.27,0.3,0.1,-0.3999999999999999,-0.29000000000000004,1.71,1.71,1.0,1.0,-1.0,2.0,0,1,0,0,-0.0733333333333333
2.0,0.0,2.0,0.0,6.0,0.0,6.0,0.0,,,,right,1.991532300133258,116.77498700004072,xt17,114.25791750010104,116.25767079996876,116.77498700004072,,True,1.0,['r'],False,0.4166666666666667,0.5,0.1666666666666666,1.0,1.0,0.9358932809493992,0.4166666666666667,fight_cost,1.0,0.0,116.25767079996876,,xt17,2,2022-04-21_14h37.44.307,threat_forest,2021.2.3,60.02700008468413,True,16.0,0.4,0.38333333333333336,-1.1033333333333333,-1.2216666666666667,1,1,1.0,0.6889043425054032,0.4166666666666667,1.0,0.4166666666666667,0.5,0.1666666666666666,2.220446049250313e-16,0.08333333333333348,1.0833333333333335,1.0833333333333335,0.0,1.0,-1.0,1.0,1,1,1,1,0.625
3.0,0.0,3.0,0.0,0.0,0.0,0.0,0.0,121.63170860009268,125.14115410018712,,right,1.4829295000527054,127.00852190004662,xt17,121.63170860009268,125.14115410018712,127.00852190004662,,True,5.0,['r'],False,0.5,0.5,0.0,0.0,1.0,0.6309297535714574,0.0653299800297634,succ_gain,1.0,6.0,,,xt17,2,2022-04-21_14h37.44.307,threat_forest,2021.2.3,60.02700008468413,True,44.0,0.5357142857142857,0.46785714285714286,-0.7806122448979592,-0.9419727891156462,1,1,1.0,0.39401952328857526,0.0653299800297634,0.5,0.5,0.5,0.0,0.5,0.5,5.5,5.5,0.0,1.0,-1.0,5.0,0,1,1,1,0.0653299800297634
3.0,0.0,3.0,0.0,1.0,0.0,1.0,0.0,,,,left,2.5560983000323176,132.62513389997184,xt17,121.63170860009268,125.14115410018712,132.62513389997184,,False,6.0,['r'],False,0.5,0.5,0.0,0.0,1.0,0.6309297535714574,-0.0434388067740604,wait_cost,1.0,5.0,130.50829540006816,,xt17,2,2022-04-21_14h37.44.307,threat_forest,2021.2.3,60.02700008468413,False,44.0,0.5357142857142857,0.46785714285714286,-0.7806122448979592,-0.9419727891156462,1,1,0.0,0.9384819943173729,-0.0434388067740604,0.5,0.5,0.5,0.0,0.5,0.5,6.5,6.5,0.0,1.0,1.0,6.0,0,1,1,1,-0.0434388067740604
3.0,0.0,3.0,0.0,2.0,0.0,2.0,0.0,,,,right,1.2791100000031292,138.89333720016293,xt17,138.89333720016293,,135.2082315001171,137.2080877001863,False,5.0,['r'],True,0.4081632653061224,0.5714285714285714,0.2857142857142857,2.0,1.0,0.9885754083994552,-0.0007263192497883,wait_cost,0.0,4.0,137.2080877001863,,xt17,2,2022-04-21_14h37.44.307,threat_forest,2021.2.3,60.02700008468413,False,44.0,0.5357142857142857,0.46785714285714286,-0.7806122448979592,-0.9419727891156462,0,0,0.0,0.24616452359212562,-0.0007263192497883,0.4081632653061224,0.4081632653061224,0.5714285714285714,0.2857142857142857,-0.1428571428571428,-0.061224489795918435,4.938775510204081,4.938775510204081,1.0,1.0,-1.0,5.0,0,1,0,0,-0.0007263192497883
3.0,0.0,3.0,0.0,3.0,0.0,3.0,0.0,,,,right,1.817096099955961,145.64204980013892,xt17,145.64204980013892,,135.2082315001171,137.2080877001863,False,4.0,['r'],True,0.4081632653061224,0.5714285714285714,0.2857142857142857,2.0,1.0,0.9885754083994552,0.0159395449535031,wait_cost,0.0,3.0,142.19138050009497,,xt17,2,2022-04-21_14h37.44.307,threat_forest,2021.2.3,60.02700008468413,False,44.0,0.5357142857142857,0.46785714285714286,-0.7806122448979592,-0.9419727891156462,0,0,0.0,0.5972396773693002,0.0159395449535031,0.4081632653061224,0.4081632653061224,0.5714285714285714,0.2857142857142857,-0.1428571428571428,-0.061224489795918435,3.9387755102040813,3.9387755102040813,1.0,1.0,-1.0,4.0,0,1,0,0,0.0159395449535031
3.0,0.0,3.0,0.0,4.0,0.0,4.0,0.0,,,,right,0.997730900067836,152.14238860015757,xt17,147.4917040001601,149.4915152001195,152.14238860015757,,True,3.0,['r'],False,0.5,0.5,0.0,0.0,1.0,0.6309297535714574,0.1312669200333194,unsucc_cost,1.0,1.0,149.4915152001195,,xt17,2,2022-04-21_14h37.44.307,threat_forest,2021.2.3,60.02700008468413,True,44.0,0.5357142857142857,0.46785714285714286,-0.7806122448979592,-0.9419727891156462,1,1,1.0,-0.002271678240446199,0.1312669200333194,0.5,0.5,0.5,0.0,0.5,0.5,3.5,3.5,0.0,1.0,-1.0,3.0,0,1,1,1,0.1312669200333194
3.0,0.0,3.0,0.0,5.0,0.0,5.0,0.0,,,,left,2.268153900047764,156.30854760017246,xt17,156.30854760017246,,153.15846950002015,155.15827320003882,True,1.0,['r'],True,0.4081632653061224,0.5714285714285714,0.2857142857142857,2.0,1.0,0.9885754083994552,0.1947105372761349,unsucc_cost,0.0,0.0,155.15827320003882,,xt17,2,2022-04-21_14h37.44.307,threat_forest,2021.2.3,60.02700008468413,True,44.0,0.5357142857142857,0.46785714285714286,-0.7806122448979592,-0.9419727891156462,0,0,1.0,0.8189662407272297,0.1947105372761349,1.0,0.4081632653061224,0.5714285714285714,0.2857142857142857,-0.1428571428571428,-0.061224489795918435,0.9387755102040816,1.0,1.0,1.0,-1.0,1.0,1,1,0,0,0.625
4.0,0.0,4.0,0.0,0.0,0.0,0.0,0.0,163.21021350007504,166.72512590000406,,left,1.4755285000428555,168.69255949999206,xt17,163.21021350007504,166.72512590000406,168.69255949999206,,False,5.0,['r'],False,0.2222222222222222,0.6666666666666666,0.6666666666666666,2.0,2.0,0.77250688571426,-0.023281607963558,wait_cost,1.0,4.0,,,xt17,2,2022-04-21_14h37.44.307,threat_forest,2021.2.3,60.02700008468413,False,34.0,0.4583333333333333,0.49702380952380953,-1.3888888888888888,-1.084750566893424,0,0,0.0,0.3890162307296355,-0.023281607963558,0.2222222222222222,0.2222222222222222,0.6666666666666666,0.6666666666666666,-0.3333333333333335,-0.7777777777777779,4.222222222222222,4.222222222222222,0.0,2.0,-1.0,5.0,0,1,0,0,-0.023281607963558
4.0,0.0,4.0,0.0,1.0,0.0,1.0,0.0,,,,right,2.1334033000748605,175.04215060011484,xt17,175.04215060011484,,170.19207730004564,172.19188120006584,False,4.0,['r'],True,0.25,0.25,0.0,0.0,2.0,0.5118595071429148,0.0497964638941282,wait_cost,0.0,3.0,172.19188120006584,,xt17,2,2022-04-21_14h37.44.307,threat_forest,2021.2.3,60.02700008468413,False,34.0,0.4583333333333333,0.49702380952380953,-1.3888888888888888,-1.084750566893424,1,0,0.0,0.7577184980698004,0.0497964638941282,0.25,0.25,0.25,0.0,0.0,0.0,4.0,4.0,1.0,2.0,-1.0,4.0,0,1,0,1,0.0497964638941282
4.0,0.0,4.0,0.0,2.0,0.0,2.0,0.0,,,,left,0.923286800039932,182.82580740004775,xt17,177.19243509997614,179.19228060008027,182.82580740004775,,False,3.0,['r'],False,0.2222222222222222,0.6666666666666666,0.6666666666666666,2.0,2.0,0.77250688571426,0.0126119601146929,wait_cost,1.0,2.0,179.19228060008027,,xt17,2,2022-04-21_14h37.44.307,threat_forest,2021.2.3,60.02700008468413,False,34.0,0.4583333333333333,0.49702380952380953,-1.3888888888888888,-1.084750566893424,0,0,0.0,-0.07981536680750317,0.0126119601146929,0.2222222222222222,0.2222222222222222,0.6666666666666666,0.6666666666666666,-0.3333333333333335,-0.7777777777777779,2.2222222222222223,2.2222222222222223,0.0,2.0,-1.0,3.0,0,1,0,0,0.0126119601146929
4.0,0.0,4.0,0.0,3.0,0.0,3.0,0.0,,,,right,1.9350133000407368,186.5922163000796,xt17,186.5922163000796,,183.77553590014577,185.77539600012824,False,2.0,['r'],True,0.25,0.25,0.0,0.0,2.0,0.5118595071429148,0.0251146690672153,wait_cost,0.0,1.0,185.77539600012824,,xt17,2,2022-04-21_14h37.44.307,threat_forest,2021.2.3,60.02700008468413,False,34.0,0.4583333333333333,0.49702380952380953,-1.3888888888888888,-1.084750566893424,1,0,0.0,0.660114199864189,0.0251146690672153,0.25,0.25,0.25,0.0,0.0,0.0,2.0,2.0,1.0,2.0,-1.0,2.0,0,1,0,1,0.0251146690672153
4.0,0.0,4.0,0.0,4.0,0.0,4.0,0.0,,,,left,0.9107574999798088,194.02605560002849,xt17,194.02605560002849,,183.77553590014577,185.77539600012824,True,1.0,['r'],True,0.25,0.25,0.0,0.0,2.0,0.5118595071429148,0.0844425154320986,unsucc_cost,0.0,0.0,190.55878449999727,,xt17,2,2022-04-21_14h37.44.307,threat_forest,2021.2.3,60.02700008468413,True,34.0,0.4583333333333333,0.49702380952380953,-1.3888888888888888,-1.084750566893424,1,0,1.0,-0.09347860817836312,0.0844425154320986,1.0,0.25,0.25,0.0,0.0,0.0,1.0,1.0,1.0,2.0,-1.0,1.0,1,1,0,1,0.625
5.0,0.0,5.0,0.0,0.0,0.0,0.0,0.0,197.5095323000569,201.00888180010952,,right,1.607812900096178,202.62636070000008,xt17,202.62636070000008,,197.5095323000569,201.00888180010952,False,5.0,['r'],True,0.3333333333333333,0.3333333333333333,0.0,0.0,2.0,0.5793801642856949,0.0474629650798488,wait_cost,0.0,4.0,,,xt17,2,2022-04-21_14h37.44.307,threat_forest,2021.2.3,60.02700008468413,False,68.0,0.5,0.47916666666666663,-1.2222222222222223,-1.3055555555555556,1,0,0.0,0.4748748083253487,0.0474629650798488,0.3333333333333333,0.3333333333333333,0.3333333333333333,0.0,0.33333333333333315,0.33333333333333315,5.333333333333333,5.333333333333333,1.0,2.0,-1.0,5.0,0,1,0,1,0.0474629650798488
5.0,0.0,5.0,0.0,1.0,0.0,1.0,0.0,,,,right,2.9108336998615414,209.0596239999868,xt17,209.0596239999868,,197.5095323000569,201.00888180010952,False,4.0,['r'],True,0.3333333333333333,0.3333333333333333,0.0,0.0,2.0,0.5793801642856949,0.0916280864197529,wait_cost,0.0,3.0,206.25899600004777,,xt17,2,2022-04-21_14h37.44.307,threat_forest,2021.2.3,60.02700008468413,False,68.0,0.5,0.47916666666666663,-1.2222222222222223,-1.3055555555555556,1,0,0.0,1.0684395349493838,0.0916280864197529,0.3333333333333333,0.3333333333333333,0.3333333333333333,0.0,0.33333333333333315,0.33333333333333315,4.333333333333333,4.333333333333333,1.0,2.0,-1.0,4.0,0,1,0,1,0.0916280864197529
5.0,0.0,5.0,0.0,2.0,0.0,2.0,0.0,,,,left,0.8451557999942452,216.19304589997049,xt17,211.9925891000312,213.99253390007647,216.19304589997049,,False,3.0,['r'],False,0.2222222222222222,0.6666666666666666,0.6666666666666666,2.0,2.0,0.77250688571426,-0.0041295153177869,wait_cost,1.0,2.0,213.99253390007647,,xt17,2,2022-04-21_14h37.44.307,threat_forest,2021.2.3,60.02700008468413,False,68.0,0.5,0.47916666666666663,-1.2222222222222223,-1.3055555555555556,0,0,0.0,-0.16823428992921066,-0.0041295153177869,0.2222222222222222,0.2222222222222222,0.6666666666666666,0.6666666666666666,-0.3333333333333335,-0.7777777777777779,2.2222222222222223,2.2222222222222223,0.0,2.0,-1.0,3.0,0,1,0,0,-0.0041295153177869
5.0,0.0,5.0,0.0,3.0,0.0,3.0,0.0,,,,left,1.0073814999777824,220.55985080008395,xt17,220.55985080008395,,217.05925400019623,219.05933720013127,True,2.0,['r'],True,0.3333333333333333,0.3333333333333333,0.0,0.0,2.0,0.5793801642856949,0.048611111111111,unsucc_cost,0.0,0.0,219.05933720013127,,xt17,2,2022-04-21_14h37.44.307,threat_forest,2021.2.3,60.02700008468413,True,68.0,0.5,0.47916666666666663,-1.2222222222222223,-1.3055555555555556,1,0,1.0,0.007354390033117575,0.048611111111111,0.3333333333333333,0.3333333333333333,0.3333333333333333,0.0,0.33333333333333315,0.33333333333333315,2.333333333333333,2.333333333333333,1.0,2.0,-1.0,2.0,0,1,0,1,0.048611111111111
6.0,0.0,6.0,0.0,0.0,0.0,0.0,0.0,224.6368194001261,228.1422747001052,,right,1.1015939000062644,230.6956635999959,xt17,230.6956635999959,,224.6368194001261,228.1422747001052,False,5.0,['p'],True,0.16,0.2,0.2,2.0,2.0,0.8198746470064713,-0.0083567608970359,wait_cost,0.0,4.0,,,xt17,2,2022-04-21_14h37.44.307,threat_forest,2021.2.3,60.02700008468413,False,63.0,0.26666666666666666,0.3833333333333333,-1.5022222222222226,-1.3622222222222224,0,0,0.0,0.09675813102251805,-0.0083567608970359,0.16,0.16,0.2,0.2,-0.8000000000000003,-0.5600000000000003,4.4399999999999995,4.4399999999999995,1.0,2.0,-1.0,5.0,0,1,0,0,-0.0083567608970359
6.0,0.0,6.0,0.0,1.0,0.0,1.0,0.0,,,,right,0.7138303001411259,234.51006690016948,xt17,234.51006690016948,,224.6368194001261,228.1422747001052,False,4.0,['p'],True,0.16,0.2,0.2,2.0,2.0,0.8198746470064713,0.0090533165280466,wait_cost,0.0,3.0,233.82606340013444,,xt17,2,2022-04-21_14h37.44.307,threat_forest,2021.2.3,60.02700008468413,False,63.0,0.26666666666666666,0.3833333333333333,-1.5022222222222226,-1.3622222222222224,0,0,0.0,-0.33711001976407395,0.0090533165280466,0.16,0.16,0.2,0.2,-0.8000000000000003,-0.5600000000000003,3.4399999999999995,3.4399999999999995,1.0,2.0,-1.0,4.0,0,1,0,0,0.0090533165280466
6.0,0.0,6.0,0.0,2.0,0.0,2.0,0.0,,,,left,1.0142448998522011,240.9431033001747,xt17,235.2429749001749,237.2428260999732,240.9431033001747,,False,3.0,['p'],False,0.2222222222222222,0.3333333333333333,0.3333333333333333,2.0,2.0,0.9656336071428248,0.0475854290504497,wait_cost,1.0,2.0,237.2428260999732,,xt17,2,2022-04-21_14h37.44.307,threat_forest,2021.2.3,60.02700008468413,False,63.0,0.26666666666666666,0.3833333333333333,-1.5022222222222226,-1.3622222222222224,0,0,0.0,0.014144394599985797,0.0475854290504497,0.2222222222222222,0.2222222222222222,0.3333333333333333,0.3333333333333333,-0.666666666666667,-0.44444444444444464,2.5555555555555554,2.5555555555555554,0.0,2.0,-1.0,3.0,0,1,0,0,0.0475854290504497
6.0,0.0,6.0,0.0,3.0,0.0,3.0,0.0,,,,left,1.4292799001559615,246.22923810011707,xt17,246.22923810011707,,241.97645210009068,243.9761851001531,True,2.0,['p'],True,0.16,0.2,0.2,2.0,2.0,0.8198746470064713,0.0003340466392318,unsucc_cost,0.0,0.0,243.9761851001531,,xt17,2,2022-04-21_14h37.44.307,threat_forest,2021.2.3,60.02700008468413,True,63.0,0.26666666666666666,0.3833333333333333,-1.5022222222222226,-1.3622222222222224,0,0,1.0,0.3571707511152112,0.0003340466392318,0.16,0.16,0.2,0.2,-0.8000000000000003,-0.5600000000000003,1.4399999999999997,1.4399999999999997,1.0,2.0,-1.0,2.0,0,1,0,0,0.0003340466392318
7.0,0.0,7.0,0.0,0.0,0.0,0.0,0.0,252.4987365000416,256.0097996001132,,right,2.3528471998870373,258.677573400084,xt17,258.677573400084,,252.4987365000416,256.0097996001132,False,5.0,['r'],True,0.4081632653061224,0.5714285714285714,0.2857142857142857,2.0,1.0,0.9885754083994552,-0.0004231906775603,wait_cost,0.0,4.0,,,xt17,2,2022-04-21_14h37.44.307,threat_forest,2021.2.3,60.02700008468413,False,35.0,0.5357142857142857,0.4011904761904762,-0.7806122448979592,-1.141417233560091,1,1,0.0,0.8556261692120861,-0.0004231906775603,0.4081632653061224,0.4081632653061224,0.5714285714285714,0.2857142857142857,-0.1428571428571428,-0.061224489795918435,4.938775510204081,4.938775510204081,1.0,1.0,-1.0,5.0,0,1,1,1,-0.0004231906775603
7.0,0.0,7.0,0.0,1.0,0.0,1.0,0.0,,,,left,2.3438717999961227,266.4273455000948,xt17,266.4273455000948,,252.4987365000416,256.0097996001132,True,4.0,['r'],True,0.4081632653061224,0.5714285714285714,0.2857142857142857,2.0,1.0,0.9885754083994552,0.026984270692714,succ_gain,0.0,5.0,263.059871400008,,xt17,2,2022-04-21_14h37.44.307,threat_forest,2021.2.3,60.02700008468413,True,35.0,0.5357142857142857,0.4011904761904762,-0.7806122448979592,-1.141417233560091,1,1,1.0,0.85180417738464,0.026984270692714,0.4081632653061224,0.4081632653061224,0.5714285714285714,0.2857142857142857,-0.1428571428571428,-0.061224489795918435,3.9387755102040813,3.9387755102040813,1.0,1.0,-1.0,4.0,0,1,1,1,0.026984270692714
7.0,0.0,7.0,0.0,2.0,0.0,2.0,0.0,,,,,,273.276904999977,xt17,273.276904999977,,252.4987365000416,256.0097996001132,True,5.0,['r'],True,0.4081632653061224,0.5714285714285714,0.2857142857142857,2.0,1.0,0.9885754083994552,-0.0007263192497883,wait_cost,0.0,4.0,270.7932725001592,,xt17,2,2022-04-21_14h37.44.307,threat_forest,2021.2.3,60.02700008468413,,35.0,0.5357142857142857,0.4011904761904762,-0.7806122448979592,-1.141417233560091,1,1,,,-0.0007263192497883,0.4081632653061224,0.4081632653061224,0.5714285714285714,0.2857142857142857,-0.1428571428571428,-0.061224489795918435,4.938775510204081,4.938775510204081,1.0,1.0,1.0,5.0,0,1,1,1,-0.0007263192497883
7.0,0.0,7.0,0.0,3.0,0.0,3.0,0.0,,,,right,1.399909099796787,281.5609133001417,xt17,276.2777333999984,278.2767572000157,281.5609133001417,,True,4.0,['r'],False,0.5,0.5,0.0,0.0,1.0,0.6309297535714574,0.1019744111722156,unsucc_cost,1.0,2.0,278.2767572000157,,xt17,2,2022-04-21_14h37.44.307,threat_forest,2021.2.3,60.02700008468413,True,35.0,0.5357142857142857,0.4011904761904762,-0.7806122448979592,-1.141417233560091,1,1,1.0,0.3364073057966718,0.1019744111722156,0.5,0.5,0.5,0.0,0.5,0.5,4.5,4.5,0.0,1.0,-1.0,4.0,0,1,1,1,0.1019744111722156
7.0,0.0,7.0,0.0,4.0,0.0,4.0,0.0,,,,right,1.5165719001088291,285.8442287000362,xt17,276.2777333999984,278.2767572000157,285.8442287000362,,True,2.0,['r'],False,0.5,0.5,0.0,0.0,1.0,0.6309297535714574,0.1019366930445648,succ_gain,1.0,3.0,284.993646300165,,xt17,2,2022-04-21_14h37.44.307,threat_forest,2021.2.3,60.02700008468413,True,35.0,0.5357142857142857,0.4011904761904762,-0.7806122448979592,-1.141417233560091,1,1,1.0,0.41645245889784954,0.1019366930445648,0.5,0.5,0.5,0.0,0.5,0.5,2.5,2.5,0.0,1.0,-1.0,2.0,0,1,1,1,0.1019366930445648
7.0,0.0,7.0,0.0,5.0,0.0,5.0,0.0,,,,left,2.130040899850428,290.81084320019,xt17,276.2777333999984,278.2767572000157,290.81084320019,,False,3.0,['r'],False,0.5,0.5,0.0,0.0,1.0,0.6309297535714574,0.25,wait_cost,1.0,2.0,289.3938615000807,,xt17,2,2022-04-21_14h37.44.307,threat_forest,2021.2.3,60.02700008468413,False,35.0,0.5357142857142857,0.4011904761904762,-0.7806122448979592,-1.141417233560091,1,1,0.0,0.7561411813446941,0.25,0.5,0.5,0.5,0.0,0.5,0.5,3.5,3.5,0.0,1.0,1.0,3.0,0,1,1,1,0.25
7.0,0.0,7.0,0.0,6.0,0.0,6.0,0.0,,,,left,0.9729659999720752,295.9777393001132,xt17,276.2777333999984,278.2767572000157,295.9777393001132,,False,2.0,['r'],False,0.5,0.5,0.0,0.0,1.0,0.6309297535714574,0.0459183673469387,wait_cost,1.0,1.0,294.9603560001124,,xt17,2,2022-04-21_14h37.44.307,threat_forest,2021.2.3,60.02700008468413,False,35.0,0.5357142857142857,0.4011904761904762,-0.7806122448979592,-1.141417233560091,1,1,0.0,-0.027406140909162456,0.0459183673469387,0.5,0.5,0.5,0.0,0.5,0.5,2.5,2.5,0.0,1.0,-1.0,2.0,0,1,1,1,0.0459183673469387
7.0,0.0,7.0,0.0,7.0,0.0,7.0,0.0,,,,left,2.081367600010708,299.5776550001465,xt17,299.5776550001465,,296.9773912001401,298.9770854001399,True,1.0,['r'],True,0.4081632653061224,0.5714285714285714,0.2857142857142857,2.0,1.0,0.9885754083994552,0.4081632653061224,unsucc_cost,0.0,0.0,298.9770854001399,,xt17,2,2022-04-21_14h37.44.307,threat_forest,2021.2.3,60.02700008468413,True,35.0,0.5357142857142857,0.4011904761904762,-0.7806122448979592,-1.141417233560091,1,1,1.0,0.7330251776599467,0.4081632653061224,1.0,0.4081632653061224,0.5714285714285714,0.2857142857142857,-0.1428571428571428,-0.061224489795918435,0.9387755102040816,1.0,1.0,1.0,-1.0,1.0,1,1,1,1,0.625
8.0,0.0,8.0,0.0,0.0,0.0,0.0,0.0,306.9329829001799,310.44390650000423,,left,1.231558799976483,311.5112557001412,xt17,306.9329829001799,310.44390650000423,311.5112557001412,,False,5.0,['r'],False,0.2222222222222222,0.2222222222222222,0.0,0.0,2.0,0.4821593609696809,-0.016689529035208,wait_cost,1.0,4.0,,,xt17,2,2022-04-21_14h37.44.307,threat_forest,2021.2.3,60.02700008468413,False,25.0,0.4444444444444444,0.49007936507936506,-0.8333333333333334,-0.8069727891156463,0,0,0.0,0.2082806840699515,-0.016689529035208,0.2222222222222222,0.2222222222222222,0.2222222222222222,0.0,-0.11111111111111116,-0.11111111111111116,4.888888888888889,4.888888888888889,0.0,2.0,-1.0,5.0,0,1,0,0,-0.016689529035208
8.0,0.0,8.0,0.0,1.0,0.0,1.0,0.0,,,,left,2.9269408001564443,316.96149959997274,xt17,316.96149959997274,,312.76101520005614,314.7606675999705,True,4.0,['r'],True,0.4444444444444445,0.6666666666666666,0.3333333333333333,1.0,2.0,0.9656336071428248,0.0987654320987654,succ_gain,0.0,6.0,314.7606675999705,,xt17,2,2022-04-21_14h37.44.307,threat_forest,2021.2.3,60.02700008468413,True,25.0,0.4444444444444444,0.49007936507936506,-0.8333333333333334,-0.8069727891156463,1,0,1.0,1.073957782071814,0.0987654320987654,0.4444444444444445,0.4444444444444445,0.6666666666666666,0.3333333333333333,0.6666666666666665,0.4444444444444444,4.444444444444445,4.444444444444445,1.0,2.0,-1.0,4.0,0,1,0,1,0.0987654320987654
8.0,0.0,8.0,0.0,2.0,0.0,2.0,0.0,,,,right,1.202045900048688,322.7112948000431,xt17,322.7112948000431,,312.76101520005614,314.7606675999705,False,6.0,['r'],True,0.4444444444444445,0.6666666666666666,0.3333333333333333,1.0,2.0,0.9656336071428248,0.0648148148148147,wait_cost,0.0,5.0,321.9107526000589,,xt17,2,2022-04-21_14h37.44.307,threat_forest,2021.2.3,60.02700008468413,False,25.0,0.4444444444444444,0.49007936507936506,-0.8333333333333334,-0.8069727891156463,1,0,0.0,0.18402502178051303,0.0648148148148147,0.4444444444444445,0.4444444444444445,0.6666666666666666,0.3333333333333333,0.6666666666666665,0.4444444444444444,6.444444444444445,6.444444444444445,1.0,2.0,1.0,6.0,0,1,0,1,0.0648148148148147
8.0,0.0,8.0,0.0,3.0,0.0,3.0,0.0,,,,left,1.6197548999916762,329.4955741001759,xt17,323.9444595000241,325.9441452000756,329.4955741001759,,False,5.0,['r'],False,0.2222222222222222,0.2222222222222222,0.0,0.0,2.0,0.4821593609696809,0.0277777777777777,wait_cost,1.0,4.0,325.9441452000756,,xt17,2,2022-04-21_14h37.44.307,threat_forest,2021.2.3,60.02700008468413,False,25.0,0.4444444444444444,0.49007936507936506,-0.8333333333333334,-0.8069727891156463,0,0,0.0,0.4822748414964183,0.0277777777777777,0.2222222222222222,0.2222222222222222,0.2222222222222222,0.0,-0.11111111111111116,-0.11111111111111116,4.888888888888889,4.888888888888889,0.0,2.0,-1.0,5.0,0,1,0,0,0.0277777777777777
8.0,0.0,8.0,0.0,4.0,0.0,4.0,0.0,,,,left,2.763659900054336,334.99519770010374,xt17,323.9444595000241,325.9441452000756,334.99519770010374,,False,4.0,['r'],False,0.2222222222222222,0.2222222222222222,0.0,0.0,2.0,0.4821593609696809,0.0246913580246913,wait_cost,1.0,3.0,333.1441740000155,,xt17,2,2022-04-21_14h37.44.307,threat_forest,2021.2.3,60.02700008468413,False,25.0,0.4444444444444444,0.49007936507936506,-0.8333333333333334,-0.8069727891156463,0,0,0.0,1.01655585204457,0.0246913580246913,0.2222222222222222,0.2222222222222222,0.2222222222222222,0.0,-0.11111111111111116,-0.11111111111111116,3.888888888888889,3.888888888888889,0.0,2.0,-1.0,4.0,0,1,0,0,0.0246913580246913
8.0,0.0,8.0,0.0,5.0,0.0,5.0,0.0,,,,left,2.881457400042564,342.82822889997624,xt17,342.82822889997624,,337.7780460000504,339.777726800181,True,3.0,['r'],True,0.4444444444444445,0.6666666666666666,0.3333333333333333,1.0,2.0,0.9656336071428248,0.1296296296296296,fight_cost,0.0,0.0,339.777726800181,,xt17,2,2022-04-21_14h37.44.307,threat_forest,2021.2.3,60.02700008468413,True,25.0,0.4444444444444444,0.49007936507936506,-0.8333333333333334,-0.8069727891156463,1,0,1.0,1.0582962078333877,0.1296296296296296,0.4444444444444445,0.4444444444444445,0.6666666666666666,0.3333333333333333,0.6666666666666665,0.4444444444444444,3.4444444444444446,3.4444444444444446,1.0,2.0,-1.0,3.0,0,1,0,1,0.1296296296296296
9.0,0.0,9.0,0.0,0.0,0.0,0.0,0.0,348.71797270001844,352.22790260007605,,left,1.7018713001161814,354.79541700007394,xt17,348.71797270001844,352.22790260007605,354.79541700007394,,False,5.0,['r'],False,0.4444444444444445,0.6666666666666666,0.3333333333333333,1.0,1.0,0.9656336071428248,0.0480533547078672,wait_cost,1.0,4.0,,,xt17,2,2022-04-21_14h37.44.307,threat_forest,2021.2.3,60.02700008468413,False,5.0,0.4444444444444444,0.4444444444444444,-1.259259259259259,-1.0462962962962963,1,1,0.0,0.5317284104390766,0.0480533547078672,0.4444444444444445,0.4444444444444445,0.6666666666666666,0.3333333333333333,0.0,0.0,5.0,5.0,0.0,1.0,-1.0,5.0,0,1,1,1,0.0480533547078672
9.0,0.0,9.0,0.0,1.0,0.0,1.0,0.0,,,,left,1.0705221998505294,359.4618981999811,xt17,348.71797270001844,352.22790260007605,359.4618981999811,,False,4.0,['r'],False,0.4444444444444445,0.6666666666666666,0.3333333333333333,1.0,1.0,0.9656336071428248,0.0710224775953963,wait_cost,1.0,3.0,358.52815290004946,,xt17,2,2022-04-21_14h37.44.307,threat_forest,2021.2.3,60.02700008468413,False,5.0,0.4444444444444444,0.4444444444444444,-1.259259259259259,-1.0462962962962963,1,1,0.0,0.06814656666585753,0.0710224775953963,0.4444444444444445,0.4444444444444445,0.6666666666666666,0.3333333333333333,0.0,0.0,4.0,4.0,0.0,1.0,-1.0,4.0,0,1,1,1,0.0710224775953963
9.0,0.0,9.0,0.0,2.0,0.0,2.0,0.0,,,,right,0.9771731998771428,364.0805345000699,xt17,364.0805345000699,,360.5615127000492,362.5615922000725,False,3.0,['r'],True,0.1975308641975308,0.2222222222222222,0.1111111111111111,1.0,1.0,0.7461067557824965,-0.025907886353424,wait_cost,0.0,2.0,362.5615922000725,,xt17,2,2022-04-21_14h37.44.307,threat_forest,2021.2.3,60.02700008468413,False,5.0,0.4444444444444444,0.4444444444444444,-1.259259259259259,-1.0462962962962963,0,0,0.0,-0.0230913653971254,-0.025907886353424,0.1975308641975308,0.1975308641975308,0.2222222222222222,0.1111111111111111,-0.6666666666666667,-0.5185185185185184,2.481481481481482,2.481481481481482,1.0,1.0,-1.0,3.0,0,1,0,0,-0.025907886353424
9.0,0.0,9.0,0.0,3.0,0.0,3.0,0.0,,,,right,0.9534338999073952,370.6621070001274,xt17,370.6621070001274,,360.5615127000492,362.5615922000725,False,2.0,['r'],True,0.1975308641975308,0.2222222222222222,0.1111111111111111,1.0,1.0,0.7461067557824965,-0.038456030135257,wait_cost,0.0,1.0,367.078105899971,,xt17,2,2022-04-21_14h37.44.307,threat_forest,2021.2.3,60.02700008468413,False,5.0,0.4444444444444444,0.4444444444444444,-1.259259259259259,-1.0462962962962963,0,0,0.0,-0.047685179986613715,-0.038456030135257,0.1975308641975308,0.1975308641975308,0.2222222222222222,0.1111111111111111,-0.6666666666666667,-0.5185185185185184,1.4814814814814816,1.4814814814814816,1.0,1.0,-1.0,2.0,0,1,0,0,-0.038456030135257
9.0,0.0,9.0,0.0,4.0,0.0,4.0,0.0,,,,left,1.7093104999512434,376.2957707000896,xt17,376.2957707000896,,360.5615127000492,362.5615922000725,True,1.0,['r'],True,0.1975308641975308,0.2222222222222222,0.1111111111111111,1.0,1.0,0.7461067557824965,0.0755982319768329,unsucc_cost,0.0,0.0,373.6448821001686,,xt17,2,2022-04-21_14h37.44.307,threat_forest,2021.2.3,60.02700008468413,True,5.0,0.4444444444444444,0.4444444444444444,-1.259259259259259,-1.0462962962962963,0,0,1.0,0.5360900727981944,0.0755982319768329,1.0,0.1975308641975308,0.2222222222222222,0.1111111111111111,-0.6666666666666667,-0.5185185185185184,0.4814814814814816,1.0,1.0,1.0,-1.0,1.0,1,1,0,0,0.625
10.0,0.0,10.0,0.0,0.0,0.0,0.0,0.0,383.3204614999704,386.82841229997575,,left,2.182117900112644,389.8797469001729,xt17,383.3204614999704,386.82841229997575,389.8797469001729,,False,5.0,['r'],False,0.28125,0.375,0.25,2.0,2.0,0.9634951148421658,-0.0048305423367587,wait_cost,1.0,4.0,,,xt17,2,2022-04-21_14h37.44.307,threat_forest,2021.2.3,60.02700008468413,False,10.0,0.35416666666666663,0.3993055555555555,-0.8958333333333335,-1.0775462962962963,0,0,0.0,0.7802959190000208,-0.0048305423367587,0.28125,0.28125,0.375,0.25,-0.25,-0.125,4.875,4.875,0.0,2.0,-1.0,5.0,0,1,0,0,-0.0048305423367587
10.0,0.0,10.0,0.0,1.0,0.0,1.0,0.0,,,,left,2.115486199967563,394.9791586000938,xt17,383.3204614999704,386.82841229997575,394.9791586000938,,False,4.0,['r'],False,0.28125,0.375,0.25,2.0,2.0,0.9634951148421658,0.0125198670204943,wait_cost,1.0,3.0,394.0784772001207,,xt17,2,2022-04-21_14h37.44.307,threat_forest,2021.2.3,60.02700008468413,False,10.0,0.35416666666666663,0.3993055555555555,-0.8958333333333335,-1.0775462962962963,0,0,0.0,0.749284667860827,0.0125198670204943,0.28125,0.28125,0.375,0.25,-0.25,-0.125,3.875,3.875,0.0,2.0,-1.0,4.0,0,1,0,0,0.0125198670204943
10.0,0.0,10.0,0.0,2.0,0.0,2.0,0.0,,,,right,1.8019999999087304,399.94544659997337,xt17,383.3204614999704,386.82841229997575,399.94544659997337,,True,3.0,['r'],False,0.28125,0.375,0.25,2.0,2.0,0.9634951148421658,0.0818867418501112,fight_cost,1.0,0.0,399.1118972999975,,xt17,2,2022-04-21_14h37.44.307,threat_forest,2021.2.3,60.02700008468413,True,10.0,0.35416666666666663,0.3993055555555555,-0.8958333333333335,-1.0775462962962963,0,0,1.0,0.5888971591354971,0.0818867418501112,0.28125,0.28125,0.375,0.25,-0.25,-0.125,2.875,2.875,0.0,2.0,-1.0,3.0,0,1,0,0,0.0818867418501112
11.0,0.0,11.0,0.0,0.0,0.0,0.0,0.0,407.0897252999712,410.59539799997583,,left,1.9370130999013784,411.895933000138,xt17,411.895933000138,,407.0897252999712,410.59539799997583,True,4.0,['r'],True,0.4081632653061224,0.5714285714285714,0.2857142857142857,2.0,2.0,0.9885754083994552,0.0102904310319958,unsucc_cost,0.0,2.0,,,xt17,2,2022-04-21_14h37.44.307,threat_forest,2021.2.3,60.02700008468413,True,64.0,0.5357142857142857,0.44494047619047616,-0.326530612244898,-0.6111819727891157,0,0,1.0,0.6611471473866974,0.0102904310319958,0.4081632653061224,0.4081632653061224,0.5714285714285714,0.2857142857142857,0.4285714285714285,0.346938775510204,4.346938775510204,4.346938775510204,1.0,2.0,-1.0,4.0,0,1,0,0,0.0102904310319958
11.0,0.0,11.0,0.0,1.0,0.0,1.0,0.0,,,,right,0.9185184000525624,416.92943050013855,xt17,413.8623969000764,415.862160500139,416.92943050013855,,True,2.0,['r'],False,0.5,0.5,0.0,0.0,2.0,0.6309297535714574,0.0536521501003592,unsucc_cost,1.0,0.0,415.862160500139,,xt17,2,2022-04-21_14h37.44.307,threat_forest,2021.2.3,60.02700008468413,True,64.0,0.5357142857142857,0.44494047619047616,-0.326530612244898,-0.6111819727891157,1,1,1.0,-0.08499334180843382,0.0536521501003592,0.5,0.5,0.5,0.0,1.0,1.0,3.0,3.0,0.0,2.0,-1.0,2.0,0,1,1,1,0.0536521501003592
12.0,0.0,12.0,0.0,0.0,0.0,0.0,0.0,422.1861013001762,425.6955971000716,,right,1.3187237998936323,428.2801957000047,xt17,428.2801957000047,,422.1861013001762,425.6955971000716,False,4.0,['p'],True,0.3061224489795918,0.4285714285714285,0.2857142857142857,2.0,2.0,0.9885754083994552,-0.0033191472701769,wait_cost,0.0,3.0,,,xt17,2,2022-04-21_14h37.44.307,threat_forest,2021.2.3,60.02700008468413,False,33.0,0.41428571428571426,0.475,-0.7306122448979593,-0.5285714285714287,0,0,0.0,0.27666445066564443,-0.0033191472701769,0.3061224489795918,0.3061224489795918,0.4285714285714285,0.2857142857142857,-0.14285714285714324,-0.06122448979591866,3.9387755102040813,3.9387755102040813,1.0,2.0,-1.0,4.0,0,1,0,0,-0.0033191472701769
12.0,0.0,12.0,0.0,1.0,0.0,1.0,0.0,,,,right,1.3055155999027193,433.19600680004805,xt17,433.19600680004805,,422.1861013001762,425.6955971000716,False,3.0,['p'],True,0.3061224489795918,0.4285714285714285,0.2857142857142857,2.0,2.0,0.9885754083994552,0.0459291664049658,wait_cost,0.0,2.0,431.6289674001746,,xt17,2,2022-04-21_14h37.44.307,threat_forest,2021.2.3,60.02700008468413,False,33.0,0.41428571428571426,0.475,-0.7306122448979593,-0.5285714285714287,0,0,0.0,0.2665980584557945,0.0459291664049658,0.3061224489795918,0.3061224489795918,0.4285714285714285,0.2857142857142857,-0.14285714285714324,-0.06122448979591866,2.9387755102040813,2.9387755102040813,1.0,2.0,-1.0,3.0,0,1,0,0,0.0459291664049658
12.0,0.0,12.0,0.0,2.0,0.0,2.0,0.0,,,,,,437.646388299996,xt17,434.5294507001527,436.5290514000226,437.646388299996,,True,2.0,['p'],False,0.4,0.4,0.0,0.0,2.0,0.6126016192893442,0.0439031270984029,wait_cost,1.0,1.0,436.5290514000226,,xt17,2,2022-04-21_14h37.44.307,threat_forest,2021.2.3,60.02700008468413,,33.0,0.41428571428571426,0.475,-0.7306122448979593,-0.5285714285714287,1,0,,,0.0439031270984029,0.4,0.4,0.4,0.0,0.6000000000000001,0.6000000000000001,2.6,2.6,0.0,2.0,-1.0,2.0,0,1,0,1,0.0439031270984029
12.0,0.0,12.0,0.0,3.0,0.0,3.0,0.0,,,,right,1.059809499885887,443.4964610000607,xt17,434.5294507001527,436.5290514000226,443.4964610000607,,True,1.0,['p'],False,0.4,0.4,0.0,0.0,2.0,0.6126016192893442,0.2124131611828403,unsucc_cost,1.0,0.0,442.6458278000355,,xt17,2,2022-04-21_14h37.44.307,threat_forest,2021.2.3,60.02700008468413,True,33.0,0.41428571428571426,0.475,-0.7306122448979593,-0.5285714285714287,1,0,1.0,0.05808917488413873,0.2124131611828403,1.0,0.4,0.4,0.0,0.6000000000000001,0.6000000000000001,1.6,1.6,0.0,2.0,-1.0,1.0,1,1,0,1,0.625
13.0,0.0,13.0,0.0,0.0,0.0,0.0,0.0,448.21781300008297,451.7293430001009,,right,1.3119131000712514,452.4962154000532,xt17,452.4962154000532,,448.21781300008297,451.7293430001009,False,4.0,['p'],True,0.3333333333333333,0.5,0.3333333333333333,2.0,1.0,1.0,0.0143529277549154,wait_cost,0.0,3.0,,,xt17,2,2022-04-21_14h37.44.307,threat_forest,2021.2.3,60.02700008468413,False,7.0,0.45,0.43214285714285716,-1.0666666666666667,-0.898639455782313,0,0,0.0,0.2714864536264925,0.0143529277549154,0.3333333333333333,0.3333333333333333,0.5,0.3333333333333333,-0.5,-0.3333333333333335,3.6666666666666665,3.6666666666666665,1.0,1.0,-1.0,4.0,0,1,0,0,0.0143529277549154
13.0,0.0,13.0,0.0,1.0,0.0,1.0,0.0,,,,right,1.6342279999516904,456.3633032001089,xt17,453.8297322001308,455.8293846000452,456.3633032001089,,True,3.0,['p'],False,0.4,0.4,0.0,0.0,1.0,0.6126016192893442,0.0581987366255143,succ_gain,1.0,4.0,455.8293846000452,,xt17,2,2022-04-21_14h37.44.307,threat_forest,2021.2.3,60.02700008468413,True,7.0,0.45,0.43214285714285716,-1.0666666666666667,-0.898639455782313,1,0,1.0,0.4911705215578846,0.0581987366255143,0.4,0.4,0.4,0.0,0.20000000000000007,0.20000000000000007,3.2,3.2,0.0,1.0,-1.0,3.0,0,1,0,1,0.0581987366255143
13.0,0.0,13.0,0.0,2.0,0.0,2.0,0.0,,,,left,1.205777799943462,462.01376290014014,xt17,453.8297322001308,455.8293846000452,462.01376290014014,,False,4.0,['p'],False,0.4,0.4,0.0,0.0,1.0,0.6126016192893442,0.0645959259259258,wait_cost,1.0,3.0,460.029494300019,,xt17,2,2022-04-21_14h37.44.307,threat_forest,2021.2.3,60.02700008468413,False,7.0,0.45,0.43214285714285716,-1.0666666666666667,-0.898639455782313,1,0,0.0,0.18712483584335907,0.0645959259259258,0.4,0.4,0.4,0.0,0.20000000000000007,0.20000000000000007,4.2,4.2,0.0,1.0,1.0,4.0,0,1,0,1,0.0645959259259258
13.0,0.0,13.0,0.0,3.0,0.0,3.0,0.0,,,,right,1.0612199997995049,466.8966195001267,xt17,466.8966195001267,,463.2464129000437,465.2463015001267,False,3.0,['p'],True,0.3333333333333333,0.5,0.3333333333333333,2.0,1.0,1.0,0.0442962962962962,wait_cost,0.0,2.0,465.2463015001267,,xt17,2,2022-04-21_14h37.44.307,threat_forest,2021.2.3,60.02700008468413,False,7.0,0.45,0.43214285714285716,-1.0666666666666667,-0.898639455782313,0,0,0.0,0.05941918950369135,0.0442962962962962,0.3333333333333333,0.3333333333333333,0.5,0.3333333333333333,-0.5,-0.3333333333333335,2.6666666666666665,2.6666666666666665,1.0,1.0,-1.0,3.0,0,1,0,0,0.0442962962962962
13.0,0.0,13.0,0.0,4.0,0.0,4.0,0.0,,,,right,1.2435486000031233,470.6801909999922,xt17,467.9798115000594,469.9795548999682,470.6801909999922,,True,2.0,['p'],False,0.4,0.4,0.0,0.0,1.0,0.6126016192893442,0.0745555555555556,succ_gain,1.0,3.0,469.9795548999682,,xt17,2,2022-04-21_14h37.44.307,threat_forest,2021.2.3,60.02700008468413,True,7.0,0.45,0.43214285714285716,-1.0666666666666667,-0.898639455782313,1,0,1.0,0.21796906673291486,0.0745555555555556,0.4,0.4,0.4,0.0,0.20000000000000007,0.20000000000000007,2.2,2.2,0.0,1.0,-1.0,2.0,0,1,0,1,0.0745555555555556
13.0,0.0,13.0,0.0,5.0,0.0,5.0,0.0,,,,right,0.8851646999828517,476.6136861999985,xt17,467.9798115000594,469.9795548999682,476.6136861999985,,True,3.0,['p'],False,0.4,0.4,0.0,0.0,1.0,0.6126016192893442,0.2366666666666667,unsucc_cost,1.0,1.0,473.9463578001596,,xt17,2,2022-04-21_14h37.44.307,threat_forest,2021.2.3,60.02700008468413,True,7.0,0.45,0.43214285714285716,-1.0666666666666667,-0.898639455782313,1,0,1.0,-0.12198154961343749,0.2366666666666667,0.4,0.4,0.4,0.0,0.20000000000000007,0.20000000000000007,3.2,3.2,0.0,1.0,1.0,3.0,0,1,0,1,0.2366666666666667
13.0,0.0,13.0,0.0,6.0,0.0,6.0,0.0,,,,right,1.9154529999941587,480.7805796000175,xt17,467.9798115000594,469.9795548999682,480.7805796000175,,True,1.0,['p'],False,0.4,0.4,0.0,0.0,1.0,0.6126016192893442,0.4,unsucc_cost,1.0,0.0,479.5297730001621,,xt17,2,2022-04-21_14h37.44.307,threat_forest,2021.2.3,60.02700008468413,True,7.0,0.45,0.43214285714285716,-1.0666666666666667,-0.898639455782313,1,0,1.0,0.6499541481799904,0.4,1.0,0.4,0.4,0.0,0.20000000000000007,0.20000000000000007,1.2000000000000002,1.2000000000000002,0.0,1.0,-1.0,1.0,1,1,0,1,0.625
14.0,0.0,14.0,0.0,0.0,0.0,0.0,0.0,487.6697019999847,491.1799659000244,,,,494.24784260010347,xt17,487.6697019999847,491.1799659000244,494.24784260010347,,True,4.0,['r'],False,0.3061224489795918,0.4285714285714285,0.2857142857142857,2.0,1.0,0.9885754083994552,0.0089248953748402,wait_cost,1.0,3.0,,,xt17,2,2022-04-21_14h37.44.307,threat_forest,2021.2.3,60.02700008468413,,36.0,0.41428571428571426,0.43214285714285716,-1.083673469387755,-1.075170068027211,0,0,,,0.0089248953748402,0.3061224489795918,0.3061224489795918,0.4285714285714285,0.2857142857142857,-0.5714285714285716,-0.36734693877551017,3.63265306122449,3.63265306122449,0.0,1.0,-1.0,4.0,0,1,0,0,0.0089248953748402
