miniblock.thisRepN,miniblock.thisTrialN,miniblock.thisN,miniblock.thisIndex,day.thisRepN,day.thisTrialN,day.thisN,day.thisIndex,forest.started,fixation_forest.started,fixation_forest.stopped,key_resp.keys,key_resp.rt,key_resp.started,Subject_ID,weather_left.started,weather_left.stopped,weather_right.started,weather_right.stopped,foraging T/F,in_LP,p/r heuristic,good_weather.T/F,p_succ_correct,p_succ_uncorrected,r_threat,n_oponents,gain_if_succ,weather_entropy,OP_value_difference,action_outcome,forest_side_L=0_R=1,out_LP,fixation_day.started,fixation_day.stopped,participant,session,date,expName,psychopyVersion,frameRate,foraging T/F NaNs,fora_NR,forest_mean_p,mvt_cutoff_p,forest_mean_ev,mvt_cutoff_ev,mvt_policy_eg,mvt_policy_p,fora_response,logRT,optimal policy values,multi-heuristic policy,** $\mathit{p}$ success,* $\mathit{p}$ gain,* $\mathit{r}$ predator,expected gain naive,expected gain correct,expected state no bounds,expected state with bounds,weather type,gain magnitude,win stay lose shift,continuous energy state,** binary energy state,** wait when safe,$\mathit{p}$ success based MVT,marginal value,$\mathit{OP}$ values + cap
0.0,0.0,0.0,0.0,0.0,0.0,0.0,0.0,35.45032300008461,38.95480860001408,,left,0.8947123000398278,42.07673570001498,fd13,35.45032300008461,38.95480860001408,42.07673570001498,,False,5.0,['p'],False,0.16,0.2,0.2,2.0,1.0,0.8198746470064713,-0.0074793948520252,wait_cost,1.0,4.0,,,fd13,1,2022-04-07_11h27.33.193,threat_forest,2021.2.3,59.947581798236335,False,71.0,0.35,0.35,-1.7350000000000003,-1.7350000000000003,1,0,0.0,-0.11125306485366761,-0.0074793948520252,0.16,0.16,0.2,0.2,-1.0,-0.7200000000000004,4.279999999999999,4.279999999999999,0.0,1.0,,5.0,0,1,0,1,-0.0074793948520252
0.0,0.0,0.0,0.0,1.0,0.0,1.0,0.0,,,,left,1.3190593000035733,46.45542330003809,fd13,46.45542330003809,,42.98855320003349,44.98821490001865,True,4.0,['p'],True,0.25,0.5,0.5,1.0,1.0,0.9463946303571862,0.0188078231718747,figh_cost,0.0,1.0,44.98821490001865,,fd13,1,2022-04-07_11h27.33.193,threat_forest,2021.2.3,59.947581798236335,True,71.0,0.35,0.35,-1.7350000000000003,-1.7350000000000003,0,0,1.0,0.2769188310290361,0.0188078231718747,0.25,0.25,0.5,0.5,-1.0,-0.75,3.25,3.25,1.0,1.0,-1.0,4.0,0,1,0,0,0.0188078231718747
0.0,0.0,0.0,0.0,2.0,0.0,2.0,0.0,,,,left,0.9657757000532,50.93849940004293,fd13,50.93849940004293,,42.98855320003349,44.98821490001865,True,1.0,['p'],True,0.25,0.5,0.5,1.0,1.0,0.9463946303571862,0.013472802734375,figh_cost,0.0,0.0,49.80500340007711,,fd13,1,2022-04-07_11h27.33.193,threat_forest,2021.2.3,59.947581798236335,True,71.0,0.35,0.35,-1.7350000000000003,-1.7350000000000003,0,0,1.0,-0.03482366629285469,0.013472802734375,1.0,0.25,0.5,0.5,-1.0,-0.75,0.25,1.0,1.0,1.0,-1.0,1.0,1,1,0,0,0.625
1.0,0.0,1.0,0.0,0.0,0.0,0.0,0.0,54.98137500009034,58.48845120007172,,right,1.2775545000331476,61.73913760005962,fd13,54.98137500009034,58.48845120007172,61.73913760005962,,True,4.0,['p'],False,0.4444444444444445,0.6666666666666666,0.3333333333333333,1.0,2.0,0.9656336071428248,0.0696585132666405,succ_gain,1.0,6.0,,,fd13,1,2022-04-07_11h27.33.193,threat_forest,2021.2.3,59.947581798236335,True,29.0,0.47619047619047616,0.41309523809523807,-0.8594104308390023,-1.2972052154195013,1,1,1.0,0.2449477036598358,0.0696585132666405,0.4444444444444445,0.4444444444444445,0.6666666666666666,0.3333333333333333,0.6666666666666665,0.4444444444444444,4.444444444444445,4.444444444444445,0.0,2.0,-1.0,4.0,0,1,1,1,0.0696585132666405
1.0,0.0,1.0,0.0,1.0,0.0,1.0,0.0,,,,right,2.0904320999979973,68.27385290001985,fd13,68.27385290001985,,63.038706900086254,65.03859730006661,False,6.0,['p'],True,0.2448979591836734,0.2857142857142857,0.1428571428571428,1.0,2.0,0.8400769154957735,-0.0717249489552175,wait_cost,0.0,5.0,65.03859730006661,,fd13,1,2022-04-07_11h27.33.193,threat_forest,2021.2.3,59.947581798236335,False,29.0,0.47619047619047616,0.41309523809523807,-0.8594104308390023,-1.2972052154195013,1,0,0.0,0.7373707910181508,-0.0717249489552175,0.2448979591836734,0.2448979591836734,0.2857142857142857,0.1428571428571428,-0.2857142857142856,-0.16326530612244894,5.836734693877551,5.836734693877551,1.0,2.0,1.0,6.0,0,1,0,1,-0.0717249489552175
1.0,0.0,1.0,0.0,2.0,0.0,2.0,0.0,,,,right,2.4578061000211164,75.95554210001137,fd13,70.38885690004099,72.38867220003158,75.95554210001137,,True,5.0,['p'],False,0.4444444444444445,0.6666666666666666,0.3333333333333333,1.0,2.0,0.9656336071428248,0.0643083839415795,figh_cost,1.0,2.0,72.38867220003158,,fd13,1,2022-04-07_11h27.33.193,threat_forest,2021.2.3,59.947581798236335,True,29.0,0.47619047619047616,0.41309523809523807,-0.8594104308390023,-1.2972052154195013,1,1,1.0,0.8992691227682486,0.0643083839415795,0.4444444444444445,0.4444444444444445,0.6666666666666666,0.3333333333333333,0.6666666666666665,0.4444444444444444,5.444444444444445,5.444444444444445,0.0,2.0,-1.0,5.0,0,1,1,1,0.0643083839415795
1.0,0.0,1.0,0.0,3.0,0.0,3.0,0.0,,,,right,2.364863599999808,81.83902410010342,fd13,70.38885690004099,72.38867220003158,81.83902410010342,,True,2.0,['p'],False,0.4444444444444445,0.6666666666666666,0.3333333333333333,1.0,2.0,0.9656336071428248,0.0944611684140408,figh_cost,1.0,0.0,80.43873730010819,,fd13,1,2022-04-07_11h27.33.193,threat_forest,2021.2.3,59.947581798236335,True,29.0,0.47619047619047616,0.41309523809523807,-0.8594104308390023,-1.2972052154195013,1,1,1.0,0.8607203458619773,0.0944611684140408,0.4444444444444445,0.4444444444444445,0.6666666666666666,0.3333333333333333,0.6666666666666665,0.4444444444444444,2.4444444444444446,2.4444444444444446,0.0,2.0,-1.0,2.0,0,1,1,1,0.0944611684140408
2.0,0.0,2.0,0.0,0.0,0.0,0.0,0.0,87.36521720001474,90.8721892000176,,left,2.205697000026703,91.58938860008492,fd13,91.58938860008492,,87.36521720001474,90.8721892000176,True,5.0,['p'],True,0.5555555555555556,0.6666666666666666,0.1666666666666666,1.0,2.0,0.8929352898779306,0.0304669022621303,figh_cost,0.0,2.0,,,fd13,1,2022-04-07_11h27.33.193,threat_forest,2021.2.3,59.947581798236335,True,51.0,0.5555555555555556,0.5158730158730158,-0.2376543209876542,-0.5485323759133283,1,1,1.0,0.7910435587351505,0.0304669022621303,0.5555555555555556,0.5555555555555556,0.6666666666666666,0.1666666666666666,1.1666666666666667,1.0555555555555558,6.055555555555555,6.055555555555555,1.0,2.0,-1.0,5.0,0,1,1,1,0.0304669022621303
2.0,0.0,2.0,0.0,1.0,0.0,1.0,0.0,,,,right,1.7044586000265554,99.17285130009986,fd13,93.82251870003527,95.82247250003276,99.17285130009986,,True,2.0,['p'],False,0.3950617283950617,0.4444444444444444,0.1111111111111111,1.0,2.0,0.8733423231021583,-0.0231778299038606,unsucc_cost,1.0,0.0,95.82247250003276,,fd13,1,2022-04-07_11h27.33.193,threat_forest,2021.2.3,59.947581798236335,True,51.0,0.5555555555555556,0.5158730158730158,-0.2376543209876542,-0.5485323759133283,1,0,1.0,0.5332475236687294,-0.0231778299038606,0.3950617283950617,0.3950617283950617,0.4444444444444444,0.1111111111111111,0.4444444444444444,0.4691358024691359,2.469135802469136,2.469135802469136,0.0,2.0,-1.0,2.0,0,1,0,1,-0.0231778299038606
3.0,0.0,3.0,0.0,0.0,0.0,0.0,0.0,105.3659459000919,108.87247960001696,,left,1.55670860002283,111.32566430000588,fd13,111.32566430000588,,105.3659459000919,108.87247960001696,True,5.0,['p'],True,0.2592592592592592,0.3333333333333333,0.2222222222222222,2.0,2.0,0.9327883776363324,-0.0297160742148364,unsucc_cost,0.0,3.0,,,fd13,1,2022-04-07_11h27.33.193,threat_forest,2021.2.3,59.947581798236335,True,53.0,0.5,0.5277777777777778,-0.8703703703703706,-0.5540123456790124,0,0,1.0,0.44257372056604205,-0.0297160742148364,0.2592592592592592,0.2592592592592592,0.3333333333333333,0.2222222222222222,-0.3333333333333335,-0.18518518518518556,4.814814814814815,4.814814814814815,1.0,2.0,-1.0,5.0,0,1,0,0,-0.0297160742148364
3.0,0.0,3.0,0.0,1.0,0.0,1.0,0.0,,,,right,1.2983052000636237,116.12284050008748,fd13,116.12284050008748,,105.3659459000919,108.87247960001696,False,3.0,['p'],True,0.2592592592592592,0.3333333333333333,0.2222222222222222,2.0,2.0,0.9327883776363324,0.0245696695070765,wait_cost,0.0,2.0,114.90599010000004,,fd13,1,2022-04-07_11h27.33.193,threat_forest,2021.2.3,59.947581798236335,False,53.0,0.5,0.5277777777777778,-0.8703703703703706,-0.5540123456790124,0,0,0.0,0.2610597216626734,0.0245696695070765,0.2592592592592592,0.2592592592592592,0.3333333333333333,0.2222222222222222,-0.3333333333333335,-0.18518518518518556,2.8148148148148144,2.8148148148148144,1.0,2.0,-1.0,3.0,0,1,0,0,0.0245696695070765
3.0,0.0,3.0,0.0,2.0,0.0,2.0,0.0,,,,,,122.45630950003395,fd13,122.45630950003395,,105.3659459000919,108.87247960001696,True,2.0,['p'],True,0.2592592592592592,0.3333333333333333,0.2222222222222222,2.0,2.0,0.9327883776363324,-0.0279819658040851,wait_cost,0.0,1.0,119.43935080000664,,fd13,1,2022-04-07_11h27.33.193,threat_forest,2021.2.3,59.947581798236335,,53.0,0.5,0.5277777777777778,-0.8703703703703706,-0.5540123456790124,0,0,,,-0.0279819658040851,0.2592592592592592,0.2592592592592592,0.3333333333333333,0.2222222222222222,-0.3333333333333335,-0.18518518518518556,1.8148148148148144,1.8148148148148144,1.0,2.0,-1.0,2.0,0,1,0,0,-0.0279819658040851
3.0,0.0,3.0,0.0,3.0,0.0,3.0,0.0,,,,left,0.8292994999792427,128.75656950008124,fd13,128.75656950008124,,105.3659459000919,108.87247960001696,True,1.0,['p'],True,0.2592592592592592,0.3333333333333333,0.2222222222222222,2.0,2.0,0.9327883776363324,0.1250063506579282,unsucc_cost,0.0,0.0,127.45612590003292,,fd13,1,2022-04-07_11h27.33.193,threat_forest,2021.2.3,59.947581798236335,True,53.0,0.5,0.5277777777777778,-0.8703703703703706,-0.5540123456790124,0,0,1.0,-0.18717391046831441,0.1250063506579282,1.0,0.2592592592592592,0.3333333333333333,0.2222222222222222,-0.3333333333333335,-0.18518518518518556,0.8148148148148144,1.0,1.0,2.0,-1.0,1.0,1,1,0,0,0.625
4.0,0.0,4.0,0.0,0.0,0.0,0.0,0.0,134.84729890001472,138.35632920009084,,right,2.2446950000012293,140.2243292001076,fd13,134.84729890001472,138.35632920009084,140.2243292001076,,True,4.0,['r'],False,0.28125,0.375,0.25,2.0,2.0,0.9634951148421658,-0.0007636143604934,succ_gain,1.0,6.0,,,fd13,1,2022-04-07_11h27.33.193,threat_forest,2021.2.3,59.947581798236335,True,10.0,0.35416666666666663,0.4270833333333333,-0.8958333333333335,-0.8831018518518521,0,0,1.0,0.80856965450428,-0.0007636143604934,0.28125,0.28125,0.375,0.25,-0.25,-0.125,3.875,3.875,0.0,2.0,-1.0,4.0,0,1,0,0,-0.0007636143604934
4.0,0.0,4.0,0.0,1.0,0.0,1.0,0.0,,,,right,2.080423600040376,145.89001540001482,fd13,145.89001540001482,,142.48995310009923,144.48977140011266,False,6.0,['r'],True,0.3333333333333333,0.3333333333333333,0.0,0.0,2.0,0.5793801642856949,-0.059542589226868,wait_cost,0.0,5.0,144.48977140011266,,fd13,1,2022-04-07_11h27.33.193,threat_forest,2021.2.3,59.947581798236335,False,10.0,0.35416666666666663,0.4270833333333333,-0.8958333333333335,-0.8831018518518521,1,0,0.0,0.7325715268441587,-0.059542589226868,0.3333333333333333,0.3333333333333333,0.3333333333333333,0.0,0.33333333333333315,0.33333333333333315,6.333333333333333,6.333333333333333,1.0,2.0,1.0,6.0,0,1,0,1,-0.059542589226868
4.0,0.0,4.0,0.0,2.0,0.0,2.0,0.0,,,,right,2.222147800028324,151.4245066000149,fd13,147.9899488000665,149.989924200112,151.4245066000149,,True,5.0,['r'],False,0.28125,0.375,0.25,2.0,2.0,0.9634951148421658,-0.0090943703910818,figh_cost,1.0,2.0,149.989924200112,,fd13,1,2022-04-07_11h27.33.193,threat_forest,2021.2.3,59.947581798236335,True,10.0,0.35416666666666663,0.4270833333333333,-0.8958333333333335,-0.8831018518518521,0,0,1.0,0.7984742056697153,-0.0090943703910818,0.28125,0.28125,0.375,0.25,-0.25,-0.125,4.875,4.875,0.0,2.0,-1.0,5.0,0,1,0,0,-0.0090943703910818
4.0,0.0,4.0,0.0,3.0,0.0,3.0,0.0,,,,,,157.39065000007395,fd13,157.39065000007395,,153.67348330002278,155.67321250005625,True,2.0,['r'],True,0.3333333333333333,0.3333333333333333,0.0,0.0,2.0,0.5793801642856949,0.0278132403338395,wait_cost,0.0,1.0,155.67321250005625,,fd13,1,2022-04-07_11h27.33.193,threat_forest,2021.2.3,59.947581798236335,,10.0,0.35416666666666663,0.4270833333333333,-0.8958333333333335,-0.8831018518518521,1,0,,,0.0278132403338395,0.3333333333333333,0.3333333333333333,0.3333333333333333,0.0,0.33333333333333315,0.33333333333333315,2.333333333333333,2.333333333333333,1.0,2.0,-1.0,2.0,0,1,0,1,0.0278132403338395
4.0,0.0,4.0,0.0,4.0,0.0,4.0,0.0,,,,left,1.821966200019233,164.67383430001792,fd13,164.67383430001792,,153.67348330002278,155.67321250005625,True,1.0,['r'],True,0.3333333333333333,0.3333333333333333,0.0,0.0,2.0,0.5793801642856949,0.1605812355324073,unsucc_cost,0.0,0.0,162.38997490005568,,fd13,1,2022-04-07_11h27.33.193,threat_forest,2021.2.3,59.947581798236335,True,10.0,0.35416666666666663,0.4270833333333333,-0.8958333333333335,-0.8831018518518521,1,0,1.0,0.5999162476334399,0.1605812355324073,1.0,0.3333333333333333,0.3333333333333333,0.0,0.33333333333333315,0.33333333333333315,1.333333333333333,1.333333333333333,1.0,2.0,-1.0,1.0,1,1,0,1,0.625
5.0,0.0,5.0,0.0,0.0,0.0,0.0,0.0,169.68151370005216,173.19014800002333,,right,2.6969218000303954,176.9077711000573,fd13,169.68151370005216,173.19014800002333,176.9077711000573,,True,4.0,['p'],False,0.1975308641975308,0.2222222222222222,0.1111111111111111,1.0,2.0,0.7461067557824965,-0.0032005207389234,succ_gain,1.0,6.0,,,fd13,1,2022-04-07_11h27.33.193,threat_forest,2021.2.3,59.947581798236335,True,12.0,0.3111111111111111,0.3326388888888889,-1.1204938271604938,-1.0081635802469138,0,0,1.0,0.9921110485686655,-0.0032005207389234,0.1975308641975308,0.1975308641975308,0.2222222222222222,0.1111111111111111,-0.4444444444444444,-0.32098765432098775,3.6790123456790123,3.6790123456790123,0.0,2.0,-1.0,4.0,0,1,0,0,-0.0032005207389234
5.0,0.0,5.0,0.0,1.0,0.0,1.0,0.0,,,,right,2.196935099898837,184.57562500005588,fd13,184.57562500005588,,179.62386880000122,181.6235654000193,False,6.0,['p'],True,0.32,0.4,0.2,1.0,2.0,0.9455672104350704,-0.0751615309978558,wait_cost,0.0,5.0,181.6235654000193,,fd13,1,2022-04-07_11h27.33.193,threat_forest,2021.2.3,59.947581798236335,False,12.0,0.3111111111111111,0.3326388888888889,-1.1204938271604938,-1.0081635802469138,1,0,0.0,0.7870632526379001,-0.0751615309978558,0.32,0.32,0.4,0.2,0.0,0.07999999999999996,6.08,6.08,1.0,2.0,1.0,6.0,0,1,0,1,-0.0751615309978558
5.0,0.0,5.0,0.0,2.0,0.0,2.0,0.0,,,,,,190.15849660011008,fd13,186.79055550007612,188.79048720002172,190.15849660011008,,True,5.0,['p'],False,0.1975308641975308,0.2222222222222222,0.1111111111111111,1.0,2.0,0.7461067557824965,-0.0052022231153132,wait_cost,1.0,4.0,188.79048720002172,,fd13,1,2022-04-07_11h27.33.193,threat_forest,2021.2.3,59.947581798236335,,12.0,0.3111111111111111,0.3326388888888889,-1.1204938271604938,-1.0081635802469138,0,0,,,-0.0052022231153132,0.1975308641975308,0.1975308641975308,0.2222222222222222,0.1111111111111111,-0.4444444444444444,-0.32098765432098775,4.679012345679013,4.679012345679013,0.0,2.0,-1.0,5.0,0,1,0,0,-0.0052022231153132
5.0,0.0,5.0,0.0,3.0,0.0,3.0,0.0,,,,right,1.1104289999930188,198.840846600011,fd13,186.79055550007612,188.79048720002172,198.840846600011,,True,4.0,['p'],False,0.1975308641975308,0.2222222222222222,0.1111111111111111,1.0,2.0,0.7461067557824965,-0.0009236152891645,unsucc_cost,1.0,2.0,195.1737938000588,,fd13,1,2022-04-07_11h27.33.193,threat_forest,2021.2.3,59.947581798236335,True,12.0,0.3111111111111111,0.3326388888888889,-1.1204938271604938,-1.0081635802469138,0,0,1.0,0.10474642713777801,-0.0009236152891645,0.1975308641975308,0.1975308641975308,0.2222222222222222,0.1111111111111111,-0.4444444444444444,-0.32098765432098775,3.6790123456790123,3.6790123456790123,0.0,2.0,-1.0,4.0,0,1,0,0,-0.0009236152891645
5.0,0.0,5.0,0.0,4.0,0.0,4.0,0.0,,,,,,203.10750620008912,fd13,186.79055550007612,188.79048720002172,203.10750620008912,,True,2.0,['p'],False,0.1975308641975308,0.2222222222222222,0.1111111111111111,1.0,2.0,0.7461067557824965,-0.0612345679012346,wait_cost,1.0,1.0,201.97386380005628,,fd13,1,2022-04-07_11h27.33.193,threat_forest,2021.2.3,59.947581798236335,,12.0,0.3111111111111111,0.3326388888888889,-1.1204938271604938,-1.0081635802469138,0,0,,,-0.0612345679012346,0.1975308641975308,0.1975308641975308,0.2222222222222222,0.1111111111111111,-0.4444444444444444,-0.32098765432098775,1.6790123456790123,1.6790123456790123,0.0,2.0,-1.0,2.0,0,1,0,0,-0.0612345679012346
5.0,0.0,5.0,0.0,5.0,0.0,5.0,0.0,,,,right,0.8443482000147924,209.20782390004024,fd13,186.79055550007612,188.79048720002172,209.20782390004024,,True,1.0,['p'],False,0.1975308641975308,0.2222222222222222,0.1111111111111111,1.0,2.0,0.7461067557824965,0.1975308641975308,unsucc_cost,1.0,0.0,208.10726260009687,,fd13,1,2022-04-07_11h27.33.193,threat_forest,2021.2.3,59.947581798236335,True,12.0,0.3111111111111111,0.3326388888888889,-1.1204938271604938,-1.0081635802469138,0,0,1.0,-0.1691903102061191,0.1975308641975308,1.0,0.1975308641975308,0.2222222222222222,0.1111111111111111,-0.4444444444444444,-0.32098765432098775,0.6790123456790123,1.0,0.0,2.0,-1.0,1.0,1,1,0,0,0.625
6.0,0.0,6.0,0.0,0.0,0.0,0.0,0.0,215.04847020003945,218.5574805000797,,left,1.0373226000228897,222.2083911000518,fd13,222.2083911000518,,215.04847020003945,218.5574805000797,True,4.0,['p'],True,0.48,0.6,0.2,1.0,1.0,0.9455672104350704,0.0573042085319639,succ_gain,0.0,5.0,,,fd13,1,2022-04-07_11h27.33.193,threat_forest,2021.2.3,59.947581798236335,True,4.0,0.4666666666666667,0.3888888888888889,-0.9911111111111113,-1.0558024691358026,1,1,1.0,0.03664297057286876,0.0573042085319639,0.48,0.48,0.6,0.2,0.19999999999999984,0.23999999999999977,4.24,4.24,1.0,1.0,-1.0,4.0,0,1,1,1,0.0573042085319639
6.0,0.0,6.0,0.0,1.0,0.0,1.0,0.0,,,,right,2.0718974000774324,227.49366110004485,fd13,223.274558300036,225.27429370000027,227.49366110004485,,True,5.0,['p'],False,0.2962962962962963,0.3333333333333333,0.1111111111111111,1.0,1.0,0.8325252476189534,0.005864312614388,figh_cost,1.0,2.0,225.27429370000027,,fd13,1,2022-04-07_11h27.33.193,threat_forest,2021.2.3,59.947581798236335,True,4.0,0.4666666666666667,0.3888888888888889,-0.9911111111111113,-1.0558024691358026,0,0,1.0,0.7284648058340663,0.005864312614388,0.2962962962962963,0.2962962962962963,0.3333333333333333,0.1111111111111111,-0.3333333333333335,-0.22222222222222232,4.777777777777778,4.777777777777778,0.0,1.0,1.0,5.0,0,1,0,0,0.005864312614388
6.0,0.0,6.0,0.0,2.0,0.0,2.0,0.0,,,,right,2.337540599983185,232.67509420006536,fd13,223.274558300036,225.27429370000027,232.67509420006536,,True,2.0,['p'],False,0.2962962962962963,0.3333333333333333,0.1111111111111111,1.0,1.0,0.8325252476189534,0.0078563075848161,unsucc_cost,1.0,0.0,231.5909701000201,,fd13,1,2022-04-07_11h27.33.193,threat_forest,2021.2.3,59.947581798236335,True,4.0,0.4666666666666667,0.3888888888888889,-0.9911111111111113,-1.0558024691358026,0,0,1.0,0.8490993510066298,0.0078563075848161,0.2962962962962963,0.2962962962962963,0.3333333333333333,0.1111111111111111,-0.3333333333333335,-0.22222222222222232,1.7777777777777777,1.7777777777777777,0.0,1.0,-1.0,2.0,0,1,0,0,0.0078563075848161
7.0,0.0,7.0,0.0,0.0,0.0,0.0,0.0,239.9804271000903,243.49123070004865,,left,1.191392800072208,246.19180350005627,fd13,246.19180350005627,,239.9804271000903,243.49123070004865,True,4.0,['p'],True,0.4444444444444445,0.6666666666666666,0.3333333333333333,1.0,1.0,0.9656336071428248,0.0517531804924914,succ_gain,0.0,5.0,,,fd13,1,2022-04-07_11h27.33.193,threat_forest,2021.2.3,59.947581798236335,True,57.0,0.4583333333333333,0.4625,-1.34375,-1.1674305555555557,1,0,1.0,0.1751230429444061,0.0517531804924914,0.4444444444444445,0.4444444444444445,0.6666666666666666,0.3333333333333333,0.0,0.0,4.0,4.0,1.0,1.0,-1.0,4.0,0,1,0,1,0.0517531804924914
7.0,0.0,7.0,0.0,1.0,0.0,1.0,0.0,,,,left,1.0605577999958768,251.6251518001081,fd13,251.6251518001081,,239.9804271000903,243.49123070004865,True,5.0,['p'],True,0.4444444444444445,0.6666666666666666,0.3333333333333333,1.0,1.0,0.9656336071428248,0.0736213037887426,succ_gain,0.0,6.0,249.40793550002851,,fd13,1,2022-04-07_11h27.33.193,threat_forest,2021.2.3,59.947581798236335,True,57.0,0.4583333333333333,0.4625,-1.34375,-1.1674305555555557,1,0,1.0,0.058794996126616456,0.0736213037887426,0.4444444444444445,0.4444444444444445,0.6666666666666666,0.3333333333333333,0.0,0.0,5.0,5.0,1.0,1.0,1.0,5.0,0,1,0,1,0.0736213037887426
7.0,0.0,7.0,0.0,2.0,0.0,2.0,0.0,,,,left,2.5414976000320166,257.4917716000928,fd13,257.4917716000928,,239.9804271000903,243.49123070004865,True,6.0,['p'],True,0.4444444444444445,0.6666666666666666,0.3333333333333333,1.0,1.0,0.9656336071428248,0.0685446171230093,succ_gain,0.0,6.0,254.70841300010213,,fd13,1,2022-04-07_11h27.33.193,threat_forest,2021.2.3,59.947581798236335,True,57.0,0.4583333333333333,0.4625,-1.34375,-1.1674305555555557,1,0,1.0,0.9327535135927538,0.0685446171230093,0.4444444444444445,0.4444444444444445,0.6666666666666666,0.3333333333333333,0.0,0.0,6.0,6.0,1.0,1.0,1.0,6.0,0,1,0,1,0.0685446171230093
7.0,0.0,7.0,0.0,3.0,0.0,3.0,0.0,,,,left,1.6293179000495002,265.7616409000475,fd13,260.05830410006456,262.05814340000506,265.7616409000475,,False,6.0,['p'],False,0.1875,0.25,0.25,2.0,1.0,0.895754137500101,-0.4202146804872364,wait_cost,1.0,5.0,262.05814340000506,,fd13,1,2022-04-07_11h27.33.193,threat_forest,2021.2.3,59.947581798236335,False,57.0,0.4583333333333333,0.4625,-1.34375,-1.1674305555555557,0,0,0.0,0.4881614610099447,-0.4202146804872364,0.0,0.1875,0.25,0.25,-1.0,-0.6875,5.3125,5.3125,0.0,1.0,-1.0,6.0,0,0,0,0,-0.84
7.0,0.0,7.0,0.0,4.0,0.0,4.0,0.0,,,,left,1.8313664000015704,271.4753841001075,fd13,260.05830410006456,262.05814340000506,271.4753841001075,,False,5.0,['p'],False,0.1875,0.25,0.25,2.0,1.0,0.895754137500101,-0.4657660590277778,wait_cost,1.0,4.0,269.40830310003366,,fd13,1,2022-04-07_11h27.33.193,threat_forest,2021.2.3,59.947581798236335,False,57.0,0.4583333333333333,0.4625,-1.34375,-1.1674305555555557,0,0,0.0,0.6050623549039789,-0.4657660590277778,0.0,0.1875,0.25,0.25,-1.0,-0.6875,4.3125,4.3125,0.0,1.0,-1.0,5.0,0,0,0,0,-0.84
7.0,0.0,7.0,0.0,5.0,0.0,5.0,0.0,,,,left,0.7577913000714034,278.90890680009034,fd13,278.90890680009034,,273.3251797000412,275.3250676000025,True,4.0,['p'],True,0.4444444444444445,0.6666666666666666,0.3333333333333333,1.0,1.0,0.9656336071428248,-0.3657407407407407,succ_gain,0.0,5.0,275.3250676000025,,fd13,1,2022-04-07_11h27.33.193,threat_forest,2021.2.3,59.947581798236335,True,57.0,0.4583333333333333,0.4625,-1.34375,-1.1674305555555557,1,0,1.0,-0.27734726097105544,-0.3657407407407407,0.0,0.4444444444444445,0.6666666666666666,0.3333333333333333,0.0,0.0,4.0,4.0,1.0,1.0,-1.0,4.0,0,0,0,1,-0.84
7.0,0.0,7.0,0.0,6.0,0.0,6.0,0.0,,,,left,1.83925590000581,284.331876500044,fd13,279.69191140006296,281.69191460008733,284.331876500044,,False,5.0,['p'],False,0.1875,0.25,0.25,2.0,1.0,0.895754137500101,0.0,wait_cost,1.0,4.0,281.69191460008733,,fd13,1,2022-04-07_11h27.33.193,threat_forest,2021.2.3,59.947581798236335,False,57.0,0.4583333333333333,0.4625,-1.34375,-1.1674305555555557,0,0,0.0,0.6093610876575288,0.0,0.0,0.1875,0.25,0.25,-1.0,-0.6875,4.3125,4.3125,0.0,1.0,1.0,5.0,0,0,0,0,-0.84
7.0,0.0,7.0,0.0,7.0,0.0,7.0,0.0,,,,left,0.9811891000717878,291.17565050011035,fd13,279.69191140006296,281.69191460008733,291.17565050011035,,False,4.0,['p'],False,0.1875,0.25,0.25,2.0,1.0,0.895754137500101,0.0,wait_cost,1.0,3.0,288.19190420000814,,fd13,1,2022-04-07_11h27.33.193,threat_forest,2021.2.3,59.947581798236335,False,57.0,0.4583333333333333,0.4625,-1.34375,-1.1674305555555557,0,0,0.0,-0.018990075432653027,0.0,0.0,0.1875,0.25,0.25,-1.0,-0.6875,3.3125,3.3125,0.0,1.0,-1.0,4.0,0,0,0,0,-0.84
8.0,0.0,8.0,0.0,0.0,0.0,0.0,0.0,295.7491656000493,299.2587456000037,,left,2.0565839000046253,301.0443196000997,fd13,301.0443196000997,,295.7491656000493,299.2587456000037,True,4.0,['r'],True,0.46875,0.625,0.25,2.0,1.0,0.9634951148421658,0.0314926583817976,unsucc_cost,0.0,2.0,,,fd13,1,2022-04-07_11h27.33.193,threat_forest,2021.2.3,59.947581798236335,True,38.0,0.6125,0.5354166666666667,-0.5218750000000001,-0.9328125,1,0,1.0,0.7210463053298286,0.0314926583817976,0.46875,0.46875,0.625,0.25,0.125,0.15625,4.15625,4.15625,1.0,1.0,-1.0,4.0,0,1,0,1,0.0314926583817976
8.0,0.0,8.0,0.0,1.0,0.0,1.0,0.0,,,,right,1.2828298000385985,306.0429506000364,fd13,303.1257412000559,305.12555330002215,306.0429506000364,,True,2.0,['r'],False,0.6,0.6,0.0,0.0,1.0,0.6126016192893442,0.0828427075234651,succ_gain,1.0,3.0,305.12555330002215,,fd13,1,2022-04-07_11h27.33.193,threat_forest,2021.2.3,59.947581798236335,True,38.0,0.6125,0.5354166666666667,-0.5218750000000001,-0.9328125,1,1,1.0,0.24906841903055588,0.0828427075234651,0.6,0.6,0.6,0.0,0.7999999999999999,0.7999999999999999,2.8,2.8,0.0,1.0,-1.0,2.0,0,1,1,1,0.0828427075234651
8.0,0.0,8.0,0.0,2.0,0.0,2.0,0.0,,,,left,1.78672319999896,310.52688980009407,fd13,310.52688980009407,,307.342386100092,309.34230620006565,True,3.0,['r'],True,0.46875,0.625,0.25,2.0,1.0,0.9634951148421658,0.0420991256654262,figh_cost,0.0,0.0,309.34230620006565,,fd13,1,2022-04-07_11h27.33.193,threat_forest,2021.2.3,59.947581798236335,True,38.0,0.6125,0.5354166666666667,-0.5218750000000001,-0.9328125,1,0,1.0,0.5803833277044727,0.0420991256654262,0.46875,0.46875,0.625,0.25,0.125,0.15625,3.15625,3.15625,1.0,1.0,1.0,3.0,0,1,0,1,0.0420991256654262
9.0,0.0,9.0,0.0,0.0,0.0,0.0,0.0,315.70213450002484,319.2089977000141,,left,1.7625022999709472,322.2775846000295,fd13,322.2775846000295,,315.70213450002484,319.2089977000141,True,5.0,['r'],True,0.3061224489795918,0.4285714285714285,0.2857142857142857,2.0,2.0,0.9885754083994552,-0.0154423019709537,unsucc_cost,0.0,3.0,,,fd13,1,2022-04-07_11h27.33.193,threat_forest,2021.2.3,59.947581798236335,True,33.0,0.41428571428571426,0.5133928571428572,-0.7306122448979593,-0.6262436224489797,0,0,1.0,0.5667345606514904,-0.0154423019709537,0.3061224489795918,0.3061224489795918,0.4285714285714285,0.2857142857142857,-0.14285714285714324,-0.06122448979591866,4.938775510204081,4.938775510204081,1.0,2.0,-1.0,5.0,0,1,0,0,-0.0154423019709537
9.0,0.0,9.0,0.0,1.0,0.0,1.0,0.0,,,,right,2.5525594000937417,329.44327620009426,fd13,324.0592915000161,326.0591762000695,329.44327620009426,,True,3.0,['r'],False,0.4,0.4,0.0,0.0,2.0,0.6126016192893442,0.1347766176536976,succ_gain,1.0,5.0,326.0591762000695,,fd13,1,2022-04-07_11h27.33.193,threat_forest,2021.2.3,59.947581798236335,True,33.0,0.41428571428571426,0.5133928571428572,-0.7306122448979593,-0.6262436224489797,1,0,1.0,0.93709654212528,0.1347766176536976,0.4,0.4,0.4,0.0,0.6000000000000001,0.6000000000000001,3.6,3.6,0.0,2.0,-1.0,3.0,0,1,0,1,0.1347766176536976
9.0,0.0,9.0,0.0,2.0,0.0,2.0,0.0,,,,right,1.3667143000056967,337.24319520010613,fd13,324.0592915000161,326.0591762000695,337.24319520010613,,True,5.0,['r'],False,0.4,0.4,0.0,0.0,2.0,0.6126016192893442,0.0900663897782421,unsucc_cost,1.0,3.0,334.02584090002347,,fd13,1,2022-04-07_11h27.33.193,threat_forest,2021.2.3,59.947581798236335,True,33.0,0.41428571428571426,0.5133928571428572,-0.7306122448979593,-0.6262436224489797,1,0,1.0,0.31240953809748256,0.0900663897782421,0.4,0.4,0.4,0.0,0.6000000000000001,0.6000000000000001,5.6,5.6,0.0,2.0,1.0,5.0,0,1,0,1,0.0900663897782421
9.0,0.0,9.0,0.0,3.0,0.0,3.0,0.0,,,,left,2.325513100018725,342.1601495000068,fd13,342.1601495000068,,338.6429673000239,340.6426144000143,True,3.0,['r'],True,0.3061224489795918,0.4285714285714285,0.2857142857142857,2.0,2.0,0.9885754083994552,0.0061171946785325,unsucc_cost,0.0,1.0,340.6426144000143,,fd13,1,2022-04-07_11h27.33.193,threat_forest,2021.2.3,59.947581798236335,True,33.0,0.41428571428571426,0.5133928571428572,-0.7306122448979593,-0.6262436224489797,0,0,1.0,0.843940702871362,0.0061171946785325,0.3061224489795918,0.3061224489795918,0.4285714285714285,0.2857142857142857,-0.14285714285714324,-0.06122448979591866,2.9387755102040813,2.9387755102040813,1.0,2.0,-1.0,3.0,0,1,0,0,0.0061171946785325
9.0,0.0,9.0,0.0,4.0,0.0,4.0,0.0,,,,,,349.91023820010014,fd13,349.91023820010014,,338.6429673000239,340.6426144000143,True,1.0,['r'],True,0.3061224489795918,0.4285714285714285,0.2857142857142857,2.0,2.0,0.9885754083994552,0.1625610927419696,wait_cost,0.0,0.0,346.5093925000401,,fd13,1,2022-04-07_11h27.33.193,threat_forest,2021.2.3,59.947581798236335,,33.0,0.41428571428571426,0.5133928571428572,-0.7306122448979593,-0.6262436224489797,0,0,,,0.1625610927419696,1.0,0.3061224489795918,0.4285714285714285,0.2857142857142857,-0.14285714285714324,-0.06122448979591866,0.9387755102040813,1.0,1.0,2.0,-1.0,1.0,1,1,0,0,0.625
10.0,0.0,10.0,0.0,0.0,0.0,0.0,0.0,358.7183795000892,362.22641280002426,,right,1.2410918000387028,365.76034300006,fd13,358.7183795000892,362.22641280002426,365.76034300006,,True,4.0,['p'],False,0.375,0.5,0.25,1.0,1.0,0.9850568223215076,0.0365041143210029,unsucc_cost,1.0,2.0,,,fd13,1,2022-04-07_11h27.33.193,threat_forest,2021.2.3,59.947581798236335,True,3.0,0.35,0.3821428571428571,-1.4225000000000003,-1.07655612244898,0,0,1.0,0.2159914761205563,0.0365041143210029,0.375,0.375,0.5,0.25,-0.25,-0.125,3.875,3.875,0.0,1.0,-1.0,4.0,0,1,0,0,0.0365041143210029
10.0,0.0,10.0,0.0,1.0,0.0,1.0,0.0,,,,right,0.9181074000662192,370.1834350000136,fd13,370.1834350000136,,367.0267930000555,369.02647020004224,False,2.0,['p'],True,0.16,0.2,0.2,2.0,1.0,0.8198746470064713,-0.0078321737219239,wait_cost,0.0,1.0,369.02647020004224,,fd13,1,2022-04-07_11h27.33.193,threat_forest,2021.2.3,59.947581798236335,False,3.0,0.35,0.3821428571428571,-1.4225000000000003,-1.07655612244898,0,0,0.0,-0.08544090166867016,-0.0078321737219239,0.16,0.16,0.2,0.2,-1.0,-0.7200000000000004,1.2799999999999996,1.2799999999999996,1.0,1.0,-1.0,2.0,0,1,0,0,-0.0078321737219239
10.0,0.0,10.0,0.0,2.0,0.0,2.0,0.0,,,,right,0.953140199999325,374.2933923000237,fd13,371.126783600077,373.1265013000229,374.2933923000237,,True,1.0,['p'],False,0.375,0.5,0.25,1.0,1.0,0.9850568223215076,0.0417231582641601,succ_gain,1.0,2.0,373.1265013000229,,fd13,1,2022-04-07_11h27.33.193,threat_forest,2021.2.3,59.947581798236335,True,3.0,0.35,0.3821428571428571,-1.4225000000000003,-1.07655612244898,0,0,1.0,-0.04799327177324589,0.0417231582641601,1.0,0.375,0.5,0.25,-0.25,-0.125,0.875,1.0,0.0,1.0,-1.0,1.0,1,1,0,0,0.625
10.0,0.0,10.0,0.0,3.0,0.0,3.0,0.0,,,,right,1.5838914000196382,378.9955696000252,fd13,378.9955696000252,,375.2769660000922,377.27656690008007,False,2.0,['p'],True,0.16,0.2,0.2,2.0,1.0,0.8198746470064713,-0.0276563437499999,wait_cost,0.0,1.0,377.27656690008007,,fd13,1,2022-04-07_11h27.33.193,threat_forest,2021.2.3,59.947581798236335,False,3.0,0.35,0.3821428571428571,-1.4225000000000003,-1.07655612244898,0,0,0.0,0.45988473044818645,-0.0276563437499999,0.16,0.16,0.2,0.2,-1.0,-0.7200000000000004,1.2799999999999996,1.2799999999999996,1.0,1.0,1.0,2.0,0,1,0,0,-0.0276563437499999
10.0,0.0,10.0,0.0,4.0,0.0,4.0,0.0,,,,right,1.004321299958974,384.626870200038,fd13,380.61020460003056,382.6099940000568,384.626870200038,,True,1.0,['p'],False,0.375,0.5,0.25,1.0,1.0,0.9850568223215076,0.12046875,unsucc_cost,1.0,0.0,382.6099940000568,,fd13,1,2022-04-07_11h27.33.193,threat_forest,2021.2.3,59.947581798236335,True,3.0,0.35,0.3821428571428571,-1.4225000000000003,-1.07655612244898,0,0,1.0,0.004311989953553987,0.12046875,1.0,0.375,0.5,0.25,-0.25,-0.125,0.875,1.0,0.0,1.0,-1.0,1.0,1,1,0,0,0.625
11.0,0.0,11.0,0.0,0.0,0.0,0.0,0.0,389.9875607000431,393.4935276000761,,left,2.3031204000581056,396.74541600001976,fd13,389.9875607000431,393.4935276000761,396.74541600001976,,False,4.0,['p'],False,0.27,0.3,0.1,1.0,2.0,0.7963326591781347,0.0116156252879662,wait_cost,1.0,3.0,,,fd13,1,2022-04-07_11h27.33.193,threat_forest,2021.2.3,59.947581798236335,False,1.0,0.4833333333333333,0.41666666666666663,-0.7877777777777778,-1.1051388888888891,1,0,0.0,0.8342648991325031,0.0116156252879662,0.27,0.27,0.3,0.1,-0.10000000000000009,-0.020000000000000018,3.98,3.98,0.0,2.0,-1.0,4.0,0,1,0,1,0.0116156252879662
11.0,0.0,11.0,0.0,1.0,0.0,1.0,0.0,,,,right,0.8242595000192523,402.3442653000821,fd13,389.9875607000431,393.4935276000761,402.3442653000821,,True,3.0,['p'],False,0.27,0.3,0.1,1.0,2.0,0.7963326591781347,0.0431681748711396,succ_gain,1.0,5.0,401.0769987000385,,fd13,1,2022-04-07_11h27.33.193,threat_forest,2021.2.3,59.947581798236335,True,1.0,0.4833333333333333,0.41666666666666663,-0.7877777777777778,-1.1051388888888891,1,0,1.0,-0.19326987144399907,0.0431681748711396,0.27,0.27,0.3,0.1,-0.10000000000000009,-0.020000000000000018,2.98,2.98,0.0,2.0,-1.0,3.0,0,1,0,1,0.0431681748711396
11.0,0.0,11.0,0.0,2.0,0.0,2.0,0.0,,,,right,2.3521039000479504,406.4277453001123,fd13,389.9875607000431,393.4935276000761,406.4277453001123,,True,5.0,['p'],False,0.27,0.3,0.1,1.0,2.0,0.7963326591781347,0.0041028475611568,unsucc_cost,1.0,3.0,405.1936127000954,,fd13,1,2022-04-07_11h27.33.193,threat_forest,2021.2.3,59.947581798236335,True,1.0,0.4833333333333333,0.41666666666666663,-0.7877777777777778,-1.1051388888888891,1,0,1.0,0.8553102042511406,0.0041028475611568,0.27,0.27,0.3,0.1,-0.10000000000000009,-0.020000000000000018,4.98,4.98,0.0,2.0,1.0,5.0,0,1,0,1,0.0041028475611568
11.0,0.0,11.0,0.0,3.0,0.0,3.0,0.0,,,,left,1.2630373999709263,412.59448670002166,fd13,412.59448670002166,,408.81060960004106,410.8103229000699,True,3.0,['p'],True,0.4444444444444445,0.6666666666666666,0.3333333333333333,1.0,2.0,0.9656336071428248,0.0840517292714524,figh_cost,0.0,0.0,410.8103229000699,,fd13,1,2022-04-07_11h27.33.193,threat_forest,2021.2.3,59.947581798236335,True,1.0,0.4833333333333333,0.41666666666666663,-0.7877777777777778,-1.1051388888888891,1,1,1.0,0.23351945494174525,0.0840517292714524,0.4444444444444445,0.4444444444444445,0.6666666666666666,0.3333333333333333,0.6666666666666665,0.4444444444444444,3.4444444444444446,3.4444444444444446,1.0,2.0,-1.0,3.0,0,1,1,1,0.0840517292714524
12.0,0.0,12.0,0.0,0.0,0.0,0.0,0.0,418.2379782000789,421.74382870004047,,right,1.454888300038874,422.9119208001066,fd13,422.9119208001066,,418.2379782000789,421.74382870004047,False,4.0,['p'],True,0.1975308641975308,0.2222222222222222,0.1111111111111111,1.0,1.0,0.7461067557824965,0.000620491815553,wait_cost,0.0,3.0,,,fd13,1,2022-04-07_11h27.33.193,threat_forest,2021.2.3,59.947581798236335,False,48.0,0.3111111111111111,0.3972222222222222,-1.3792592592592592,-1.0835185185185185,0,0,0.0,0.37492912794377636,0.000620491815553,0.1975308641975308,0.1975308641975308,0.2222222222222222,0.1111111111111111,-0.6666666666666667,-0.5185185185185184,3.481481481481482,3.481481481481482,1.0,1.0,-1.0,4.0,0,1,0,0,0.000620491815553
12.0,0.0,12.0,0.0,1.0,0.0,1.0,0.0,,,,left,2.902685299981385,427.4944840000244,fd13,424.3943251000019,426.3939734000014,427.4944840000244,,False,3.0,['p'],False,0.32,0.4,0.2,1.0,1.0,0.9455672104350704,0.0271702936740403,wait_cost,1.0,2.0,426.3939734000014,,fd13,1,2022-04-07_11h27.33.193,threat_forest,2021.2.3,59.947581798236335,False,48.0,0.3111111111111111,0.3972222222222222,-1.3792592592592592,-1.0835185185185185,0,0,0.0,1.0656362740616483,0.0271702936740403,0.32,0.32,0.4,0.2,-0.3999999999999999,-0.24,2.76,2.76,0.0,1.0,-1.0,3.0,0,1,0,0,0.0271702936740403
12.0,0.0,12.0,0.0,2.0,0.0,2.0,0.0,,,,right,0.866962399915792,433.4109934000298,fd13,433.4109934000298,,430.4278984999983,432.4273551000515,False,2.0,['p'],True,0.1975308641975308,0.2222222222222222,0.1111111111111111,1.0,1.0,0.7461067557824965,0.0037858795279334,wait_cost,0.0,1.0,432.4273551000515,,fd13,1,2022-04-07_11h27.33.193,threat_forest,2021.2.3,59.947581798236335,False,48.0,0.3111111111111111,0.3972222222222222,-1.3792592592592592,-1.0835185185185185,0,0,0.0,-0.14275967117455063,0.0037858795279334,0.1975308641975308,0.1975308641975308,0.2222222222222222,0.1111111111111111,-0.6666666666666667,-0.5185185185185184,1.4814814814814816,1.4814814814814816,1.0,1.0,-1.0,2.0,0,1,0,0,0.0037858795279334
12.0,0.0,12.0,0.0,3.0,0.0,3.0,0.0,,,,right,0.6992497000610456,437.7943986000028,fd13,434.2945450000698,436.2940590000944,437.7943986000028,,True,1.0,['p'],False,0.32,0.4,0.2,1.0,1.0,0.9455672104350704,0.0339764324116506,unsucc_cost,1.0,0.0,436.2940590000944,,fd13,1,2022-04-07_11h27.33.193,threat_forest,2021.2.3,59.947581798236335,True,48.0,0.3111111111111111,0.3972222222222222,-1.3792592592592592,-1.0835185185185185,0,0,1.0,-0.35774737584396316,0.0339764324116506,1.0,0.32,0.4,0.2,-0.3999999999999999,-0.24,0.76,1.0,0.0,1.0,-1.0,1.0,1,1,0,0,0.625
13.0,0.0,13.0,0.0,0.0,0.0,0.0,0.0,443.9022113000974,447.4109066000674,,right,1.631240600021556,451.21157150005456,fd13,451.21157150005456,,443.9022113000974,447.4109066000674,False,4.0,['p'],True,0.375,0.5,0.25,1.0,1.0,0.9850568223215076,0.0300347076439857,wait_cost,0.0,3.0,,,fd13,1,2022-04-07_11h27.33.193,threat_forest,2021.2.3,59.947581798236335,False,50.0,0.35,0.33055555555555555,-1.2625000000000002,-1.3208796296296297,1,1,0.0,0.4893408296333707,0.0300347076439857,0.375,0.375,0.5,0.25,-0.25,-0.125,3.875,3.875,1.0,1.0,-1.0,4.0,0,1,1,1,0.0300347076439857
13.0,0.0,13.0,0.0,1.0,0.0,1.0,0.0,,,,left,0.9814824000932276,455.846787000075,fd13,452.8614224001067,454.8609698000364,455.846787000075,,False,3.0,['p'],False,0.2,0.2,0.0,0.0,1.0,0.4554859150035951,0.0147778552246093,wait_cost,1.0,2.0,454.8609698000364,,fd13,1,2022-04-07_11h27.33.193,threat_forest,2021.2.3,59.947581798236335,False,50.0,0.35,0.33055555555555555,-1.2625000000000002,-1.3208796296296297,0,0,0.0,-0.018691197068547303,0.0147778552246093,0.2,0.2,0.2,0.0,-0.40000000000000013,-0.40000000000000013,2.5999999999999996,2.5999999999999996,0.0,1.0,-1.0,3.0,0,1,0,0,0.0147778552246093
13.0,0.0,13.0,0.0,2.0,0.0,2.0,0.0,,,,left,1.1886450999882072,460.3281369000906,fd13,452.8614224001067,454.8609698000364,460.3281369000906,,False,2.0,['p'],False,0.2,0.2,0.0,0.0,1.0,0.4554859150035951,0.0013027343749999,wait_cost,1.0,1.0,458.844494100078,,fd13,1,2022-04-07_11h27.33.193,threat_forest,2021.2.3,59.947581798236335,False,50.0,0.35,0.33055555555555555,-1.2625000000000002,-1.3208796296296297,0,0,0.0,0.17281408702008216,0.0013027343749999,0.2,0.2,0.2,0.0,-0.40000000000000013,-0.40000000000000013,1.5999999999999999,1.5999999999999999,0.0,1.0,-1.0,2.0,0,1,0,0,0.0013027343749999
13.0,0.0,13.0,0.0,3.0,0.0,3.0,0.0,,,,left,1.0268876999616623,464.59515400009695,fd13,452.8614224001067,454.8609698000364,464.59515400009695,,False,1.0,['p'],False,0.2,0.2,0.0,0.0,1.0,0.4554859150035951,0.0266386718749999,wait_cost,1.0,0.0,463.5444950000383,,fd13,1,2022-04-07_11h27.33.193,threat_forest,2021.2.3,59.947581798236335,False,50.0,0.35,0.33055555555555555,-1.2625000000000002,-1.3208796296296297,0,0,0.0,0.026532577315790142,0.0266386718749999,1.0,0.2,0.2,0.0,-0.40000000000000013,-0.40000000000000013,0.5999999999999999,1.0,0.0,1.0,-1.0,1.0,1,1,0,0,0.625
14.0,0.0,14.0,0.0,0.0,0.0,0.0,0.0,470.8169128000736,474.32799320004415,,left,2.5061940999003127,476.1789809000911,fd13,476.1789809000911,,470.8169128000736,474.32799320004415,True,4.0,['p'],True,0.2448979591836734,0.2857142857142857,0.1428571428571428,1.0,1.0,0.8400769154957735,0.0043475630520346,figh_cost,0.0,1.0,,,fd13,1,2022-04-07_11h27.33.193,threat_forest,2021.2.3,59.947581798236335,True,69.0,0.39285714285714285,0.37142857142857144,-1.2665816326530612,-1.2645408163265306,0,0,1.0,0.9187653075448211,0.0043475630520346,0.2448979591836734,0.2448979591836734,0.2857142857142857,0.1428571428571428,-0.5714285714285712,-0.40816326530612246,3.5918367346938775,3.5918367346938775,1.0,1.0,-1.0,4.0,0,1,0,0,0.0043475630520346
14.0,0.0,14.0,0.0,1.0,0.0,1.0,0.0,,,,left,1.9102184999501333,482.69568390003406,fd13,482.69568390003406,,470.8169128000736,474.32799320004415,True,1.0,['p'],True,0.2448979591836734,0.2857142857142857,0.1428571428571428,1.0,1.0,0.8400769154957735,0.0157373162780367,succ_gain,0.0,2.0,480.7114448000211,,fd13,1,2022-04-07_11h27.33.193,threat_forest,2021.2.3,59.947581798236335,True,69.0,0.39285714285714285,0.37142857142857144,-1.2665816326530612,-1.2645408163265306,0,0,1.0,0.647217633395251,0.0157373162780367,1.0,0.2448979591836734,0.2857142857142857,0.1428571428571428,-0.5714285714285712,-0.40816326530612246,0.5918367346938775,1.0,1.0,1.0,-1.0,1.0,1,1,0,0,0.625
14.0,0.0,14.0,0.0,2.0,0.0,2.0,0.0,,,,right,1.3884862000122666,488.2451257000212,fd13,484.6284321000567,486.62812940008007,488.2451257000212,,True,2.0,['p'],False,0.375,0.5,0.25,1.0,1.0,0.9850568223215076,0.0332729833967032,unsucc_cost,1.0,0.0,486.62812940008007,,fd13,1,2022-04-07_11h27.33.193,threat_forest,2021.2.3,59.947581798236335,True,69.0,0.39285714285714285,0.37142857142857144,-1.2665816326530612,-1.2645408163265306,1,1,1.0,0.3282140889413025,0.0332729833967032,0.375,0.375,0.5,0.25,-0.25,-0.125,1.875,1.875,0.0,1.0,1.0,2.0,0,1,1,1,0.0332729833967032
15.0,0.0,15.0,0.0,0.0,0.0,0.0,0.0,493.9522434000392,497.4616462000413,,left,1.5999218999641016,500.1289092000807,fd13,500.1289092000807,,493.9522434000392,497.4616462000413,True,4.0,['p'],True,0.25,0.5,0.5,1.0,2.0,0.9463946303571862,0.0192737415335937,succ_gain,0.0,6.0,,,fd13,1,2022-04-07_11h27.33.193,threat_forest,2021.2.3,59.947581798236335,True,8.0,0.35,0.37142857142857144,-1.5300000000000002,-1.3982908163265306,0,0,1.0,0.46995481553192914,0.0192737415335937,0.25,0.25,0.5,0.5,-0.5,-0.5,3.5,3.5,1.0,2.0,-1.0,4.0,0,1,0,0,0.0192737415335937
15.0,0.0,15.0,0.0,1.0,0.0,1.0,0.0,,,,left,2.1513705999823287,504.9842852000147,fd13,501.7453089000192,503.74524110008497,504.9842852000147,,False,6.0,['p'],False,0.16,0.2,0.2,2.0,2.0,0.8198746470064713,-0.0746401575431251,wait_cost,1.0,5.0,503.74524110008497,,fd13,1,2022-04-07_11h27.33.193,threat_forest,2021.2.3,59.947581798236335,False,8.0,0.35,0.37142857142857144,-1.5300000000000002,-1.3982908163265306,0,0,0.0,0.7661051273940536,-0.0746401575431251,0.16,0.16,0.2,0.2,-0.8000000000000003,-0.5600000000000003,5.4399999999999995,5.4399999999999995,0.0,2.0,1.0,6.0,0,1,0,0,-0.0746401575431251
15.0,0.0,15.0,0.0,2.0,0.0,2.0,0.0,,,,left,2.963789899949916,510.0624259000178,fd13,501.7453089000192,503.74524110008497,510.0624259000178,,False,5.0,['p'],False,0.16,0.2,0.2,2.0,2.0,0.8198746470064713,0.0056887462499999,wait_cost,1.0,4.0,509.16186190000735,,fd13,1,2022-04-07_11h27.33.193,threat_forest,2021.2.3,59.947581798236335,False,8.0,0.35,0.37142857142857144,-1.5300000000000002,-1.3982908163265306,0,0,0.0,1.086468820963936,0.0056887462499999,0.16,0.16,0.2,0.2,-0.8000000000000003,-0.5600000000000003,4.4399999999999995,4.4399999999999995,0.0,2.0,-1.0,5.0,0,1,0,0,0.0056887462499999
15.0,0.0,15.0,0.0,3.0,0.0,3.0,0.0,,,,left,1.328775699948892,516.5454708000179,fd13,516.5454708000179,,513.0454781000735,515.0453141001053,True,4.0,['p'],True,0.25,0.5,0.5,1.0,2.0,0.9463946303571862,0.0410130625,succ_gain,0.0,6.0,515.0453141001053,,fd13,1,2022-04-07_11h27.33.193,threat_forest,2021.2.3,59.947581798236335,True,8.0,0.35,0.37142857142857144,-1.5300000000000002,-1.3982908163265306,0,0,1.0,0.2842579919348734,0.0410130625,0.25,0.25,0.5,0.5,-0.5,-0.5,3.5,3.5,1.0,2.0,-1.0,4.0,0,1,0,0,0.0410130625
15.0,0.0,15.0,0.0,4.0,0.0,4.0,0.0,,,,left,1.0568008000263944,521.8999309000792,fd13,517.8957575000823,519.8953789001098,521.8999309000792,,False,6.0,['p'],False,0.16,0.2,0.2,2.0,2.0,0.8198746470064713,-0.140755,wait_cost,1.0,5.0,519.8953789001098,,fd13,1,2022-04-07_11h27.33.193,threat_forest,2021.2.3,59.947581798236335,False,8.0,0.35,0.37142857142857144,-1.5300000000000002,-1.3982908163265306,0,0,0.0,0.055246231252938774,-0.140755,0.0,0.16,0.2,0.2,-0.8000000000000003,-0.5600000000000003,5.4399999999999995,5.4399999999999995,0.0,2.0,1.0,6.0,0,0,0,0,-0.84
15.0,0.0,15.0,0.0,5.0,0.0,5.0,0.0,,,,left,2.1093893001088877,525.5457350000506,fd13,517.8957575000823,519.8953789001098,525.5457350000506,,False,5.0,['p'],False,0.16,0.2,0.2,2.0,2.0,0.8198746470064713,-0.1545,wait_cost,1.0,4.0,524.9787333999993,,fd13,1,2022-04-07_11h27.33.193,threat_forest,2021.2.3,59.947581798236335,False,8.0,0.35,0.37142857142857144,-1.5300000000000002,-1.3982908163265306,0,0,0.0,0.7463984743666583,-0.1545,0.0,0.16,0.2,0.2,-0.8000000000000003,-0.5600000000000003,4.4399999999999995,4.4399999999999995,0.0,2.0,-1.0,5.0,0,0,0,0,-0.84
15.0,0.0,15.0,0.0,6.0,0.0,6.0,0.0,,,,left,1.563864800031297,532.2960430000676,fd13,517.8957575000823,519.8953789001098,532.2960430000676,,False,4.0,['p'],False,0.16,0.2,0.2,2.0,2.0,0.8198746470064713,-0.159,wait_cost,1.0,3.0,529.6787622000556,,fd13,1,2022-04-07_11h27.33.193,threat_forest,2021.2.3,59.947581798236335,False,8.0,0.35,0.37142857142857144,-1.5300000000000002,-1.3982908163265306,0,0,0.0,0.4471601933937587,-0.159,0.0,0.16,0.2,0.2,-0.8000000000000003,-0.5600000000000003,3.4399999999999995,3.4399999999999995,0.0,2.0,-1.0,4.0,0,0,0,0,-0.84
15.0,0.0,15.0,0.0,7.0,0.0,7.0,0.0,,,,right,2.2945295000681654,539.3961143000051,fd13,539.3961143000051,,533.8791238000849,535.8789468000177,False,3.0,['p'],True,0.25,0.5,0.5,1.0,2.0,0.9463946303571862,-0.5,wait_cost,0.0,2.0,535.8789468000177,,fd13,1,2022-04-07_11h27.33.193,threat_forest,2021.2.3,59.947581798236335,False,8.0,0.35,0.37142857142857144,-1.5300000000000002,-1.3982908163265306,0,0,0.0,0.8305278116313642,-0.5,0.0,0.25,0.5,0.5,-0.5,-0.5,2.5,2.5,1.0,2.0,-1.0,3.0,0,0,0,0,-0.84
16.0,0.0,16.0,0.0,0.0,0.0,0.0,0.0,547.4893912000116,550.9869983000681,,left,2.7360943000530824,553.6132582999999,fd13,547.4893912000116,550.9869983000681,553.6132582999999,,False,5.0,['p'],False,0.375,0.5,0.25,1.0,1.0,0.9850568223215076,0.037518611380037,wait_cost,1.0,4.0,,,fd13,1,2022-04-07_11h27.33.193,threat_forest,2021.2.3,59.947581798236335,False,9.0,0.4,0.375,-1.3025,-1.4162500000000002,1,0,0.0,1.006531465560022,0.037518611380037,0.375,0.375,0.5,0.25,-0.25,-0.125,4.875,4.875,0.0,1.0,-1.0,5.0,0,1,0,1,0.037518611380037
16.0,0.0,16.0,0.0,1.0,0.0,1.0,0.0,,,,left,2.6897792000090703,561.7797410000348,fd13,547.4893912000116,550.9869983000681,561.7797410000348,,False,4.0,['p'],False,0.375,0.5,0.25,1.0,1.0,0.9850568223215076,0.0528715126498535,wait_cost,1.0,3.0,558.3792692000279,,fd13,1,2022-04-07_11h27.33.193,threat_forest,2021.2.3,59.947581798236335,False,9.0,0.4,0.375,-1.3025,-1.4162500000000002,1,0,0.0,0.9894591084638392,0.0528715126498535,0.375,0.375,0.5,0.25,-0.25,-0.125,3.875,3.875,0.0,1.0,-1.0,4.0,0,1,0,1,0.0528715126498535
16.0,0.0,16.0,0.0,2.0,0.0,2.0,0.0,,,,right,1.708032099995762,567.4801208000863,fd13,547.4893912000116,550.9869983000681,567.4801208000863,,True,3.0,['p'],False,0.375,0.5,0.25,1.0,1.0,0.9850568223215076,0.0485216770605467,succ_gain,1.0,4.0,566.4960428000195,,fd13,1,2022-04-07_11h27.33.193,threat_forest,2021.2.3,59.947581798236335,True,9.0,0.4,0.375,-1.3025,-1.4162500000000002,1,0,1.0,0.5353418890983006,0.0485216770605467,0.375,0.375,0.5,0.25,-0.25,-0.125,2.875,2.875,0.0,1.0,-1.0,3.0,0,1,0,1,0.0485216770605467
16.0,0.0,16.0,0.0,3.0,0.0,3.0,0.0,,,,right,2.009323799982667,573.2338726000162,fd13,573.2338726000162,,569.2130500000203,571.2128631001106,False,4.0,['p'],True,0.24,0.3,0.2,2.0,1.0,0.9003120349047065,-0.0391069940625,wait_cost,0.0,3.0,571.2128631001106,,fd13,1,2022-04-07_11h27.33.193,threat_forest,2021.2.3,59.947581798236335,False,9.0,0.4,0.375,-1.3025,-1.4162500000000002,0,0,0.0,0.6977982475507103,-0.0391069940625,0.24,0.24,0.3,0.2,-0.7,-0.48,3.52,3.52,1.0,1.0,1.0,4.0,0,1,0,0,-0.0391069940625
16.0,0.0,16.0,0.0,4.0,0.0,4.0,0.0,,,,,,578.0965400000568,fd13,575.2634652000852,577.2629463000922,578.0965400000568,,True,3.0,['p'],False,0.375,0.5,0.25,1.0,1.0,0.9850568223215076,0.0731003906249999,wait_cost,1.0,2.0,577.2629463000922,,fd13,1,2022-04-07_11h27.33.193,threat_forest,2021.2.3,59.947581798236335,,9.0,0.4,0.375,-1.3025,-1.4162500000000002,1,0,,,0.0731003906249999,0.375,0.375,0.5,0.25,-0.25,-0.125,2.875,2.875,0.0,1.0,-1.0,3.0,0,1,0,1,0.0731003906249999
16.0,0.0,16.0,0.0,5.0,0.0,5.0,0.0,,,,right,1.798509299987927,583.7991948000854,fd13,583.7991948000854,,581.0966778000584,583.0963247000473,False,2.0,['p'],True,0.24,0.3,0.2,2.0,1.0,0.9003120349047065,-0.0675,wait_cost,0.0,1.0,583.0963247000473,,fd13,1,2022-04-07_11h27.33.193,threat_forest,2021.2.3,59.947581798236335,False,9.0,0.4,0.375,-1.3025,-1.4162500000000002,0,0,0.0,0.5869581551092725,-0.0675,0.24,0.24,0.3,0.2,-0.7,-0.48,1.52,1.52,1.0,1.0,-1.0,2.0,0,1,0,0,-0.0675
16.0,0.0,16.0,0.0,6.0,0.0,6.0,0.0,,,,left,1.0040105000371111,589.3820116000716,fd13,589.3820116000716,,581.0966778000584,583.0963247000473,True,1.0,['p'],True,0.24,0.3,0.2,2.0,1.0,0.9003120349047065,0.24,succ_gain,0.0,2.0,587.6296840000432,,fd13,1,2022-04-07_11h27.33.193,threat_forest,2021.2.3,59.947581798236335,True,9.0,0.4,0.375,-1.3025,-1.4162500000000002,0,0,1.0,0.0040024794191447595,0.24,1.0,0.24,0.3,0.2,-0.7,-0.48,0.52,1.0,1.0,1.0,-1.0,1.0,1,1,0,0,0.625
16.0,0.0,16.0,0.0,7.0,0.0,7.0,0.0,,,,left,1.697113799978979,594.9637363000074,fd13,590.4135290000122,592.413065000088,594.9637363000074,,False,2.0,['p'],False,0.375,0.5,0.25,1.0,1.0,0.9850568223215076,-0.625,wait_cost,1.0,1.0,592.413065000088,,fd13,1,2022-04-07_11h27.33.193,threat_forest,2021.2.3,59.947581798236335,False,9.0,0.4,0.375,-1.3025,-1.4162500000000002,1,0,0.0,0.5289290435081083,-0.625,0.0,0.375,0.5,0.25,-0.25,-0.125,1.875,1.875,0.0,1.0,1.0,2.0,0,0,0,1,-0.84
17.0,0.0,17.0,0.0,0.0,0.0,0.0,0.0,600.1051823000889,603.6131989000132,,left,2.3100582000333816,605.4635988000082,fd13,605.4635988000082,,600.1051823000889,603.6131989000132,True,4.0,['p'],True,0.2448979591836734,0.2857142857142857,0.1428571428571428,1.0,2.0,0.8400769154957735,0.0036753268254111,unsucc_cost,0.0,2.0,,,fd13,1,2022-04-07_11h27.33.193,threat_forest,2021.2.3,59.947581798236335,True,42.0,0.39285714285714285,0.39642857142857146,-0.9566326530612245,-1.1295663265306122,0,0,1.0,0.8372727190359638,0.0036753268254111,0.2448979591836734,0.2448979591836734,0.2857142857142857,0.1428571428571428,-0.2857142857142856,-0.16326530612244894,3.836734693877551,3.836734693877551,1.0,2.0,-1.0,4.0,0,1,0,0,0.0036753268254111
17.0,0.0,17.0,0.0,1.0,0.0,1.0,0.0,,,,right,0.8948889999883249,611.0636369000422,fd13,607.7968786000274,609.7967800000915,611.0636369000422,,True,2.0,['p'],False,0.375,0.5,0.25,1.0,2.0,0.9850568223215076,0.0419793571159062,succ_gain,1.0,4.0,609.7967800000915,,fd13,1,2022-04-07_11h27.33.193,threat_forest,2021.2.3,59.947581798236335,True,42.0,0.39285714285714285,0.39642857142857146,-0.9566326530612245,-1.1295663265306122,1,0,1.0,-0.11105559075810392,0.0419793571159062,0.375,0.375,0.5,0.25,0.25,0.25,2.25,2.25,0.0,2.0,-1.0,2.0,0,1,0,1,0.0419793571159062
17.0,0.0,17.0,0.0,2.0,0.0,2.0,0.0,,,,right,1.208456400083378,617.5139158000238,fd13,617.5139158000238,,611.9803053000942,613.9802517000353,False,4.0,['p'],True,0.2448979591836734,0.2857142857142857,0.1428571428571428,1.0,2.0,0.8400769154957735,-0.0143430278316863,wait_cost,0.0,3.0,613.9802517000353,,fd13,1,2022-04-07_11h27.33.193,threat_forest,2021.2.3,59.947581798236335,False,42.0,0.39285714285714285,0.39642857142857146,-0.9566326530612245,-1.1295663265306122,0,0,0.0,0.18934384279720237,-0.0143430278316863,0.2448979591836734,0.2448979591836734,0.2857142857142857,0.1428571428571428,-0.2857142857142856,-0.16326530612244894,3.836734693877551,3.836734693877551,1.0,2.0,1.0,4.0,0,1,0,0,-0.0143430278316863
17.0,0.0,17.0,0.0,3.0,0.0,3.0,0.0,,,,right,0.8399900000076741,621.5138108000392,fd13,618.747111500008,620.7468926000874,621.5138108000392,,True,3.0,['p'],False,0.375,0.5,0.25,1.0,2.0,0.9850568223215076,0.0863342129519169,unsucc_cost,1.0,1.0,620.7468926000874,,fd13,1,2022-04-07_11h27.33.193,threat_forest,2021.2.3,59.947581798236335,True,42.0,0.39285714285714285,0.39642857142857146,-0.9566326530612245,-1.1295663265306122,1,0,1.0,-0.1743652919684088,0.0863342129519169,0.375,0.375,0.5,0.25,0.25,0.25,3.25,3.25,0.0,2.0,-1.0,3.0,0,1,0,1,0.0863342129519169
17.0,0.0,17.0,0.0,4.0,0.0,4.0,0.0,,,,right,1.1590540999313816,627.7640845000278,fd13,618.747111500008,620.7468926000874,627.7640845000278,,True,1.0,['p'],False,0.375,0.5,0.25,1.0,2.0,0.9850568223215076,0.1736050327337567,figh_cost,1.0,0.0,624.3802683000686,,fd13,1,2022-04-07_11h27.33.193,threat_forest,2021.2.3,59.947581798236335,True,42.0,0.39285714285714285,0.39642857142857146,-0.9566326530612245,-1.1295663265306122,1,0,1.0,0.14760424137985764,0.1736050327337567,1.0,0.375,0.5,0.25,0.25,0.25,1.25,1.25,0.0,2.0,-1.0,1.0,1,1,0,1,0.625
0.0,0.0,0.0,0.0,0.0,0.0,0.0,0.0,11.366884699906224,14.87144009990152,,right,1.2103929999284446,17.20954479998909,fd13,11.366884699906224,14.87144009990152,17.20954479998909,,True,5.0,['r'],False,0.24,0.3,0.2,2.0,2.0,0.9003120349047065,-0.0006443703968158,unsucc_cost,1.0,3.0,,,fd13,2,2022-04-07_11h39.57.230,threat_forest,2021.2.3,60.01489571272593,True,55.0,0.2928571428571428,0.34285714285714286,-1.0485714285714285,-1.0026020408163265,0,0,1.0,0.19094510020400754,-0.0006443703968158,0.24,0.24,0.3,0.2,-0.3999999999999999,-0.24,4.76,4.76,0.0,2.0,-1.0,5.0,0,1,0,0,-0.0006443703968158
0.0,0.0,0.0,0.0,1.0,0.0,1.0,0.0,,,,left,1.3257808000780642,23.89283849997446,fd13,23.89283849997446,,18.440460599958897,20.440211199922487,True,3.0,['r'],True,0.2857142857142857,0.2857142857142857,0.0,0.0,2.0,0.5445684476282007,0.0813189773311461,succ_gain,0.0,5.0,20.440211199922487,,fd13,2,2022-04-07_11h39.57.230,threat_forest,2021.2.3,60.01489571272593,True,55.0,0.2928571428571428,0.34285714285714286,-1.0485714285714285,-1.0026020408163265,1,0,1.0,0.2820015689568772,0.0813189773311461,0.2857142857142857,0.2857142857142857,0.2857142857142857,0.0,0.1428571428571428,0.1428571428571428,3.142857142857143,3.142857142857143,1.0,2.0,-1.0,3.0,0,1,0,1,0.0813189773311461
0.0,0.0,0.0,0.0,2.0,0.0,2.0,0.0,,,,left,0.6770851000910625,29.974197799921967,fd13,29.974197799921967,,18.440460599958897,20.440211199922487,True,5.0,['r'],True,0.2857142857142857,0.2857142857142857,0.0,0.0,2.0,0.5445684476282007,0.0689652861783781,unsucc_cost,0.0,3.0,27.240321699995548,,fd13,2,2022-04-07_11h39.57.230,threat_forest,2021.2.3,60.01489571272593,True,55.0,0.2928571428571428,0.34285714285714286,-1.0485714285714285,-1.0026020408163265,1,0,1.0,-0.389958312210342,0.0689652861783781,0.2857142857142857,0.2857142857142857,0.2857142857142857,0.0,0.1428571428571428,0.1428571428571428,5.142857142857142,5.142857142857142,1.0,2.0,1.0,5.0,0,1,0,1,0.0689652861783781
0.0,0.0,0.0,0.0,3.0,0.0,3.0,0.0,,,,right,2.193453299929388,35.49525919998996,fd13,30.67414589994587,32.67373719997704,35.49525919998996,,True,3.0,['r'],False,0.24,0.3,0.2,2.0,2.0,0.9003120349047065,0.0290595526530613,succ_gain,1.0,5.0,32.67373719997704,,fd13,2,2022-04-07_11h39.57.230,threat_forest,2021.2.3,60.01489571272593,True,55.0,0.2928571428571428,0.34285714285714286,-1.0485714285714285,-1.0026020408163265,0,0,1.0,0.7854771511897818,0.0290595526530613,0.24,0.24,0.3,0.2,-0.3999999999999999,-0.24,2.76,2.76,0.0,2.0,-1.0,3.0,0,1,0,0,0.0290595526530613
0.0,0.0,0.0,0.0,4.0,0.0,4.0,0.0,,,,,,41.374324599979445,fd13,41.374324599979445,,37.7148065000074,39.72390209999867,True,5.0,['r'],True,0.2857142857142857,0.2857142857142857,0.0,0.0,2.0,0.5445684476282007,-0.4069037900874636,wait_cost,0.0,4.0,39.72390209999867,,fd13,2,2022-04-07_11h39.57.230,threat_forest,2021.2.3,60.01489571272593,,55.0,0.2928571428571428,0.34285714285714286,-1.0485714285714285,-1.0026020408163265,1,0,,,-0.4069037900874636,0.0,0.2857142857142857,0.2857142857142857,0.0,0.1428571428571428,0.1428571428571428,5.142857142857142,5.142857142857142,1.0,2.0,1.0,5.0,0,0,0,1,-0.84
0.0,0.0,0.0,0.0,5.0,0.0,5.0,0.0,,,,right,1.3584073000820354,49.224707999965176,fd13,49.224707999965176,,37.7148065000074,39.72390209999867,False,4.0,['r'],True,0.2857142857142857,0.2857142857142857,0.0,0.0,2.0,0.5445684476282007,-0.5183673469387755,wait_cost,0.0,3.0,46.37401349993888,,fd13,2,2022-04-07_11h39.57.230,threat_forest,2021.2.3,60.01489571272593,False,55.0,0.2928571428571428,0.34285714285714286,-1.0485714285714285,-1.0026020408163265,1,0,0.0,0.30631291059027266,-0.5183673469387755,0.0,0.2857142857142857,0.2857142857142857,0.0,0.1428571428571428,0.1428571428571428,4.142857142857142,4.142857142857142,1.0,2.0,-1.0,4.0,0,0,0,1,-0.84
0.0,0.0,0.0,0.0,6.0,0.0,6.0,0.0,,,,,,54.66692369990051,fd13,50.60758129996248,52.60738519998267,54.66692369990051,,True,3.0,['r'],False,0.24,0.3,0.2,2.0,2.0,0.9003120349047065,-0.6127999999999999,wait_cost,1.0,2.0,52.60738519998267,,fd13,2,2022-04-07_11h39.57.230,threat_forest,2021.2.3,60.01489571272593,,55.0,0.2928571428571428,0.34285714285714286,-1.0485714285714285,-1.0026020408163265,0,0,,,-0.6127999999999999,0.0,0.24,0.3,0.2,-0.3999999999999999,-0.24,2.76,2.76,0.0,2.0,-1.0,3.0,0,0,0,0,-0.84
0.0,0.0,0.0,0.0,7.0,0.0,7.0,0.0,,,,left,1.5078747000079602,61.808315499918535,fd13,50.60758129996248,52.60738519998267,61.808315499918535,,False,2.0,['r'],False,0.24,0.3,0.2,2.0,2.0,0.9003120349047065,-0.76,wait_cost,1.0,1.0,59.67423319991212,,fd13,2,2022-04-07_11h39.57.230,threat_forest,2021.2.3,60.01489571272593,False,55.0,0.2928571428571428,0.34285714285714286,-1.0485714285714285,-1.0026020408163265,0,0,0.0,0.41070117595318634,-0.76,0.0,0.24,0.3,0.2,-0.3999999999999999,-0.24,1.76,1.76,0.0,2.0,-1.0,2.0,0,0,0,0,-0.84
1.0,0.0,1.0,0.0,0.0,0.0,0.0,0.0,67.987215799978,71.49102019995917,,right,2.294874700019136,72.07467369991355,fd13,67.987215799978,71.49102019995917,72.07467369991355,,True,5.0,['r'],False,0.375,0.5,0.25,1.0,2.0,0.9850568223215076,0.0358735195754151,succ_gain,1.0,6.0,,,fd13,2,2022-04-07_11h39.57.230,threat_forest,2021.2.3,60.01489571272593,True,59.0,0.3611111111111111,0.32698412698412693,-1.1404320987654322,-1.0945017636684304,1,1,1.0,0.8306782450804883,0.0358735195754151,0.375,0.375,0.5,0.25,0.25,0.25,5.25,5.25,0.0,2.0,-1.0,5.0,0,1,1,1,0.0358735195754151
1.0,0.0,1.0,0.0,1.0,0.0,1.0,0.0,,,,right,2.166484000044875,77.22527179995086,fd13,67.987215799978,71.49102019995917,77.22527179995086,,True,6.0,['r'],False,0.375,0.5,0.25,1.0,2.0,0.9850568223215076,-0.0774685252681226,succ_gain,1.0,6.0,76.3910893999273,,fd13,2,2022-04-07_11h39.57.230,threat_forest,2021.2.3,60.01489571272593,True,59.0,0.3611111111111111,0.32698412698412693,-1.1404320987654322,-1.0945017636684304,1,1,1.0,0.773105577007794,-0.0774685252681226,0.375,0.375,0.5,0.25,0.25,0.25,6.25,6.25,0.0,2.0,1.0,6.0,0,1,1,1,-0.0774685252681226
1.0,0.0,1.0,0.0,2.0,0.0,2.0,0.0,,,,right,1.40532030002214,82.69492759997956,fd13,82.69492759997956,,79.42478799994569,81.42455299990252,False,6.0,['r'],True,0.1728395061728395,0.2222222222222222,0.2222222222222222,2.0,2.0,0.8571721972794328,-0.016023026120511,wait_cost,0.0,5.0,81.42455299990252,,fd13,2,2022-04-07_11h39.57.230,threat_forest,2021.2.3,60.01489571272593,False,59.0,0.3611111111111111,0.32698412698412693,-1.1404320987654322,-1.0945017636684304,0,0,0.0,0.34026524835015187,-0.016023026120511,0.1728395061728395,0.1728395061728395,0.2222222222222222,0.2222222222222222,-0.7777777777777777,-0.5308641975308643,5.469135802469136,5.469135802469136,1.0,2.0,-1.0,6.0,0,1,0,0,-0.016023026120511
1.0,0.0,1.0,0.0,3.0,0.0,3.0,0.0,,,,right,0.7718325000023469,88.04178769991267,fd13,84.12487950001378,86.12456809997093,88.04178769991267,,True,5.0,['r'],False,0.375,0.5,0.25,1.0,2.0,0.9850568223215076,0.111593885149939,unsucc_cost,1.0,3.0,86.12456809997093,,fd13,2,2022-04-07_11h39.57.230,threat_forest,2021.2.3,60.01489571272593,True,59.0,0.3611111111111111,0.32698412698412693,-1.1404320987654322,-1.0945017636684304,1,1,1.0,-0.25898772140739684,0.111593885149939,0.375,0.375,0.5,0.25,0.25,0.25,5.25,5.25,0.0,2.0,-1.0,5.0,0,1,1,1,0.111593885149939
1.0,0.0,1.0,0.0,4.0,0.0,4.0,0.0,,,,right,0.9360008999938144,92.29185159993358,fd13,84.12487950001378,86.12456809997093,92.29185159993358,,True,3.0,['r'],False,0.375,0.5,0.25,1.0,2.0,0.9850568223215076,0.1532600308641976,succ_gain,1.0,5.0,90.8413670998998,,fd13,2,2022-04-07_11h39.57.230,threat_forest,2021.2.3,60.01489571272593,True,59.0,0.3611111111111111,0.32698412698412693,-1.1404320987654322,-1.0945017636684304,1,1,1.0,-0.06613884097315427,0.1532600308641976,0.375,0.375,0.5,0.25,0.25,0.25,3.25,3.25,0.0,2.0,-1.0,3.0,0,1,1,1,0.1532600308641976
1.0,0.0,1.0,0.0,5.0,0.0,5.0,0.0,,,,left,2.3417357000289485,98.00827649992424,fd13,84.12487950001378,86.12456809997093,98.00827649992424,,False,5.0,['r'],False,0.375,0.5,0.25,1.0,2.0,0.9850568223215076,-0.1688850308641975,wait_cost,1.0,4.0,95.25801989994945,,fd13,2,2022-04-07_11h39.57.230,threat_forest,2021.2.3,60.01489571272593,False,59.0,0.3611111111111111,0.32698412698412693,-1.1404320987654322,-1.0945017636684304,1,1,0.0,0.8508924065565687,-0.1688850308641975,0.0,0.375,0.5,0.25,0.25,0.25,5.25,5.25,0.0,2.0,1.0,5.0,0,0,1,1,-0.84
1.0,0.0,1.0,0.0,6.0,0.0,6.0,0.0,,,,right,0.5432669000001624,104.27563269995152,fd13,84.12487950001378,86.12456809997093,104.27563269995152,,True,4.0,['r'],False,0.375,0.5,0.25,1.0,2.0,0.9850568223215076,-0.181520061728395,unsucc_cost,1.0,2.0,102.37487499997953,,fd13,2,2022-04-07_11h39.57.230,threat_forest,2021.2.3,60.01489571272593,True,59.0,0.3611111111111111,0.32698412698412693,-1.1404320987654322,-1.0945017636684304,1,1,1.0,-0.6101545512633684,-0.181520061728395,0.0,0.375,0.5,0.25,0.25,0.25,4.25,4.25,0.0,2.0,-1.0,4.0,0,0,1,1,-0.84
1.0,0.0,1.0,0.0,7.0,0.0,7.0,0.0,,,,left,0.5330519999843091,108.01154559990393,fd13,84.12487950001378,86.12456809997093,108.01154559990393,,False,2.0,['r'],False,0.375,0.5,0.25,1.0,2.0,0.9850568223215076,-0.625,wait_cost,1.0,1.0,106.841592199984,,fd13,2,2022-04-07_11h39.57.230,threat_forest,2021.2.3,60.01489571272593,False,59.0,0.3611111111111111,0.32698412698412693,-1.1404320987654322,-1.0945017636684304,1,1,0.0,-0.6291362986288812,-0.625,0.0,0.375,0.5,0.25,0.25,0.25,2.25,2.25,0.0,2.0,-1.0,2.0,0,0,1,1,-0.84
2.0,0.0,2.0,0.0,0.0,0.0,0.0,0.0,114.08290509996004,117.59169869998004,,,,118.58952129993122,fd13,118.58952129993122,,114.08290509996004,117.59169869998004,True,4.0,['p'],True,0.27,0.3,0.1,1.0,1.0,0.7963326591781347,0.00800026338778,wait_cost,0.0,3.0,,,fd13,2,2022-04-07_11h39.57.230,threat_forest,2021.2.3,60.01489571272593,,6.0,0.4833333333333333,0.42222222222222217,-1.145,-1.1427160493827162,0,0,,,0.00800026338778,0.27,0.27,0.3,0.1,-0.3999999999999999,-0.29000000000000004,3.71,3.71,1.0,1.0,-1.0,4.0,0,1,0,0,0.00800026338778
2.0,0.0,2.0,0.0,1.0,0.0,1.0,0.0,,,,right,2.204736100044101,125.05883240001276,fd13,121.59243449999484,123.59175579994915,125.05883240001276,,True,3.0,['p'],False,0.4444444444444445,0.6666666666666666,0.3333333333333333,1.0,1.0,0.9656336071428248,0.0513976985299993,succ_gain,1.0,4.0,123.59175579994915,,fd13,2,2022-04-07_11h39.57.230,threat_forest,2021.2.3,60.01489571272593,True,6.0,0.4833333333333333,0.42222222222222217,-1.145,-1.1427160493827162,1,1,1.0,0.790607819216603,0.0513976985299993,0.4444444444444445,0.4444444444444445,0.6666666666666666,0.3333333333333333,0.0,0.0,3.0,3.0,0.0,1.0,-1.0,3.0,0,1,1,1,0.0513976985299993
2.0,0.0,2.0,0.0,2.0,0.0,2.0,0.0,,,,left,2.2436593000311404,132.72588189993985,fd13,121.59243449999484,123.59175579994915,132.72588189993985,,False,4.0,['p'],False,0.4444444444444445,0.6666666666666666,0.3333333333333333,1.0,1.0,0.9656336071428248,0.0584692485569717,wait_cost,1.0,3.0,129.2919164999621,,fd13,2,2022-04-07_11h39.57.230,threat_forest,2021.2.3,60.01489571272593,False,6.0,0.4833333333333333,0.42222222222222217,-1.145,-1.1427160493827162,1,1,0.0,0.808108149052955,0.0584692485569717,0.4444444444444445,0.4444444444444445,0.6666666666666666,0.3333333333333333,0.0,0.0,4.0,4.0,0.0,1.0,1.0,4.0,0,1,1,1,0.0584692485569717
2.0,0.0,2.0,0.0,3.0,0.0,3.0,0.0,,,,left,2.8940517000155523,139.3424164999742,fd13,121.59243449999484,123.59175579994915,139.3424164999742,,False,3.0,['p'],False,0.4444444444444445,0.6666666666666666,0.3333333333333333,1.0,1.0,0.9656336071428248,0.0954820524691357,wait_cost,1.0,2.0,136.9919188999338,,fd13,2,2022-04-07_11h39.57.230,threat_forest,2021.2.3,60.01489571272593,False,6.0,0.4833333333333333,0.42222222222222217,-1.145,-1.1427160493827162,1,1,0.0,1.0626574926024361,0.0954820524691357,0.4444444444444445,0.4444444444444445,0.6666666666666666,0.3333333333333333,0.0,0.0,3.0,3.0,0.0,1.0,-1.0,3.0,0,1,1,1,0.0954820524691357
2.0,0.0,2.0,0.0,4.0,0.0,4.0,0.0,,,,right,2.095077999983914,147.74260319990572,fd13,147.74260319990572,,142.25902639993,144.25875049992464,False,2.0,['p'],True,0.27,0.3,0.1,1.0,1.0,0.7963326591781347,-0.0056381574074073,wait_cost,0.0,1.0,144.25875049992464,,fd13,2,2022-04-07_11h39.57.230,threat_forest,2021.2.3,60.01489571272593,False,6.0,0.4833333333333333,0.42222222222222217,-1.145,-1.1427160493827162,0,0,0.0,0.7395907841769279,-0.0056381574074073,0.27,0.27,0.3,0.1,-0.3999999999999999,-0.29000000000000004,1.71,1.71,1.0,1.0,-1.0,2.0,0,1,0,0,-0.0056381574074073
2.0,0.0,2.0,0.0,5.0,0.0,5.0,0.0,,,,right,1.4671483000274748,155.54272589995526,fd13,149.85925759992097,151.85884619993158,155.54272589995526,,True,1.0,['p'],False,0.4444444444444445,0.6666666666666666,0.3333333333333333,1.0,1.0,0.9656336071428248,0.1781481481481481,fight_cost,1.0,0.0,151.85884619993158,,fd13,2,2022-04-07_11h39.57.230,threat_forest,2021.2.3,60.01489571272593,True,6.0,0.4833333333333333,0.42222222222222217,-1.145,-1.1427160493827162,1,1,1.0,0.38332058473146813,0.1781481481481481,1.0,0.4444444444444445,0.6666666666666666,0.3333333333333333,0.0,0.0,1.0,1.0,0.0,1.0,-1.0,1.0,1,1,1,1,0.625
3.0,0.0,3.0,0.0,0.0,0.0,0.0,0.0,161.866624499904,165.37572729995009,,,,167.50962579995394,fd13,161.866624499904,165.37572729995009,167.50962579995394,,True,4.0,['r'],False,0.4444444444444445,0.6666666666666666,0.3333333333333333,1.0,1.0,0.9656336071428248,0.0532959044563323,wait_cost,1.0,3.0,,,fd13,2,2022-04-07_11h39.57.230,threat_forest,2021.2.3,60.01489571272593,,23.0,0.43333333333333335,0.4583333333333333,-1.3600000000000003,-1.2525000000000002,1,0,,,0.0532959044563323,0.4444444444444445,0.4444444444444445,0.6666666666666666,0.3333333333333333,0.0,0.0,4.0,4.0,0.0,1.0,-1.0,4.0,0,1,0,1,0.0532959044563323
3.0,0.0,3.0,0.0,1.0,0.0,1.0,0.0,,,,right,0.8873982999939471,173.44508289999794,fd13,173.44508289999794,,170.50935389997903,172.50933059991803,False,3.0,['r'],True,0.16,0.2,0.2,2.0,1.0,0.8198746470064713,0.0002886459503123,wait_cost,0.0,2.0,172.50933059991803,,fd13,2,2022-04-07_11h39.57.230,threat_forest,2021.2.3,60.01489571272593,False,23.0,0.43333333333333335,0.4583333333333333,-1.3600000000000003,-1.2525000000000002,0,0,0.0,-0.11946135575479606,0.0002886459503123,0.16,0.16,0.2,0.2,-1.0,-0.7200000000000004,2.2799999999999994,2.2799999999999994,1.0,1.0,-1.0,3.0,0,1,0,0,0.0002886459503123
3.0,0.0,3.0,0.0,2.0,0.0,2.0,0.0,,,,right,0.7769134999252856,178.59318319999147,fd13,174.35956699994858,176.35925859992858,178.59318319999147,,True,2.0,['r'],False,0.4444444444444445,0.6666666666666666,0.3333333333333333,1.0,1.0,0.9656336071428248,0.0429449461972261,succ_gain,1.0,3.0,176.35925859992858,,fd13,2,2022-04-07_11h39.57.230,threat_forest,2021.2.3,60.01489571272593,True,23.0,0.43333333333333335,0.4583333333333333,-1.3600000000000003,-1.2525000000000002,1,0,1.0,-0.2524262605191393,0.0429449461972261,0.4444444444444445,0.4444444444444445,0.6666666666666666,0.3333333333333333,0.0,0.0,2.0,2.0,0.0,1.0,-1.0,2.0,0,1,0,1,0.0429449461972261
3.0,0.0,3.0,0.0,3.0,0.0,3.0,0.0,,,,right,1.4693008000031114,183.72744619997684,fd13,183.72744619997684,,179.392986599938,181.39270329999272,False,3.0,['r'],True,0.16,0.2,0.2,2.0,1.0,0.8198746470064713,-0.0019314128943759,wait_cost,0.0,2.0,181.39270329999272,,fd13,2,2022-04-07_11h39.57.230,threat_forest,2021.2.3,60.01489571272593,False,23.0,0.43333333333333335,0.4583333333333333,-1.3600000000000003,-1.2525000000000002,0,0,0.0,0.3847866413786947,-0.0019314128943759,0.16,0.16,0.2,0.2,-1.0,-0.7200000000000004,2.2799999999999994,2.2799999999999994,1.0,1.0,1.0,3.0,0,1,0,0,-0.0019314128943759
3.0,0.0,3.0,0.0,4.0,0.0,4.0,0.0,,,,right,1.733906300039962,190.9931949999882,fd13,190.9931949999882,,179.392986599938,181.39270329999272,False,2.0,['r'],True,0.16,0.2,0.2,2.0,1.0,0.8198746470064713,-0.0420345679012346,wait_cost,0.0,1.0,187.22613629989792,,fd13,2,2022-04-07_11h39.57.230,threat_forest,2021.2.3,60.01489571272593,False,23.0,0.43333333333333335,0.4583333333333333,-1.3600000000000003,-1.2525000000000002,0,0,0.0,0.5503768400124699,-0.0420345679012346,0.16,0.16,0.2,0.2,-1.0,-0.7200000000000004,1.2799999999999996,1.2799999999999996,1.0,1.0,-1.0,2.0,0,1,0,0,-0.0420345679012346
3.0,0.0,3.0,0.0,5.0,0.0,5.0,0.0,,,,right,2.133408399997279,195.52647529996463,fd13,192.7599911999423,194.75954449991696,195.52647529996463,,True,1.0,['r'],False,0.4444444444444445,0.6666666666666666,0.3333333333333333,1.0,1.0,0.9656336071428248,0.1659259259259259,succ_gain,1.0,2.0,194.75954449991696,,fd13,2,2022-04-07_11h39.57.230,threat_forest,2021.2.3,60.01489571272593,True,23.0,0.43333333333333335,0.4583333333333333,-1.3600000000000003,-1.2525000000000002,1,0,1.0,0.7577208885771756,0.1659259259259259,1.0,0.4444444444444445,0.6666666666666666,0.3333333333333333,0.0,0.0,1.0,1.0,0.0,1.0,-1.0,1.0,1,1,0,1,0.625
3.0,0.0,3.0,0.0,6.0,0.0,6.0,0.0,,,,right,1.699718900024891,201.99507109995463,fd13,201.99507109995463,,197.676923199906,199.6763190999627,False,2.0,['r'],True,0.16,0.2,0.2,2.0,1.0,0.8198746470064713,-0.1422222222222222,wait_cost,0.0,1.0,199.6763190999627,,fd13,2,2022-04-07_11h39.57.230,threat_forest,2021.2.3,60.01489571272593,False,23.0,0.43333333333333335,0.4583333333333333,-1.3600000000000003,-1.2525000000000002,0,0,0.0,0.5304628844633332,-0.1422222222222222,0.16,0.16,0.2,0.2,-1.0,-0.7200000000000004,1.2799999999999996,1.2799999999999996,1.0,1.0,1.0,2.0,0,1,0,0,-0.1422222222222222
3.0,0.0,3.0,0.0,7.0,0.0,7.0,0.0,,,,left,1.8827227000147104,206.32697429996915,fd13,203.72660119994543,205.72637549997307,206.32697429996915,,False,1.0,['r'],False,0.4444444444444445,0.6666666666666666,0.3333333333333333,1.0,1.0,0.9656336071428248,0.4444444444444444,wait_cost,1.0,0.0,205.72637549997307,,fd13,2,2022-04-07_11h39.57.230,threat_forest,2021.2.3,60.01489571272593,False,23.0,0.43333333333333335,0.4583333333333333,-1.3600000000000003,-1.2525000000000002,1,0,0.0,0.6327189738356181,0.4444444444444444,1.0,0.4444444444444445,0.6666666666666666,0.3333333333333333,0.0,0.0,1.0,1.0,0.0,1.0,-1.0,1.0,1,1,0,1,0.625
4.0,0.0,4.0,0.0,0.0,0.0,0.0,0.0,210.98214799992277,214.49315369990651,,,,216.1604113999056,fd13,210.98214799992277,214.49315369990651,216.1604113999056,,True,5.0,['p'],False,0.25,0.25,0.0,0.0,1.0,0.5118595071429148,0.0173976500804358,wait_cost,1.0,4.0,,,fd13,2,2022-04-07_11h39.57.230,threat_forest,2021.2.3,60.01489571272593,,32.0,0.26785714285714285,0.35059523809523807,-1.461734693877551,-1.4108673469387756,1,0,,,0.0173976500804358,0.25,0.25,0.25,0.0,-0.25,-0.25,4.75,4.75,0.0,1.0,-1.0,5.0,0,1,0,1,0.0173976500804358
4.0,0.0,4.0,0.0,1.0,0.0,1.0,0.0,,,,right,1.9185797000536693,222.51040759996977,fd13,222.51040759996977,,219.16015769995283,221.1601503000129,False,4.0,['p'],True,0.2040816326530612,0.2857142857142857,0.2857142857142857,2.0,1.0,0.9335459102197724,0.0053038590155829,wait_cost,0.0,3.0,221.1601503000129,,fd13,2,2022-04-07_11h39.57.230,threat_forest,2021.2.3,60.01489571272593,False,32.0,0.26785714285714285,0.35059523809523807,-1.461734693877551,-1.4108673469387756,0,0,0.0,0.6515851727419977,0.0053038590155829,0.2040816326530612,0.2040816326530612,0.2857142857142857,0.2857142857142857,-1.0,-0.6734693877551021,3.326530612244898,3.326530612244898,1.0,1.0,-1.0,4.0,0,1,0,0,0.0053038590155829
4.0,0.0,4.0,0.0,2.0,0.0,2.0,0.0,,,,left,1.4986226999899372,229.66034039994705,fd13,224.460476999986,226.45996329991613,229.66034039994705,,False,3.0,['p'],False,0.25,0.25,0.0,0.0,1.0,0.5118595071429148,0.0263589609050808,wait_cost,1.0,2.0,226.45996329991613,,fd13,2,2022-04-07_11h39.57.230,threat_forest,2021.2.3,60.01489571272593,False,32.0,0.26785714285714285,0.35059523809523807,-1.461734693877551,-1.4108673469387756,1,0,0.0,0.40454648629760975,0.0263589609050808,0.25,0.25,0.25,0.0,-0.25,-0.25,2.75,2.75,0.0,1.0,-1.0,3.0,0,1,0,1,0.0263589609050808
4.0,0.0,4.0,0.0,3.0,0.0,3.0,0.0,,,,right,0.9465190999908372,234.5604246999137,fd13,234.5604246999137,,231.17710450000595,233.17683249991387,False,2.0,['p'],True,0.2040816326530612,0.2857142857142857,0.2857142857142857,2.0,1.0,0.9335459102197724,-0.0001604182515363,wait_cost,0.0,1.0,233.17683249991387,,fd13,2,2022-04-07_11h39.57.230,threat_forest,2021.2.3,60.01489571272593,False,32.0,0.26785714285714285,0.35059523809523807,-1.461734693877551,-1.4108673469387756,0,0,0.0,-0.05496412893695954,-0.0001604182515363,0.2040816326530612,0.2040816326530612,0.2857142857142857,0.2857142857142857,-1.0,-0.6734693877551021,1.3265306122448979,1.3265306122448979,1.0,1.0,-1.0,2.0,0,1,0,0,-0.0001604182515363
4.0,0.0,4.0,0.0,4.0,0.0,4.0,0.0,,,,left,1.0710594999836758,238.66053389990705,fd13,235.5271991000045,237.5268929000013,238.66053389990705,,False,1.0,['p'],False,0.25,0.25,0.0,0.0,1.0,0.5118595071429148,0.0596301020408163,wait_cost,1.0,0.0,237.5268929000013,,fd13,2,2022-04-07_11h39.57.230,threat_forest,2021.2.3,60.01489571272593,False,32.0,0.26785714285714285,0.35059523809523807,-1.461734693877551,-1.4108673469387756,1,0,0.0,0.06864834546277336,0.0596301020408163,1.0,0.25,0.25,0.0,-0.25,-0.25,0.75,1.0,0.0,1.0,-1.0,1.0,1,1,0,1,0.625
5.0,0.0,5.0,0.0,0.0,0.0,0.0,0.0,245.4774801000021,248.9770273999311,,right,2.476879599969834,252.37776880001184,fd13,245.4774801000021,248.9770273999311,252.37776880001184,,True,4.0,['r'],False,0.5,0.5,0.0,0.0,2.0,0.6309297535714574,0.1161235291280864,unsucc_cost,1.0,2.0,,,fd13,2,2022-04-07_11h39.57.230,threat_forest,2021.2.3,60.01489571272593,True,49.0,0.5833333333333333,0.425595238095238,-0.888888888888889,-1.17531179138322,1,1,1.0,0.9069995421275637,0.1161235291280864,0.5,0.5,0.5,0.0,1.0,1.0,5.0,5.0,0.0,2.0,-1.0,4.0,0,1,1,1,0.1161235291280864
5.0,0.0,5.0,0.0,1.0,0.0,1.0,0.0,,,,right,0.965411499957554,259.2609287999803,fd13,245.4774801000021,248.9770273999311,259.2609287999803,,True,2.0,['r'],False,0.5,0.5,0.0,0.0,2.0,0.6309297535714574,0.1001251178840879,unsucc_cost,1.0,0.0,256.87717549991794,,fd13,2,2022-04-07_11h39.57.230,threat_forest,2021.2.3,60.01489571272593,True,49.0,0.5833333333333333,0.425595238095238,-0.888888888888889,-1.17531179138322,1,1,1.0,-0.03520084370989807,0.1001251178840879,0.5,0.5,0.5,0.0,1.0,1.0,3.0,3.0,0.0,2.0,-1.0,2.0,0,1,1,1,0.1001251178840879
6.0,0.0,6.0,0.0,0.0,0.0,0.0,0.0,262.88527619990055,266.39398289995734,,right,1.6974106000270694,267.5614307000069,fd13,262.88527619990055,266.39398289995734,267.5614307000069,,True,5.0,['r'],False,0.4081632653061224,0.5714285714285714,0.2857142857142857,2.0,2.0,0.9885754083994552,-0.0170150236195817,succ_gain,1.0,6.0,,,fd13,2,2022-04-07_11h39.57.230,threat_forest,2021.2.3,60.01489571272593,True,64.0,0.5357142857142857,0.5595238095238095,-0.326530612244898,-0.6077097505668935,0,0,1.0,0.5291039133949451,-0.0170150236195817,0.4081632653061224,0.4081632653061224,0.5714285714285714,0.2857142857142857,0.4285714285714285,0.346938775510204,5.346938775510204,5.346938775510204,0.0,2.0,-1.0,5.0,0,1,0,0,-0.0170150236195817
6.0,0.0,6.0,0.0,1.0,0.0,1.0,0.0,,,,right,1.663289099931717,274.82766869990155,fd13,274.82766869990155,,269.277614899911,271.27739379997365,False,6.0,['r'],True,0.5,0.5,0.0,0.0,2.0,0.6309297535714574,-0.0173681026789934,wait_cost,0.0,5.0,271.27739379997365,,fd13,2,2022-04-07_11h39.57.230,threat_forest,2021.2.3,60.01489571272593,False,64.0,0.5357142857142857,0.5595238095238095,-0.326530612244898,-0.6077097505668935,1,0,0.0,0.5087970275142868,-0.0173681026789934,0.5,0.5,0.5,0.0,1.0,1.0,7.0,7.0,1.0,2.0,1.0,6.0,0,1,0,1,-0.0173681026789934
6.0,0.0,6.0,0.0,2.0,0.0,2.0,0.0,,,,,,280.4779585999204,fd13,280.4779585999204,,269.277614899911,271.27739379997365,True,5.0,['r'],True,0.5,0.5,0.0,0.0,2.0,0.6309297535714574,0.0975307235914345,wait_cost,0.0,4.0,278.5108268999029,,fd13,2,2022-04-07_11h39.57.230,threat_forest,2021.2.3,60.01489571272593,,64.0,0.5357142857142857,0.5595238095238095,-0.326530612244898,-0.6077097505668935,1,0,,,0.0975307235914345,0.5,0.5,0.5,0.0,1.0,1.0,6.0,6.0,1.0,2.0,-1.0,5.0,0,1,0,1,0.0975307235914345
6.0,0.0,6.0,0.0,3.0,0.0,3.0,0.0,,,,right,1.824607499991544,288.6613024999388,fd13,283.47791779995896,285.4776162999915,288.6613024999388,,True,4.0,['r'],False,0.4081632653061224,0.5714285714285714,0.2857142857142857,2.0,2.0,0.9885754083994552,-0.0002517703993597,fight_cost,1.0,1.0,285.4776162999915,,fd13,2,2022-04-07_11h39.57.230,threat_forest,2021.2.3,60.01489571272593,True,64.0,0.5357142857142857,0.5595238095238095,-0.326530612244898,-0.6077097505668935,0,0,1.0,0.6013648954061249,-0.0002517703993597,0.4081632653061224,0.4081632653061224,0.5714285714285714,0.2857142857142857,0.4285714285714285,0.346938775510204,4.346938775510204,4.346938775510204,0.0,2.0,-1.0,4.0,0,1,0,0,-0.0002517703993597
6.0,0.0,6.0,0.0,4.0,0.0,4.0,0.0,,,,left,0.5326678999699652,295.3447054999415,fd13,295.3447054999415,,290.5112843000097,292.5110367999878,True,1.0,['r'],True,0.5,0.5,0.0,0.0,2.0,0.6309297535714574,0.3185521657642649,succ_gain,0.0,3.0,292.5110367999878,,fd13,2,2022-04-07_11h39.57.230,threat_forest,2021.2.3,60.01489571272593,True,64.0,0.5357142857142857,0.5595238095238095,-0.326530612244898,-0.6077097505668935,1,0,1.0,-0.62985712598885,0.3185521657642649,1.0,0.5,0.5,0.0,1.0,1.0,2.0,2.0,1.0,2.0,-1.0,1.0,1,1,0,1,0.625
6.0,0.0,6.0,0.0,5.0,0.0,5.0,0.0,,,,left,0.6109996000304818,301.6951191999251,fd13,301.6951191999251,,290.5112843000097,292.5110367999878,True,3.0,['r'],True,0.5,0.5,0.0,0.0,2.0,0.6309297535714574,0.25,unsucc_cost,0.0,1.0,297.89449509989936,,fd13,2,2022-04-07_11h39.57.230,threat_forest,2021.2.3,60.01489571272593,True,64.0,0.5357142857142857,0.5595238095238095,-0.326530612244898,-0.6077097505668935,1,0,1.0,-0.49265897442535206,0.25,0.5,0.5,0.5,0.0,1.0,1.0,4.0,4.0,1.0,2.0,1.0,3.0,0,1,0,1,0.25
6.0,0.0,6.0,0.0,6.0,0.0,6.0,0.0,,,,right,2.3263421000447124,305.61156629992183,fd13,302.328122899984,304.32786670001224,305.61156629992183,,True,1.0,['r'],False,0.4081632653061224,0.5714285714285714,0.2857142857142857,2.0,2.0,0.9885754083994552,0.4081632653061224,unsucc_cost,1.0,0.0,304.32786670001224,,fd13,2,2022-04-07_11h39.57.230,threat_forest,2021.2.3,60.01489571272593,True,64.0,0.5357142857142857,0.5595238095238095,-0.326530612244898,-0.6077097505668935,0,0,1.0,0.8442971198272261,0.4081632653061224,1.0,0.4081632653061224,0.5714285714285714,0.2857142857142857,0.4285714285714285,0.346938775510204,1.346938775510204,1.346938775510204,0.0,2.0,-1.0,1.0,1,1,0,0,0.625
7.0,0.0,7.0,0.0,0.0,0.0,0.0,0.0,313.603880599956,317.11141579994,,left,2.750763599993661,319.49542329995893,fd13,319.49542329995893,,313.603880599956,317.11141579994,True,4.0,['p'],True,0.2777777777777778,0.3333333333333333,0.1666666666666666,1.0,2.0,0.8929352898779304,0.0253296004142655,fight_cost,0.0,1.0,,,fd13,2,2022-04-07_11h39.57.230,threat_forest,2021.2.3,60.01489571272593,True,54.0,0.2777777777777778,0.40674603174603174,-1.1882716049382718,-0.7574011085915848,0,0,1.0,1.0118785458595114,0.0253296004142655,0.2777777777777778,0.2777777777777778,0.3333333333333333,0.1666666666666666,-0.16666666666666652,-0.05555555555555558,3.9444444444444446,3.9444444444444446,1.0,2.0,-1.0,4.0,0,1,0,0,0.0253296004142655
7.0,0.0,7.0,0.0,1.0,0.0,1.0,0.0,,,,right,0.9070548000745476,325.17946459993254,fd13,322.2783964999253,324.2783640999114,325.17946459993254,,True,1.0,['p'],False,0.1975308641975308,0.2222222222222222,0.1111111111111111,1.0,2.0,0.7461067557824965,0.0354209065348517,succ_gain,1.0,3.0,324.2783640999114,,fd13,2,2022-04-07_11h39.57.230,threat_forest,2021.2.3,60.01489571272593,True,54.0,0.2777777777777778,0.40674603174603174,-1.1882716049382718,-0.7574011085915848,0,0,1.0,-0.09755241164634972,0.0354209065348517,1.0,0.1975308641975308,0.2222222222222222,0.1111111111111111,-0.4444444444444444,-0.32098765432098775,0.6790123456790123,1.0,0.0,2.0,-1.0,1.0,1,1,0,0,0.625
7.0,0.0,7.0,0.0,2.0,0.0,2.0,0.0,,,,right,0.5603823999408633,330.4287282999139,fd13,322.2783964999253,324.2783640999114,330.4287282999139,,True,3.0,['p'],False,0.1975308641975308,0.2222222222222222,0.1111111111111111,1.0,2.0,0.7461067557824965,0.0591672944293482,unsucc_cost,1.0,1.0,328.11155829997733,,fd13,2,2022-04-07_11h39.57.230,threat_forest,2021.2.3,60.01489571272593,True,54.0,0.2777777777777778,0.40674603174603174,-1.1882716049382718,-0.7574011085915848,0,0,1.0,-0.57913587125647,0.0591672944293482,0.1975308641975308,0.1975308641975308,0.2222222222222222,0.1111111111111111,-0.4444444444444444,-0.32098765432098775,2.6790123456790123,2.6790123456790123,0.0,2.0,1.0,3.0,0,1,0,0,0.0591672944293482
7.0,0.0,7.0,0.0,3.0,0.0,3.0,0.0,,,,left,1.0236582000507042,336.5290321999928,fd13,322.2783964999253,324.2783640999114,336.5290321999928,,False,1.0,['p'],False,0.1975308641975308,0.2222222222222222,0.1111111111111111,1.0,2.0,0.7461067557824965,0.0762116584907826,wait_cost,1.0,0.0,333.011640099925,,fd13,2,2022-04-07_11h39.57.230,threat_forest,2021.2.3,60.01489571272593,False,54.0,0.2777777777777778,0.40674603174603174,-1.1882716049382718,-0.7574011085915848,0,0,0.0,0.023382681884379766,0.0762116584907826,1.0,0.1975308641975308,0.2222222222222222,0.1111111111111111,-0.4444444444444444,-0.32098765432098775,0.6790123456790123,1.0,0.0,2.0,-1.0,1.0,1,1,0,0,0.625
8.0,0.0,8.0,0.0,0.0,0.0,0.0,0.0,341.39938640000764,344.911750499974,,left,2.046388800023124,347.9959604999749,fd13,347.9959604999749,,341.39938640000764,344.911750499974,True,4.0,['r'],True,0.36,0.6,0.4,2.0,2.0,0.9801625908629508,-0.0020350304999999,unsucc_cost,0.0,2.0,,,fd13,2,2022-04-07_11h39.57.230,threat_forest,2021.2.3,60.01489571272593,True,18.0,0.55,0.4138888888888889,-0.4800000000000001,-0.8341358024691359,0,0,1.0,0.7160766788129627,-0.0020350304999999,0.36,0.36,0.6,0.4,0.19999999999999973,0.039999999999999813,4.04,4.04,1.0,2.0,-1.0,4.0,0,1,0,0,-0.0020350304999999
8.0,0.0,8.0,0.0,1.0,0.0,1.0,0.0,,,,left,1.3195709000574425,352.6123617999256,fd13,352.6123617999256,,341.39938640000764,344.911750499974,True,2.0,['r'],True,0.36,0.6,0.4,2.0,2.0,0.9801625908629508,-0.0195836249999998,succ_gain,0.0,4.0,352.0618715999881,,fd13,2,2022-04-07_11h39.57.230,threat_forest,2021.2.3,60.01489571272593,True,18.0,0.55,0.4138888888888889,-0.4800000000000001,-0.8341358024691359,0,0,1.0,0.2773066080356573,-0.0195836249999998,0.36,0.36,0.6,0.4,0.19999999999999973,0.039999999999999813,2.04,2.04,1.0,2.0,-1.0,2.0,0,1,0,0,-0.0195836249999998
8.0,0.0,8.0,0.0,2.0,0.0,2.0,0.0,,,,left,2.5512357000261545,357.4456790999975,fd13,357.4456790999975,,341.39938640000764,344.911750499974,True,4.0,['r'],True,0.36,0.6,0.4,2.0,2.0,0.9801625908629508,-0.012718,succ_gain,0.0,6.0,355.9619637998985,,fd13,2,2022-04-07_11h39.57.230,threat_forest,2021.2.3,60.01489571272593,True,18.0,0.55,0.4138888888888889,-0.4800000000000001,-0.8341358024691359,0,0,1.0,0.9365778300409192,-0.012718,0.36,0.36,0.6,0.4,0.19999999999999973,0.039999999999999813,4.04,4.04,1.0,2.0,1.0,4.0,0,1,0,0,-0.012718
8.0,0.0,8.0,0.0,3.0,0.0,3.0,0.0,,,,left,1.157852099975571,364.7795638999669,fd13,360.02897979994304,362.0286664000014,364.7795638999669,,False,6.0,['r'],False,0.5,0.5,0.0,0.0,2.0,0.6309297535714574,-0.155975,wait_cost,1.0,5.0,362.0286664000014,,fd13,2,2022-04-07_11h39.57.230,threat_forest,2021.2.3,60.01489571272593,False,18.0,0.55,0.4138888888888889,-0.4800000000000001,-0.8341358024691359,1,1,0.0,0.14656665076553088,-0.155975,0.0,0.5,0.5,0.0,1.0,1.0,7.0,7.0,0.0,2.0,1.0,6.0,0,0,1,1,-0.84
8.0,0.0,8.0,0.0,4.0,0.0,4.0,0.0,,,,left,0.3707716000499204,370.5293367999839,fd13,360.02897979994304,362.0286664000014,370.5293367999839,,False,5.0,['r'],False,0.5,0.5,0.0,0.0,2.0,0.6309297535714574,-0.205,wait_cost,1.0,4.0,367.9622462999541,,fd13,2,2022-04-07_11h39.57.230,threat_forest,2021.2.3,60.01489571272593,False,18.0,0.55,0.4138888888888889,-0.4800000000000001,-0.8341358024691359,1,1,0.0,-0.9921690392433111,-0.205,0.0,0.5,0.5,0.0,1.0,1.0,6.0,6.0,0.0,2.0,-1.0,5.0,0,0,1,1,-0.84
8.0,0.0,8.0,0.0,5.0,0.0,5.0,0.0,,,,right,1.5962060999590904,374.6458359999815,fd13,374.6458359999815,,370.9290898999898,372.92888939997647,False,4.0,['r'],True,0.36,0.6,0.4,2.0,2.0,0.9801625908629508,-0.3564,wait_cost,0.0,3.0,372.92888939997647,,fd13,2,2022-04-07_11h39.57.230,threat_forest,2021.2.3,60.01489571272593,False,18.0,0.55,0.4138888888888889,-0.4800000000000001,-0.8341358024691359,0,0,0.0,0.46762962600308355,-0.3564,0.0,0.36,0.6,0.4,0.19999999999999973,0.039999999999999813,4.04,4.04,1.0,2.0,-1.0,4.0,0,0,0,0,-0.84
8.0,0.0,8.0,0.0,6.0,0.0,6.0,0.0,,,,right,0.523206299985759,379.1959691999946,fd13,379.1959691999946,,370.9290898999898,372.92888939997647,False,3.0,['r'],True,0.36,0.6,0.4,2.0,2.0,0.9801625908629508,-0.5367999999999999,wait_cost,0.0,2.0,378.2622988999356,,fd13,2,2022-04-07_11h39.57.230,threat_forest,2021.2.3,60.01489571272593,False,18.0,0.55,0.4138888888888889,-0.4800000000000001,-0.8341358024691359,0,0,0.0,-0.6477794376544589,-0.5367999999999999,0.0,0.36,0.6,0.4,0.19999999999999973,0.039999999999999813,3.04,3.04,1.0,2.0,-1.0,3.0,0,0,0,0,-0.84
8.0,0.0,8.0,0.0,7.0,0.0,7.0,0.0,,,,left,0.8429029999533668,383.8132265999448,fd13,379.7460859999992,381.7456826999551,383.8132265999448,,False,2.0,['r'],False,0.5,0.5,0.0,0.0,2.0,0.6309297535714574,-0.5,wait_cost,1.0,1.0,381.7456826999551,,fd13,2,2022-04-07_11h39.57.230,threat_forest,2021.2.3,60.01489571272593,False,18.0,0.55,0.4138888888888889,-0.4800000000000001,-0.8341358024691359,1,1,0.0,-0.17090339289929818,-0.5,0.0,0.5,0.5,0.0,1.0,1.0,3.0,3.0,0.0,2.0,-1.0,2.0,0,0,1,1,-0.84
9.0,0.0,9.0,0.0,0.0,0.0,0.0,0.0,387.92424139997456,391.4291604999453,,left,1.889536099974066,392.19828329992015,fd13,387.92424139997456,391.4291604999453,392.19828329992015,,False,5.0,['r'],False,0.1728395061728395,0.2222222222222222,0.2222222222222222,2.0,2.0,0.8571721972794328,-0.0022646613356588,wait_cost,1.0,4.0,,,fd13,2,2022-04-07_11h39.57.230,threat_forest,2021.2.3,60.01489571272593,False,26.0,0.2111111111111111,0.3805555555555556,-1.3654320987654323,-0.9227160493827162,0,0,0.0,0.63633134919466,-0.0022646613356588,0.1728395061728395,0.1728395061728395,0.2222222222222222,0.2222222222222222,-0.7777777777777777,-0.5308641975308643,4.469135802469136,4.469135802469136,0.0,2.0,-1.0,5.0,0,1,0,0,-0.0022646613356588
9.0,0.0,9.0,0.0,1.0,0.0,1.0,0.0,,,,right,0.9125764999771492,397.5294717999641,fd13,397.5294717999641,,394.1130053999368,396.1125980999786,False,4.0,['r'],True,0.2,0.2,0.0,0.0,2.0,0.4554859150035951,0.0186273582673113,wait_cost,0.0,3.0,396.1125980999786,,fd13,2,2022-04-07_11h39.57.230,threat_forest,2021.2.3,60.01489571272593,False,26.0,0.2111111111111111,0.3805555555555556,-1.3654320987654323,-0.9227160493827162,0,0,0.0,-0.09148336144810092,0.0186273582673113,0.2,0.2,0.2,0.0,-0.20000000000000018,-0.20000000000000018,3.8,3.8,1.0,2.0,-1.0,4.0,0,1,0,0,0.0186273582673113
9.0,0.0,9.0,0.0,2.0,0.0,2.0,0.0,,,,right,0.6988185999216512,403.514000199968,fd13,398.46278880001046,400.46276779996697,403.514000199968,,True,3.0,['r'],False,0.1728395061728395,0.2222222222222222,0.2222222222222222,2.0,2.0,0.8571721972794328,0.0463406441921558,unsucc_cost,1.0,1.0,400.46276779996697,,fd13,2,2022-04-07_11h39.57.230,threat_forest,2021.2.3,60.01489571272593,True,26.0,0.2111111111111111,0.3805555555555556,-1.3654320987654323,-0.9227160493827162,0,0,1.0,-0.35836408413076587,0.0463406441921558,0.1728395061728395,0.1728395061728395,0.2222222222222222,0.2222222222222222,-0.7777777777777777,-0.5308641975308643,2.4691358024691357,2.4691358024691357,0.0,2.0,-1.0,3.0,0,1,0,0,0.0463406441921558
9.0,0.0,9.0,0.0,3.0,0.0,3.0,0.0,,,,left,1.024235700024292,408.8295761999907,fd13,408.8295761999907,,404.2298444999615,406.2293703999603,True,1.0,['r'],True,0.2,0.2,0.0,0.0,2.0,0.4554859150035951,0.0634747751867093,succ_gain,0.0,3.0,406.2293703999603,,fd13,2,2022-04-07_11h39.57.230,threat_forest,2021.2.3,60.01489571272593,True,26.0,0.2111111111111111,0.3805555555555556,-1.3654320987654323,-0.9227160493827162,0,0,1.0,0.023946675935902467,0.0634747751867093,1.0,0.2,0.2,0.0,-0.20000000000000018,-0.20000000000000018,0.7999999999999998,1.0,1.0,2.0,-1.0,1.0,1,1,0,0,0.625
9.0,0.0,9.0,0.0,4.0,0.0,4.0,0.0,,,,right,0.8904135000193492,414.47967799997423,fd13,414.47967799997423,,404.2298444999615,406.2293703999603,False,3.0,['r'],True,0.2,0.2,0.0,0.0,2.0,0.4554859150035951,0.1559259259259259,wait_cost,0.0,2.0,411.8795745999087,,fd13,2,2022-04-07_11h39.57.230,threat_forest,2021.2.3,60.01489571272593,False,26.0,0.2111111111111111,0.3805555555555556,-1.3654320987654323,-0.9227160493827162,0,0,0.0,-0.11606931738894186,0.1559259259259259,0.2,0.2,0.2,0.0,-0.20000000000000018,-0.20000000000000018,2.8,2.8,1.0,2.0,1.0,3.0,0,1,0,0,0.1559259259259259
9.0,0.0,9.0,0.0,5.0,0.0,5.0,0.0,,,,right,0.8320590999210253,420.3634975999594,fd13,415.3965774999233,417.3961857999675,420.3634975999594,,True,2.0,['r'],False,0.1728395061728395,0.2222222222222222,0.2222222222222222,2.0,2.0,0.8571721972794328,-0.0135802469135802,unsucc_cost,1.0,0.0,417.3961857999675,,fd13,2,2022-04-07_11h39.57.230,threat_forest,2021.2.3,60.01489571272593,True,26.0,0.2111111111111111,0.3805555555555556,-1.3654320987654323,-0.9227160493827162,0,0,1.0,-0.18385180712476756,-0.0135802469135802,0.1728395061728395,0.1728395061728395,0.2222222222222222,0.2222222222222222,-0.7777777777777777,-0.5308641975308643,1.4691358024691357,1.4691358024691357,0.0,2.0,-1.0,2.0,0,1,0,0,-0.0135802469135802
10.0,0.0,10.0,0.0,0.0,0.0,0.0,0.0,424.80525519989897,428.3130711999256,,right,2.33751670003403,431.1972905999282,fd13,431.1972905999282,,424.80525519989897,428.3130711999256,False,4.0,['r'],True,0.2777777777777778,0.3333333333333333,0.1666666666666666,1.0,2.0,0.8929352898779304,0.0216341378184502,wait_cost,0.0,3.0,,,fd13,2,2022-04-07_11h39.57.230,threat_forest,2021.2.3,60.01489571272593,False,37.0,0.26666666666666666,0.23888888888888887,-1.1277777777777778,-1.246604938271605,1,1,0.0,0.8490891265547689,0.0216341378184502,0.2777777777777778,0.2777777777777778,0.3333333333333333,0.1666666666666666,-0.16666666666666652,-0.05555555555555558,3.9444444444444446,3.9444444444444446,1.0,2.0,-1.0,4.0,0,1,1,1,0.0216341378184502
10.0,0.0,10.0,0.0,1.0,0.0,1.0,0.0,,,,right,1.2442173000890762,436.4802749999799,fd13,433.5633987999754,435.5631887000054,436.4802749999799,,True,3.0,['r'],False,0.2,0.2,0.0,0.0,2.0,0.4554859150035951,0.0423369907978965,succ_gain,1.0,5.0,435.5631887000054,,fd13,2,2022-04-07_11h39.57.230,threat_forest,2021.2.3,60.01489571272593,True,37.0,0.26666666666666666,0.23888888888888887,-1.1277777777777778,-1.246604938271605,1,0,1.0,0.21850665759066626,0.0423369907978965,0.2,0.2,0.2,0.0,-0.20000000000000018,-0.20000000000000018,2.8,2.8,0.0,2.0,-1.0,3.0,0,1,0,1,0.0423369907978965
10.0,0.0,10.0,0.0,2.0,0.0,2.0,0.0,,,,left,2.257677700021304,440.3805143999634,fd13,433.5633987999754,435.5631887000054,440.3805143999634,,False,5.0,['r'],False,0.2,0.2,0.0,0.0,2.0,0.4554859150035951,0.021066981786313,wait_cost,1.0,4.0,439.74665270000696,,fd13,2,2022-04-07_11h39.57.230,threat_forest,2021.2.3,60.01489571272593,False,37.0,0.26666666666666666,0.23888888888888887,-1.1277777777777778,-1.246604938271605,1,0,0.0,0.8143367186136797,0.021066981786313,0.2,0.2,0.2,0.0,-0.20000000000000018,-0.20000000000000018,4.8,4.8,0.0,2.0,1.0,5.0,0,1,0,1,0.021066981786313
10.0,0.0,10.0,0.0,3.0,0.0,3.0,0.0,,,,left,2.188561699935235,447.1969418999506,fd13,447.1969418999506,,442.6635514999507,444.6632999998983,True,4.0,['r'],True,0.2777777777777778,0.3333333333333333,0.1666666666666666,1.0,2.0,0.8929352898779304,0.0364517032464564,fight_cost,0.0,1.0,444.6632999998983,,fd13,2,2022-04-07_11h39.57.230,threat_forest,2021.2.3,60.01489571272593,True,37.0,0.26666666666666666,0.23888888888888887,-1.1277777777777778,-1.246604938271605,1,1,1.0,0.7832445700479469,0.0364517032464564,0.2777777777777778,0.2777777777777778,0.3333333333333333,0.1666666666666666,-0.16666666666666652,-0.05555555555555558,3.9444444444444446,3.9444444444444446,1.0,2.0,-1.0,4.0,0,1,1,1,0.0364517032464564
10.0,0.0,10.0,0.0,4.0,0.0,4.0,0.0,,,,right,0.6917618999723345,453.84704889997374,fd13,449.4139186999528,451.4134115999332,453.84704889997374,,True,1.0,['r'],False,0.2,0.2,0.0,0.0,2.0,0.4554859150035951,0.0801604938271604,unsucc_cost,1.0,0.0,451.4134115999332,,fd13,2,2022-04-07_11h39.57.230,threat_forest,2021.2.3,60.01489571272593,True,37.0,0.26666666666666666,0.23888888888888887,-1.1277777777777778,-1.246604938271605,1,0,1.0,-0.3685134577564031,0.0801604938271604,1.0,0.2,0.2,0.0,-0.20000000000000018,-0.20000000000000018,0.7999999999999998,1.0,0.0,2.0,-1.0,1.0,1,1,0,1,0.625
11.0,0.0,11.0,0.0,0.0,0.0,0.0,0.0,458.8671134999022,462.380312699941,,right,0.6224479000084102,464.66380209999625,fd13,458.8671134999022,462.380312699941,464.66380209999625,,True,5.0,['r'],False,0.36,0.6,0.4,2.0,2.0,0.9801625908629508,-0.0333353473,fight_cost,1.0,2.0,,,fd13,2,2022-04-07_11h39.57.230,threat_forest,2021.2.3,60.01489571272593,True,67.0,0.55,0.4083333333333333,-0.4800000000000001,-0.8038888888888889,0,0,1.0,-0.4740953489114828,-0.0333353473,0.36,0.36,0.6,0.4,0.19999999999999973,0.039999999999999813,5.04,5.04,0.0,2.0,-1.0,5.0,0,1,0,0,-0.0333353473
11.0,0.0,11.0,0.0,1.0,0.0,1.0,0.0,,,,left,1.4412436001002789,470.3640299999388,fd13,470.3640299999388,,465.31383489992,467.3136514999205,True,2.0,['r'],True,0.5,0.5,0.0,0.0,2.0,0.6309297535714574,0.0640913125000001,succ_gain,0.0,4.0,467.3136514999205,,fd13,2,2022-04-07_11h39.57.230,threat_forest,2021.2.3,60.01489571272593,True,67.0,0.55,0.4083333333333333,-0.4800000000000001,-0.8038888888888889,1,1,1.0,0.36550635207108445,0.0640913125000001,0.5,0.5,0.5,0.0,1.0,1.0,3.0,3.0,1.0,2.0,-1.0,2.0,0,1,1,1,0.0640913125000001
11.0,0.0,11.0,0.0,2.0,0.0,2.0,0.0,,,,left,0.5176448000129312,476.0807018999476,fd13,476.0807018999476,,465.31383489992,467.3136514999205,True,4.0,['r'],True,0.5,0.5,0.0,0.0,2.0,0.6309297535714574,0.10350625,unsucc_cost,0.0,2.0,473.830901099951,,fd13,2,2022-04-07_11h39.57.230,threat_forest,2021.2.3,60.01489571272593,True,67.0,0.55,0.4083333333333333,-0.4800000000000001,-0.8038888888888889,1,1,1.0,-0.6584659861929587,0.10350625,0.5,0.5,0.5,0.0,1.0,1.0,5.0,5.0,1.0,2.0,1.0,4.0,0,1,1,1,0.10350625
11.0,0.0,11.0,0.0,3.0,0.0,3.0,0.0,,,,left,0.5513218999840319,480.9807236999041,fd13,480.9807236999041,,465.31383489992,467.3136514999205,True,2.0,['r'],True,0.5,0.5,0.0,0.0,2.0,0.6309297535714574,0.0903250000000001,unsucc_cost,0.0,0.0,478.6306600999087,,fd13,2,2022-04-07_11h39.57.230,threat_forest,2021.2.3,60.01489571272593,True,67.0,0.55,0.4083333333333333,-0.4800000000000001,-0.8038888888888889,1,1,1.0,-0.5954364299164047,0.0903250000000001,0.5,0.5,0.5,0.0,1.0,1.0,3.0,3.0,1.0,2.0,-1.0,2.0,0,1,1,1,0.0903250000000001
12.0,0.0,12.0,0.0,0.0,0.0,0.0,0.0,484.33722119999584,487.8472894999432,,left,1.8105395999737084,490.66470039996784,fd13,490.66470039996784,,484.33722119999584,487.8472894999432,True,4.0,['r'],True,0.36,0.6,0.4,2.0,1.0,0.9801625908629508,0.0090639294214999,unsucc_cost,0.0,2.0,,,fd13,2,2022-04-07_11h39.57.230,threat_forest,2021.2.3,60.01489571272593,True,24.0,0.55,0.55,-0.9100000000000001,-0.6950000000000001,0,0,1.0,0.5936249223807759,0.0090639294214999,0.36,0.36,0.6,0.4,-0.40000000000000036,-0.3200000000000003,3.6799999999999997,3.6799999999999997,1.0,1.0,-1.0,4.0,0,1,0,0,0.0090639294214999
12.0,0.0,12.0,0.0,1.0,0.0,1.0,0.0,,,,right,1.973903500009328,496.1315823999466,fd13,496.1315823999466,,484.33722119999584,487.8472894999432,False,2.0,['r'],True,0.36,0.6,0.4,2.0,1.0,0.9801625908629508,0.0040319874499998,wait_cost,0.0,1.0,494.4973852999974,,fd13,2,2022-04-07_11h39.57.230,threat_forest,2021.2.3,60.01489571272593,False,24.0,0.55,0.55,-0.9100000000000001,-0.6950000000000001,0,0,0.0,0.6800130543094284,0.0040319874499998,0.36,0.36,0.6,0.4,-0.40000000000000036,-0.3200000000000003,1.6799999999999997,1.6799999999999997,1.0,1.0,-1.0,2.0,0,1,0,0,0.0040319874499998
12.0,0.0,12.0,0.0,2.0,0.0,2.0,0.0,,,,right,1.5952487000031397,502.91444679989945,fd13,498.1309106999543,500.130746299983,502.91444679989945,,True,1.0,['r'],False,0.5,0.5,0.0,0.0,1.0,0.6309297535714574,0.1165484374999999,unsucc_cost,1.0,0.0,500.130746299983,,fd13,2,2022-04-07_11h39.57.230,threat_forest,2021.2.3,60.01489571272593,True,24.0,0.55,0.55,-0.9100000000000001,-0.6950000000000001,1,0,1.0,0.46702964884866366,0.1165484374999999,1.0,0.5,0.5,0.0,0.5,0.5,1.5,1.5,0.0,1.0,-1.0,1.0,1,1,0,1,0.625
13.0,0.0,13.0,0.0,0.0,0.0,0.0,0.0,507.855235499912,511.364225499914,,right,0.7880203999811783,514.5149458999513,fd13,507.855235499912,511.364225499914,514.5149458999513,,True,5.0,['p'],False,0.4081632653061224,0.5714285714285714,0.2857142857142857,2.0,1.0,0.9885754083994552,-0.0004231906775603,succ_gain,1.0,6.0,,,fd13,2,2022-04-07_11h39.57.230,threat_forest,2021.2.3,60.01489571272593,True,35.0,0.5357142857142857,0.5428571428571429,-0.7806122448979592,-0.8453061224489797,0,0,1.0,-0.23823130115836647,-0.0004231906775603,0.4081632653061224,0.4081632653061224,0.5714285714285714,0.2857142857142857,-0.1428571428571428,-0.061224489795918435,4.938775510204081,4.938775510204081,0.0,1.0,-1.0,5.0,0,1,0,0,-0.0004231906775603
13.0,0.0,13.0,0.0,1.0,0.0,1.0,0.0,,,,right,1.439155999920331,520.8815141000086,fd13,520.8815141000086,,515.3312503999332,517.3310060999356,False,6.0,['p'],True,0.5,0.5,0.0,0.0,1.0,0.6309297535714574,-0.0434388067740604,wait_cost,0.0,5.0,517.3310060999356,,fd13,2,2022-04-07_11h39.57.230,threat_forest,2021.2.3,60.01489571272593,False,35.0,0.5357142857142857,0.5428571428571429,-0.7806122448979592,-0.8453061224489797,1,0,0.0,0.3640568305911783,-0.0434388067740604,0.5,0.5,0.5,0.0,0.5,0.5,6.5,6.5,1.0,1.0,1.0,6.0,0,1,0,1,-0.0434388067740604
13.0,0.0,13.0,0.0,2.0,0.0,2.0,0.0,,,,right,0.8621414999943227,526.3316513999598,fd13,526.3316513999598,,515.3312503999332,517.3310060999356,False,5.0,['p'],True,0.5,0.5,0.0,0.0,1.0,0.6309297535714574,0.0981848763621676,wait_cost,0.0,4.0,524.3477950999513,,fd13,2,2022-04-07_11h39.57.230,threat_forest,2021.2.3,60.01489571272593,False,35.0,0.5357142857142857,0.5428571428571429,-0.7806122448979592,-0.8453061224489797,1,0,0.0,-0.1483358686644297,0.0981848763621676,0.5,0.5,0.5,0.0,0.5,0.5,5.5,5.5,1.0,1.0,-1.0,5.0,0,1,0,1,0.0981848763621676
13.0,0.0,13.0,0.0,3.0,0.0,3.0,0.0,,,,right,2.288812500075437,530.0980923000025,fd13,530.0980923000025,,515.3312503999332,517.3310060999356,False,4.0,['p'],True,0.5,0.5,0.0,0.0,1.0,0.6309297535714574,0.1019744111722156,wait_cost,0.0,3.0,529.2145420999732,,fd13,2,2022-04-07_11h39.57.230,threat_forest,2021.2.3,60.01489571272593,False,35.0,0.5357142857142857,0.5428571428571429,-0.7806122448979592,-0.8453061224489797,1,0,0.0,0.8280331241489501,0.1019744111722156,0.5,0.5,0.5,0.0,0.5,0.5,4.5,4.5,1.0,1.0,-1.0,4.0,0,1,0,1,0.1019744111722156
13.0,0.0,13.0,0.0,4.0,0.0,4.0,0.0,,,,right,1.0986902000149712,534.9983077999204,fd13,534.9983077999204,,515.3312503999332,517.3310060999356,False,3.0,['p'],True,0.5,0.5,0.0,0.0,1.0,0.6309297535714574,0.1312669200333194,wait_cost,0.0,2.0,534.4146339999279,,fd13,2,2022-04-07_11h39.57.230,threat_forest,2021.2.3,60.01489571272593,False,35.0,0.5357142857142857,0.5428571428571429,-0.7806122448979592,-0.8453061224489797,1,0,0.0,0.09411874306625176,0.1312669200333194,0.5,0.5,0.5,0.0,0.5,0.5,3.5,3.5,1.0,1.0,-1.0,3.0,0,1,0,1,0.1312669200333194
13.0,0.0,13.0,0.0,5.0,0.0,5.0,0.0,,,,right,0.9401316998992116,540.6482579999138,fd13,536.1148229999235,538.114714999916,540.6482579999138,,True,2.0,['p'],False,0.4081632653061224,0.5714285714285714,0.2857142857142857,2.0,1.0,0.9885754083994552,-0.0459183673469387,succ_gain,1.0,3.0,538.114714999916,,fd13,2,2022-04-07_11h39.57.230,threat_forest,2021.2.3,60.01489571272593,True,35.0,0.5357142857142857,0.5428571428571429,-0.7806122448979592,-0.8453061224489797,0,0,1.0,-0.06173530725629801,-0.0459183673469387,0.4081632653061224,0.4081632653061224,0.5714285714285714,0.2857142857142857,-0.1428571428571428,-0.061224489795918435,1.9387755102040816,1.9387755102040816,0.0,1.0,-1.0,2.0,0,1,0,0,-0.0459183673469387
13.0,0.0,13.0,0.0,6.0,0.0,6.0,0.0,,,,right,1.0845962000312284,546.6986272999784,fd13,546.6986272999784,,541.6149508999661,543.6147295999108,False,3.0,['p'],True,0.5,0.5,0.0,0.0,1.0,0.6309297535714574,-0.2729591836734694,wait_cost,0.0,2.0,543.6147295999108,,fd13,2,2022-04-07_11h39.57.230,threat_forest,2021.2.3,60.01489571272593,False,35.0,0.5357142857142857,0.5428571428571429,-0.7806122448979592,-0.8453061224489797,1,0,0.0,0.08120775185168255,-0.2729591836734694,0.0,0.5,0.5,0.0,0.5,0.5,3.5,3.5,1.0,1.0,1.0,3.0,0,0,0,1,-0.84
13.0,0.0,13.0,0.0,7.0,0.0,7.0,0.0,,,,right,0.8509982000105083,553.2317214999348,fd13,553.2317214999348,,541.6149508999661,543.6147295999108,False,2.0,['p'],True,0.5,0.5,0.0,0.0,1.0,0.6309297535714574,-0.5,wait_cost,0.0,1.0,549.8154208000051,,fd13,2,2022-04-07_11h39.57.230,threat_forest,2021.2.3,60.01489571272593,False,35.0,0.5357142857142857,0.5428571428571429,-0.7806122448979592,-0.8453061224489797,1,0,0.0,-0.16134526555728856,-0.5,0.0,0.5,0.5,0.0,0.5,0.5,2.5,2.5,1.0,1.0,-1.0,2.0,0,0,0,1,-0.84
