miniblock.thisRepN,miniblock.thisTrialN,miniblock.thisN,miniblock.thisIndex,day.thisRepN,day.thisTrialN,day.thisN,day.thisIndex,forest.started,fixation_forest.started,fixation_forest.stopped,key_resp.keys,key_resp.rt,key_resp.started,Subject_ID,weather_left.started,weather_left.stopped,weather_right.started,weather_right.stopped,foraging T/F,in_LP,p/r heuristic,good_weather.T/F,p_succ_correct,p_succ_uncorrected,r_threat,n_oponents,gain_if_succ,weather_entropy,OP_value_difference,action_outcome,forest_side_L=0_R=1,out_LP,fixation_day.started,fixation_day.stopped,participant,session,date,expName,psychopyVersion,frameRate,foraging T/F NaNs,fora_NR,forest_mean_p,mvt_cutoff_p,forest_mean_ev,mvt_cutoff_ev,mvt_policy_eg,mvt_policy_p,fora_response,logRT,optimal policy,$\mathit{p}$ success cor + cap,$\mathit{p}$ success cor,$\mathit{p}$ success,risk threat encounter,expected gain naive,expected gain correct,expected state no bounds,expected state with bounds,weather type,gain magnitude,win stay lose shift,continuous energy state,binary energy state,$\mathit{p}$ success based MVT,expected gain based MVT
0.0,0.0,0.0,0.0,0.0,0.0,0.0,0.0,27.59787599999981,31.098168100000294,None,left,1.1492470000002868,34.83265519999986,wp8,34.83265519999986,None,27.59787599999981,31.098168100000294,True,4.0,['p'],True,0.4444444444444445,0.6666666666666666,0.3333333333333333,1.0,2.0,0.9656336071428248,0.0822356493687493,succ_gain,0.0,6.0,,,wp8,1,2023-04-18_11h23.46.740,threat_forest,2021.2.3,60.11074804224691,True,21.0,0.47619047619047616,0.47619047619047616,-1.012471655328798,-1.012471655328798,1,0,1,0.13910694530295706,0.0822356493687493,0.4444444444444445,0.4444444444444445,0.6666666666666666,0.6666666666666667,-0.3333333333333335,-0.5555555555555556,3.4444444444444446,3.4444444444444446,1.0,2.0,,4.0,0,0,1
0.0,0.0,0.0,0.0,1.0,0.0,1.0,0.0,,,,right,0.5813062999995964,39.19098579999991,wp8,39.19098579999991,None,27.59787599999981,31.098168100000294,False,6.0,['p'],True,0.4444444444444445,0.6666666666666666,0.3333333333333333,1.0,2.0,0.9656336071428248,-0.0745100407362003,wait_cost,0.0,5.0,38.02506530000028,None,wp8,1,2023-04-18_11h23.46.740,threat_forest,2021.2.3,60.11074804224691,False,21.0,0.47619047619047616,0.47619047619047616,-1.012471655328798,-1.012471655328798,1,0,0,-0.5424774665568594,-0.0745100407362003,0.4444444444444445,0.4444444444444445,0.6666666666666666,0.6666666666666667,-0.3333333333333335,-0.5555555555555556,5.444444444444445,5.444444444444445,1.0,2.0,1.0,6.0,0,0,1
0.0,0.0,0.0,0.0,2.0,0.0,2.0,0.0,,,,right,0.5064039999997476,45.2854883,wp8,45.2854883,None,27.59787599999981,31.098168100000294,False,5.0,['p'],True,0.4444444444444445,0.6666666666666666,0.3333333333333333,1.0,2.0,0.9656336071428248,0.0918775427186178,wait_cost,0.0,4.0,41.80483650000042,None,wp8,1,2023-04-18_11h23.46.740,threat_forest,2021.2.3,60.11074804224691,False,21.0,0.47619047619047616,0.47619047619047616,-1.012471655328798,-1.012471655328798,1,0,0,-0.6804205092897103,0.0918775427186178,0.4444444444444445,0.4444444444444445,0.6666666666666666,0.6666666666666667,-0.3333333333333335,-0.5555555555555556,4.444444444444445,4.444444444444445,1.0,2.0,-1.0,5.0,0,0,1
0.0,0.0,0.0,0.0,3.0,0.0,3.0,0.0,,,,right,1.224311499999203,49.53481800000009,wp8,45.81794350000018,47.83250109999972,49.53481800000009,None,True,4.0,['p'],False,0.2040816326530612,0.2857142857142857,0.2857142857142857,2.0,2.0,0.9335459102197724,-0.0085171946857663,figh_cost,1.0,1.0,47.83250109999972,None,wp8,1,2023-04-18_11h23.46.740,threat_forest,2021.2.3,60.11074804224691,True,21.0,0.47619047619047616,0.47619047619047616,-1.012471655328798,-1.012471655328798,0,0,1,0.2023786451755673,-0.0085171946857663,0.2040816326530612,0.2040816326530612,0.2857142857142857,0.7142857142857143,-1.7142857142857144,-1.4693877551020407,2.5306122448979593,2.5306122448979593,0.0,2.0,-1.0,4.0,0,0,0
0.0,0.0,0.0,0.0,4.0,0.0,4.0,0.0,,,,left,0.5761864999994941,54.77629390000038,wp8,54.77629390000038,None,50.78005970000049,52.77786780000042,True,1.0,['p'],True,0.4444444444444445,0.6666666666666666,0.3333333333333333,1.0,2.0,0.9656336071428248,0.2001903642115282,figh_cost,0.0,0.0,52.77786780000042,None,wp8,1,2023-04-18_11h23.46.740,threat_forest,2021.2.3,60.11074804224691,True,21.0,0.47619047619047616,0.47619047619047616,-1.012471655328798,-1.012471655328798,1,0,1,-0.5513238859718627,0.2001903642115282,1.0,0.4444444444444445,0.6666666666666666,0.6666666666666667,-0.3333333333333335,-0.5555555555555556,0.4444444444444444,0.4444444444444444,1.0,2.0,-1.0,1.0,1,0,1
1.0,0.0,1.0,0.0,0.0,0.0,0.0,0.0,60.665927799999736,64.16720220000025,None,right,0.9610436000002665,67.74777749999976,wp8,60.665927799999736,64.16720220000025,67.74777749999976,None,True,5.0,['r'],False,0.25,0.25,0.0,0.0,2.0,0.5118595071429148,0.0218437876829995,unsucc_cost,1.0,3.0,,,wp8,1,2023-04-18_11h23.46.740,threat_forest,2021.2.3,60.11074804224691,True,34.0,0.4583333333333333,0.46726190476190477,-1.3888888888888888,-1.2006802721088434,1,0,1,-0.039735501633859874,0.0218437876829995,0.25,0.25,0.25,1.0,-1.0,-1.0,4.0,4.0,0.0,2.0,-1.0,5.0,0,0,1
1.0,0.0,1.0,0.0,1.0,0.0,1.0,0.0,,,,left,0.8525200999993103,73.09298620000027,wp8,60.665927799999736,64.16720220000025,73.09298620000027,None,False,3.0,['r'],False,0.25,0.25,0.0,0.0,2.0,0.5118595071429148,0.0633364704901298,wait_cost,1.0,2.0,70.74440680000043,None,wp8,1,2023-04-18_11h23.46.740,threat_forest,2021.2.3,60.11074804224691,False,34.0,0.4583333333333333,0.46726190476190477,-1.3888888888888888,-1.2006802721088434,1,0,0,-0.1595584923906141,0.0633364704901298,0.25,0.25,0.25,1.0,-1.0,-1.0,2.0,2.0,0.0,2.0,-1.0,3.0,0,0,1
1.0,0.0,1.0,0.0,2.0,0.0,2.0,0.0,,,,left,0.7482064000005266,78.35456119999981,wp8,60.665927799999736,64.16720220000025,78.35456119999981,None,False,2.0,['r'],False,0.25,0.25,0.0,0.0,2.0,0.5118595071429148,0.0165064514746228,wait_cost,1.0,1.0,75.98956369999996,None,wp8,1,2023-04-18_11h23.46.740,threat_forest,2021.2.3,60.11074804224691,False,34.0,0.4583333333333333,0.46726190476190477,-1.3888888888888888,-1.2006802721088434,1,0,0,-0.2900764032413679,0.0165064514746228,0.25,0.25,0.25,1.0,-1.0,-1.0,1.0,1.0,0.0,2.0,-1.0,2.0,0,0,1
1.0,0.0,1.0,0.0,3.0,0.0,3.0,0.0,,,,left,0.9204939999999624,83.14975549999963,wp8,83.14975549999963,None,79.12019820000023,81.13467430000037,True,1.0,['r'],True,0.2222222222222222,0.6666666666666666,0.6666666666666666,2.0,2.0,0.77250688571426,0.0750600137174211,succ_gain,0.0,3.0,81.13467430000037,None,wp8,1,2023-04-18_11h23.46.740,threat_forest,2021.2.3,60.11074804224691,True,34.0,0.4583333333333333,0.46726190476190477,-1.3888888888888888,-1.2006802721088434,0,0,1,-0.08284479652692116,0.0750600137174211,1.0,0.2222222222222222,0.6666666666666666,0.33333333333333337,-1.3333333333333335,-1.777777777777778,-0.7777777777777779,0.0,1.0,2.0,-1.0,1.0,1,0,0
1.0,0.0,1.0,0.0,4.0,0.0,4.0,0.0,,,,right,1.0167492999999013,88.6447347000003,wp8,84.09890460000042,86.11338179999984,88.6447347000003,None,True,3.0,['r'],False,0.25,0.25,0.0,0.0,2.0,0.5118595071429148,0.1840277777777776,unsucc_cost,1.0,1.0,86.11338179999984,None,wp8,1,2023-04-18_11h23.46.740,threat_forest,2021.2.3,60.11074804224691,True,34.0,0.4583333333333333,0.46726190476190477,-1.3888888888888888,-1.2006802721088434,1,0,1,0.016610577336704416,0.1840277777777776,0.25,0.25,0.25,1.0,-1.0,-1.0,2.0,2.0,0.0,2.0,1.0,3.0,0,0,1
1.0,0.0,1.0,0.0,5.0,0.0,5.0,0.0,,,,left,0.6854008999998769,94.3725886000002,wp8,84.09890460000042,86.11338179999984,94.3725886000002,None,False,1.0,['r'],False,0.25,0.25,0.0,0.0,2.0,0.5118595071429148,0.25,wait_cost,1.0,0.0,91.70811870000034,None,wp8,1,2023-04-18_11h23.46.740,threat_forest,2021.2.3,60.11074804224691,False,34.0,0.4583333333333333,0.46726190476190477,-1.3888888888888888,-1.2006802721088434,1,0,0,-0.377751356440832,0.25,1.0,0.25,0.25,1.0,-1.0,-1.0,0.0,0.0,0.0,2.0,-1.0,1.0,1,0,1
2.0,0.0,2.0,0.0,0.0,0.0,0.0,0.0,99.15384670000005,102.6645053000002,None,right,0.7332672000002276,103.93064930000035,wp8,99.15384670000005,102.6645053000002,103.93064930000035,None,True,5.0,['r'],False,0.5,0.5,0.0,0.0,1.0,0.6309297535714574,0.0772781267414693,unsucc_cost,1.0,3.0,,,wp8,1,2023-04-18_11h23.46.740,threat_forest,2021.2.3,60.11074804224691,True,30.0,0.5833333333333333,0.5208333333333333,-1.25,-1.3194444444444444,1,0,1,-0.3102451141883356,0.0772781267414693,0.5,0.5,0.5,1.0,-0.5,-0.5,4.5,4.5,0.0,1.0,-1.0,5.0,0,0,1
2.0,0.0,2.0,0.0,1.0,0.0,1.0,0.0,,,,right,0.6245350999997754,109.67526640000052,wp8,99.15384670000005,102.6645053000002,109.67526640000052,None,True,3.0,['r'],False,0.5,0.5,0.0,0.0,1.0,0.6309297535714574,0.1098696443115568,succ_gain,1.0,4.0,106.71078080000008,None,wp8,1,2023-04-18_11h23.46.740,threat_forest,2021.2.3,60.11074804224691,True,30.0,0.5833333333333333,0.5208333333333333,-1.25,-1.3194444444444444,1,0,1,-0.47074774603233294,0.1098696443115568,0.5,0.5,0.5,1.0,-0.5,-0.5,2.5,2.5,0.0,1.0,-1.0,3.0,0,0,1
2.0,0.0,2.0,0.0,2.0,0.0,2.0,0.0,,,,left,1.05517189999955,116.0023798000002,wp8,116.0023798000002,None,110.32434590000048,112.33887059999961,True,4.0,['r'],True,0.2222222222222222,0.6666666666666666,0.6666666666666666,2.0,1.0,0.77250688571426,-0.0770792252514861,figh_cost,0.0,1.0,112.3388705999996,None,wp8,1,2023-04-18_11h23.46.740,threat_forest,2021.2.3,60.11074804224691,True,30.0,0.5833333333333333,0.5208333333333333,-1.25,-1.3194444444444444,0,0,1,0.05370369204321154,-0.0770792252514861,0.2222222222222222,0.2222222222222222,0.6666666666666666,0.33333333333333337,-2.0,-2.0,2.0,2.0,1.0,1.0,1.0,4.0,0,0,0
2.0,0.0,2.0,0.0,3.0,0.0,3.0,0.0,,,,right,0.8934574000004432,122.66282620000038,wp8,117.0848108,119.09917419999965,122.66282620000038,None,True,1.0,['r'],False,0.5,0.5,0.0,0.0,1.0,0.6309297535714574,0.1083140432098765,unsucc_cost,1.0,0.0,119.09917419999964,None,wp8,1,2023-04-18_11h23.46.740,threat_forest,2021.2.3,60.11074804224691,True,30.0,0.5833333333333333,0.5208333333333333,-1.25,-1.3194444444444444,1,0,1,-0.11265662319085076,0.1083140432098765,1.0,0.5,0.5,1.0,-0.5,-0.5,0.5,0.5,0.0,1.0,-1.0,1.0,1,0,1
3.0,0.0,3.0,0.0,0.0,0.0,0.0,0.0,126.33744260000005,129.83013130000018,None,right,0.7677797000005739,132.6537140999999,wp8,126.33744260000005,129.83013130000018,132.6537140999999,None,True,5.0,['r'],False,0.4285714285714285,0.4285714285714285,0.0,0.0,2.0,0.6216097450797565,0.0526055132283747,unsucc_cost,1.0,3.0,,,wp8,1,2023-04-18_11h23.46.740,threat_forest,2021.2.3,60.11074804224691,True,52.0,0.43650793650793646,0.5099206349206349,-0.5626102292768962,-0.9063051146384481,1,0,1,-0.2642524359410824,0.0526055132283747,0.4285714285714285,0.4285714285714285,0.4285714285714285,1.0,-0.28571428571428603,-0.28571428571428603,4.7142857142857135,4.7142857142857135,0.0,2.0,-1.0,5.0,0,0,1
3.0,0.0,3.0,0.0,1.0,0.0,1.0,0.0,,,,left,0.6677495000003546,139.16766910000024,wp8,139.16766910000024,None,133.4529736000004,135.46730370000023,True,3.0,['r'],True,0.345679012345679,0.4444444444444444,0.2222222222222222,2.0,2.0,0.9685033186841367,0.0688188688757238,unsucc_cost,0.0,1.0,135.46730370000023,None,wp8,1,2023-04-18_11h23.46.740,threat_forest,2021.2.3,60.11074804224691,True,52.0,0.43650793650793646,0.5099206349206349,-0.5626102292768962,-0.9063051146384481,1,0,1,-0.40384217577504333,0.0688188688757238,0.345679012345679,0.345679012345679,0.4444444444444444,0.7777777777777778,-0.888888888888889,-0.8395061728395062,2.1604938271604937,2.1604938271604937,1.0,2.0,-1.0,3.0,0,0,1
3.0,0.0,3.0,0.0,2.0,0.0,2.0,0.0,,,,left,0.770154800000455,143.01048530000023,wp8,143.01048530000023,None,133.4529736000004,135.46730370000023,True,1.0,['r'],True,0.345679012345679,0.4444444444444444,0.2222222222222222,2.0,2.0,0.9685033186841367,0.1728580921228106,unsucc_cost,0.0,0.0,141.8779671000002,None,wp8,1,2023-04-18_11h23.46.740,threat_forest,2021.2.3,60.11074804224691,True,52.0,0.43650793650793646,0.5099206349206349,-0.5626102292768962,-0.9063051146384481,1,0,1,-0.26116374537840165,0.1728580921228106,1.0,0.345679012345679,0.4444444444444444,0.7777777777777778,-0.888888888888889,-0.8395061728395062,0.16049382716049376,0.16049382716049376,1.0,2.0,-1.0,1.0,1,0,1
4.0,0.0,4.0,0.0,0.0,0.0,0.0,0.0,146.8499068000001,150.35336350000034,None,right,0.6197333000000071,153.33559570000034,wp8,146.8499068000001,150.35336350000034,153.33559570000034,None,True,4.0,['r'],False,0.3061224489795918,0.4285714285714285,0.2857142857142857,2.0,1.0,0.9885754083994552,0.0089248953748402,figh_cost,1.0,1.0,,,wp8,1,2023-04-18_11h23.46.740,threat_forest,2021.2.3,60.11074804224691,True,36.0,0.41428571428571426,0.42539682539682533,-1.083673469387755,-0.8231418493323256,0,0,1,-0.47846605477921944,0.0089248953748402,0.3061224489795918,0.3061224489795918,0.4285714285714285,0.7142857142857143,-1.5714285714285716,-1.3673469387755102,2.63265306122449,2.63265306122449,0.0,1.0,-1.0,4.0,0,0,0
4.0,0.0,4.0,0.0,1.0,0.0,1.0,0.0,,,,right,0.5758598000002166,158.4627448000001,wp8,146.8499068000001,150.35336350000034,158.4627448000001,None,True,1.0,['r'],False,0.3061224489795918,0.4285714285714285,0.2857142857142857,2.0,1.0,0.9885754083994552,0.0293165938133219,figh_cost,1.0,0.0,155.99832179999976,None,wp8,1,2023-04-18_11h23.46.740,threat_forest,2021.2.3,60.11074804224691,True,36.0,0.41428571428571426,0.42539682539682533,-1.083673469387755,-0.8231418493323256,0,0,1,-0.5518910506909112,0.0293165938133219,1.0,0.3061224489795918,0.4285714285714285,0.7142857142857143,-1.5714285714285716,-1.3673469387755102,-0.36734693877551017,0.0,0.0,1.0,-1.0,1.0,1,0,0
5.0,0.0,5.0,0.0,0.0,0.0,0.0,0.0,164.4176453,167.9201463999998,None,left,1.4205933000002915,171.31781669999964,wp8,171.31781669999964,None,164.4176453,167.9201463999998,True,5.0,['p'],True,0.32,0.4,0.2,1.0,1.0,0.9455672104350704,0.029786704162101,unsucc_cost,0.0,3.0,,,wp8,1,2023-04-18_11h23.46.740,threat_forest,2021.2.3,60.11074804224691,True,48.0,0.3111111111111111,0.3626984126984127,-1.3792592592592592,-1.231466364323507,0,0,1,0.35107460125360673,0.029786704162101,0.32,0.32,0.4,0.8,-1.4,-1.24,3.76,3.76,1.0,1.0,-1.0,5.0,0,0,0
5.0,0.0,5.0,0.0,1.0,0.0,1.0,0.0,,,,left,1.1489150999996127,176.29761700000017,wp8,172.76611169999978,174.78044580000005,176.29761700000017,None,False,3.0,['p'],False,0.1975308641975308,0.2222222222222222,0.1111111111111111,1.0,1.0,0.7461067557824965,0.0102042008928614,wait_cost,1.0,2.0,174.78044580000005,None,wp8,1,2023-04-18_11h23.46.740,threat_forest,2021.2.3,60.11074804224691,False,48.0,0.3111111111111111,0.3626984126984127,-1.3792592592592592,-1.231466364323507,0,0,0,0.13881810579683035,0.0102042008928614,0.1975308641975308,0.1975308641975308,0.2222222222222222,0.8888888888888888,-1.6666666666666667,-1.5185185185185184,1.4814814814814816,1.4814814814814816,0.0,1.0,-1.0,3.0,0,0,0
5.0,0.0,5.0,0.0,2.0,0.0,2.0,0.0,,,,left,1.0589800999996442,180.6918787000004,wp8,180.6918787000004,None,177.47828589999972,179.4932202,True,2.0,['p'],True,0.32,0.4,0.2,1.0,1.0,0.9455672104350704,0.0231674818752166,succ_gain,0.0,3.0,179.4932202,None,wp8,1,2023-04-18_11h23.46.740,threat_forest,2021.2.3,60.11074804224691,True,48.0,0.3111111111111111,0.3626984126984127,-1.3792592592592592,-1.231466364323507,0,0,1,0.05730627512981543,0.0231674818752166,0.32,0.32,0.4,0.8,-1.4,-1.24,0.76,0.76,1.0,1.0,-1.0,2.0,0,0,0
5.0,0.0,5.0,0.0,3.0,0.0,3.0,0.0,,,,left,0.8086108000006789,186.6030926000003,wp8,186.6030926000003,None,177.47828589999972,179.4932202,True,3.0,['p'],True,0.32,0.4,0.2,1.0,1.0,0.9455672104350704,0.0712389763770579,unsucc_cost,0.0,1.0,183.7886502000001,None,wp8,1,2023-04-18_11h23.46.740,threat_forest,2021.2.3,60.11074804224691,True,48.0,0.3111111111111111,0.3626984126984127,-1.3792592592592592,-1.231466364323507,0,0,1,-0.21243756544532205,0.0712389763770579,0.32,0.32,0.4,0.8,-1.4,-1.24,1.76,1.76,1.0,1.0,1.0,3.0,0,0,0
5.0,0.0,5.0,0.0,4.0,0.0,4.0,0.0,,,,left,0.7678598000002239,190.39947680000023,wp8,190.39947680000023,None,177.47828589999972,179.4932202,True,1.0,['p'],True,0.32,0.4,0.2,1.0,1.0,0.9455672104350704,0.0926024691358025,unsucc_cost,0.0,0.0,189.4503107999999,None,wp8,1,2023-04-18_11h23.46.740,threat_forest,2021.2.3,60.11074804224691,True,48.0,0.3111111111111111,0.3626984126984127,-1.3792592592592592,-1.231466364323507,0,0,1,-0.2641481145821663,0.0926024691358025,1.0,0.32,0.4,0.8,-1.4,-1.24,-0.24,0.0,1.0,1.0,-1.0,1.0,1,0,0
6.0,0.0,6.0,0.0,0.0,0.0,0.0,0.0,194.60436279999976,198.1086611000001,None,left,1.0784803999995347,201.84029259999988,wp8,201.84029259999988,None,194.60436279999976,198.10866110000006,True,4.0,['r'],True,0.3061224489795918,0.4285714285714285,0.2857142857142857,2.0,2.0,0.9885754083994552,-0.0033191472701769,succ_gain,0.0,6.0,,,wp8,1,2023-04-18_11h23.46.740,threat_forest,2021.2.3,60.11074804224691,True,33.0,0.41428571428571426,0.3626984126984127,-0.7306122448979593,-1.0549357520786091,0,0,1,0.0755530132925384,-0.0033191472701769,0.3061224489795918,0.3061224489795918,0.4285714285714285,0.7142857142857143,-1.1428571428571432,-1.0612244897959187,2.9387755102040813,2.9387755102040813,1.0,2.0,-1.0,4.0,0,0,0
6.0,0.0,6.0,0.0,1.0,0.0,1.0,0.0,,,,left,1.396777099999781,207.90014690000044,wp8,207.90014690000044,None,194.60436279999976,198.10866110000006,True,6.0,['r'],True,0.3061224489795918,0.4285714285714285,0.2857142857142857,2.0,2.0,0.9885754083994552,-0.1118857253410899,unsucc_cost,0.0,4.0,204.9522327000004,None,wp8,1,2023-04-18_11h23.46.740,threat_forest,2021.2.3,60.11074804224691,True,33.0,0.41428571428571426,0.3626984126984127,-0.7306122448979593,-1.0549357520786091,0,0,1,0.33416751135238504,-0.1118857253410899,0.3061224489795918,0.3061224489795918,0.4285714285714285,0.7142857142857143,-1.1428571428571432,-1.0612244897959187,4.938775510204081,4.938775510204081,1.0,2.0,1.0,6.0,0,0,0
6.0,0.0,6.0,0.0,2.0,0.0,2.0,0.0,,,,right,0.7114637999993647,212.59548670000004,wp8,209.3153768000002,211.3295919000002,212.59548670000004,None,True,4.0,['r'],False,0.4,0.4,0.0,0.0,2.0,0.6126016192893442,0.0798721815028828,succ_gain,1.0,6.0,211.3295919000002,None,wp8,1,2023-04-18_11h23.46.740,threat_forest,2021.2.3,60.11074804224691,True,33.0,0.41428571428571426,0.3626984126984127,-0.7306122448979593,-1.0549357520786091,1,1,1,-0.34043074117333477,0.0798721815028828,0.4,0.4,0.4,1.0,-0.3999999999999999,-0.3999999999999999,3.6,3.6,0.0,2.0,-1.0,4.0,0,1,1
6.0,0.0,6.0,0.0,3.0,0.0,3.0,0.0,,,,left,0.7241720000001806,215.9793669000001,wp8,215.9793669000001,None,213.3281282999997,215.3426244000002,True,6.0,['r'],True,0.3061224489795918,0.4285714285714285,0.2857142857142857,2.0,2.0,0.9885754083994552,-0.2999903101598824,figh_cost,0.0,3.0,215.3426244000002,None,wp8,1,2023-04-18_11h23.46.740,threat_forest,2021.2.3,60.11074804224691,True,33.0,0.41428571428571426,0.3626984126984127,-0.7306122448979593,-1.0549357520786091,0,0,1,-0.3227263457504586,-0.2999903101598824,0.0,0.3061224489795918,0.4285714285714285,0.7142857142857143,-1.1428571428571432,-1.0612244897959187,4.938775510204081,4.938775510204081,1.0,2.0,1.0,6.0,0,0,0
6.0,0.0,6.0,0.0,4.0,0.0,4.0,0.0,,,,right,0.5570081000005302,222.13658020000003,wp8,216.72505499999988,218.73942139999963,222.13658020000003,None,True,3.0,['r'],False,0.4,0.4,0.0,0.0,2.0,0.6126016192893442,0.2353061224489796,succ_gain,1.0,5.0,218.73942139999963,None,wp8,1,2023-04-18_11h23.46.740,threat_forest,2021.2.3,60.11074804224691,True,33.0,0.41428571428571426,0.3626984126984127,-0.7306122448979593,-1.0549357520786091,1,1,1,-0.5851754969693325,0.2353061224489796,0.4,0.4,0.4,1.0,-0.3999999999999999,-0.3999999999999999,2.6,2.6,0.0,2.0,-1.0,3.0,0,1,1
6.0,0.0,6.0,0.0,5.0,0.0,5.0,0.0,,,,right,0.4739775999996709,226.98271939999995,wp8,216.72505499999988,218.73942139999963,226.98271939999995,None,True,5.0,['r'],False,0.4,0.4,0.0,0.0,2.0,0.6126016192893442,0.0,unsucc_cost,1.0,3.0,224.73389510000013,None,wp8,1,2023-04-18_11h23.46.740,threat_forest,2021.2.3,60.11074804224691,True,33.0,0.41428571428571426,0.3626984126984127,-0.7306122448979593,-1.0549357520786091,1,1,1,-0.7465952157883865,0.0,0.0,0.4,0.4,1.0,-0.3999999999999999,-0.3999999999999999,4.6,4.6,0.0,2.0,1.0,5.0,0,1,1
6.0,0.0,6.0,0.0,6.0,0.0,6.0,0.0,,,,right,0.6908038000001397,230.3621665000001,wp8,216.72505499999988,218.73942139999963,230.3621665000001,None,True,3.0,['r'],False,0.4,0.4,0.0,0.0,2.0,0.6126016192893442,-0.3881632653061224,unsucc_cost,1.0,1.0,229.49599089999992,None,wp8,1,2023-04-18_11h23.46.740,threat_forest,2021.2.3,60.11074804224691,True,33.0,0.41428571428571426,0.3626984126984127,-0.7306122448979593,-1.0549357520786091,1,1,1,-0.36989943185598273,-0.3881632653061224,0.0,0.4,0.4,1.0,-0.3999999999999999,-0.3999999999999999,2.6,2.6,0.0,2.0,-1.0,3.0,0,1,1
6.0,0.0,6.0,0.0,7.0,0.0,7.0,0.0,,,,right,0.6857631000002584,236.55636119999963,wp8,216.72505499999988,218.73942139999963,236.55636119999963,None,True,1.0,['r'],False,0.4,0.4,0.0,0.0,2.0,0.6126016192893442,0.4,unsucc_cost,1.0,0.0,233.0926916999997,None,wp8,1,2023-04-18_11h23.46.740,threat_forest,2021.2.3,60.11074804224691,True,33.0,0.41428571428571426,0.3626984126984127,-0.7306122448979593,-1.0549357520786091,1,1,1,-0.37722304617480107,0.4,1.0,0.4,0.4,1.0,-0.3999999999999999,-0.3999999999999999,0.6000000000000001,0.6000000000000001,0.0,2.0,-1.0,1.0,1,1,1
7.0,0.0,7.0,0.0,0.0,0.0,0.0,0.0,242.8732022000004,246.38024330000007,None,left,1.322246300000188,249.36150160000037,wp8,249.36150160000037,None,242.8732022000004,246.38024330000007,True,4.0,['r'],True,0.5,0.5,0.0,0.0,2.0,0.6309297535714574,0.0723560159877321,unsucc_cost,0.0,2.0,,,wp8,1,2023-04-18_11h23.46.740,threat_forest,2021.2.3,60.11074804224691,True,58.0,0.5357142857142857,0.475,-0.326530612244898,-0.5285714285714287,1,1,1,0.2793320326996386,0.0723560159877321,0.5,0.5,0.5,1.0,0.0,0.0,4.0,4.0,1.0,2.0,-1.0,4.0,0,1,1
7.0,0.0,7.0,0.0,1.0,0.0,1.0,0.0,,,,right,0.9793055999998614,256.3378257000004,wp8,256.3378257000004,None,242.8732022000004,246.38024330000007,False,2.0,['r'],True,0.5,0.5,0.0,0.0,2.0,0.6309297535714574,0.0536521501003592,wait_cost,0.0,1.0,252.72433079999973,None,wp8,1,2023-04-18_11h23.46.740,threat_forest,2021.2.3,60.11074804224691,False,58.0,0.5357142857142857,0.475,-0.326530612244898,-0.5285714285714287,1,1,0,-0.020911529901615083,0.0536521501003592,0.5,0.5,0.5,1.0,0.0,0.0,2.0,2.0,1.0,2.0,-1.0,2.0,0,1,1
7.0,0.0,7.0,0.0,2.0,0.0,2.0,0.0,,,,right,0.8695417000008092,260.41780089999975,wp8,257.3368895000003,259.35149490000003,260.41780089999975,None,True,1.0,['r'],False,0.4081632653061224,0.5714285714285714,0.2857142857142857,2.0,2.0,0.9885754083994552,0.2329331374998628,unsucc_cost,1.0,0.0,259.35149490000003,None,wp8,1,2023-04-18_11h23.46.740,threat_forest,2021.2.3,60.11074804224691,True,58.0,0.5357142857142857,0.475,-0.326530612244898,-0.5285714285714287,0,0,1,-0.1397889877399507,0.2329331374998628,1.0,0.4081632653061224,0.5714285714285714,0.7142857142857143,-0.5714285714285715,-0.653061224489796,0.346938775510204,0.346938775510204,0.0,2.0,-1.0,1.0,1,0,0
8.0,0.0,8.0,0.0,0.0,0.0,0.0,0.0,265.8714590999998,269.37542459999986,None,left,0.5938475000002654,270.89258210000025,wp8,270.89258210000025,None,265.8714590999998,269.37542459999986,True,5.0,['r'],True,0.4081632653061224,0.5714285714285714,0.2857142857142857,2.0,1.0,0.9885754083994552,-0.0004231906775603,succ_gain,0.0,6.0,,,wp8,1,2023-04-18_11h23.46.740,threat_forest,2021.2.3,60.11074804224691,True,44.0,0.5357142857142857,0.5357142857142857,-0.7806122448979592,-0.5535714285714286,0,0,1,-0.521132726587596,-0.0004231906775603,0.4081632653061224,0.4081632653061224,0.5714285714285714,0.7142857142857143,-1.1428571428571428,-1.0612244897959184,3.9387755102040813,3.9387755102040813,1.0,1.0,-1.0,5.0,0,0,0
8.0,0.0,8.0,0.0,1.0,0.0,1.0,0.0,,,,right,1.1169018000000506,274.4541937000004,wp8,271.5071317000002,273.52150859999983,274.4541937000004,None,True,6.0,['r'],False,0.5,0.5,0.0,0.0,1.0,0.6309297535714574,-0.0434388067740604,unsucc_cost,1.0,4.0,273.52150859999983,None,wp8,1,2023-04-18_11h23.46.740,threat_forest,2021.2.3,60.11074804224691,True,44.0,0.5357142857142857,0.5357142857142857,-0.7806122448979592,-0.5535714285714286,1,0,1,0.11055860216693603,-0.0434388067740604,0.5,0.5,0.5,1.0,-0.5,-0.5,5.5,5.5,0.0,1.0,1.0,6.0,0,0,1
8.0,0.0,8.0,0.0,2.0,0.0,2.0,0.0,,,,left,0.6149089000000458,281.20023670000046,wp8,281.20023670000046,None,275.60351139999966,277.61771339999996,True,4.0,['r'],True,0.4081632653061224,0.5714285714285714,0.2857142857142857,2.0,1.0,0.9885754083994552,0.0111203127993457,succ_gain,0.0,5.0,277.6177134,None,wp8,1,2023-04-18_11h23.46.740,threat_forest,2021.2.3,60.11074804224691,True,44.0,0.5357142857142857,0.5357142857142857,-0.7806122448979592,-0.5535714285714286,0,0,1,-0.4862811522291895,0.0111203127993457,0.4081632653061224,0.4081632653061224,0.5714285714285714,0.7142857142857143,-1.1428571428571428,-1.0612244897959184,2.9387755102040813,2.9387755102040813,1.0,1.0,-1.0,4.0,0,0,0
8.0,0.0,8.0,0.0,3.0,0.0,3.0,0.0,,,,right,1.20996710000054,287.39292750000004,wp8,281.8474938999998,283.8618069000004,287.39292750000004,None,True,5.0,['r'],False,0.5,0.5,0.0,0.0,1.0,0.6309297535714574,0.0835247683256976,unsucc_cost,1.0,3.0,283.8618069000004,None,wp8,1,2023-04-18_11h23.46.740,threat_forest,2021.2.3,60.11074804224691,True,44.0,0.5357142857142857,0.5357142857142857,-0.7806122448979592,-0.5535714285714286,1,0,1,0.19059316915679445,0.0835247683256976,0.5,0.5,0.5,1.0,-0.5,-0.5,4.5,4.5,0.0,1.0,1.0,5.0,0,0,1
8.0,0.0,8.0,0.0,4.0,0.0,4.0,0.0,,,,right,1.2758905000000595,292.4398239000002,wp8,292.4398239000002,None,288.62442889999966,290.63892620000024,False,3.0,['r'],True,0.4081632653061224,0.5714285714285714,0.2857142857142857,2.0,1.0,0.9885754083994552,-0.0025666920245815,wait_cost,0.0,2.0,290.63892620000024,None,wp8,1,2023-04-18_11h23.46.740,threat_forest,2021.2.3,60.11074804224691,False,44.0,0.5357142857142857,0.5357142857142857,-0.7806122448979592,-0.5535714285714286,0,0,0,0.24364436619330104,-0.0025666920245815,0.4081632653061224,0.4081632653061224,0.5714285714285714,0.7142857142857143,-1.1428571428571428,-1.0612244897959184,1.9387755102040816,1.9387755102040816,1.0,1.0,-1.0,3.0,0,0,0
8.0,0.0,8.0,0.0,5.0,0.0,5.0,0.0,,,,right,0.741327600000659,298.01555970000027,wp8,298.01555970000027,None,288.62442889999966,290.63892620000024,False,2.0,['r'],True,0.4081632653061224,0.5714285714285714,0.2857142857142857,2.0,1.0,0.9885754083994552,-0.0459183673469387,wait_cost,0.0,1.0,295.75073989999964,None,wp8,1,2023-04-18_11h23.46.740,threat_forest,2021.2.3,60.11074804224691,False,44.0,0.5357142857142857,0.5357142857142857,-0.7806122448979592,-0.5535714285714286,0,0,0,-0.2993126461217405,-0.0459183673469387,0.4081632653061224,0.4081632653061224,0.5714285714285714,0.7142857142857143,-1.1428571428571428,-1.0612244897959184,0.9387755102040816,0.9387755102040816,1.0,1.0,-1.0,2.0,0,0,0
8.0,0.0,8.0,0.0,6.0,0.0,6.0,0.0,,,,right,1.0131596000001082,302.71126939999976,wp8,302.71126939999976,None,288.62442889999966,290.63892620000024,False,1.0,['r'],True,0.4081632653061224,0.5714285714285714,0.2857142857142857,2.0,1.0,0.9885754083994552,0.4081632653061224,wait_cost,0.0,0.0,300.7961653000002,None,wp8,1,2023-04-18_11h23.46.740,threat_forest,2021.2.3,60.11074804224691,False,44.0,0.5357142857142857,0.5357142857142857,-0.7806122448979592,-0.5535714285714286,0,0,0,0.013073764682926228,0.4081632653061224,1.0,0.4081632653061224,0.5714285714285714,0.7142857142857143,-1.1428571428571428,-1.0612244897959184,-0.061224489795918435,0.0,1.0,1.0,-1.0,1.0,1,0,0
9.0,0.0,9.0,0.0,0.0,0.0,0.0,0.0,309.1159276999997,312.6157205999998,None,left,1.3299976999996943,315.7353914000005,wp8,309.1159276999997,312.6157205999998,315.7353914000005,None,False,4.0,['p'],False,0.16,0.2,0.2,2.0,1.0,0.8198746470064713,-0.0034169425027313,wait_cost,1.0,3.0,,,wp8,1,2023-04-18_11h23.46.740,threat_forest,2021.2.3,60.11074804224691,False,3.0,0.35,0.44285714285714284,-1.4225000000000003,-1.1015561224489798,0,0,0,0.285177212908629,-0.0034169425027313,0.16,0.16,0.2,0.8,-2.0,-1.7200000000000004,2.2799999999999994,2.2799999999999994,0.0,1.0,-1.0,4.0,0,0,0
9.0,0.0,9.0,0.0,1.0,0.0,1.0,0.0,,,,left,1.0564610999999786,321.46026379999967,wp8,321.46026379999967,None,317.0979576,319.1122178000005,True,3.0,['p'],True,0.375,0.5,0.25,1.0,1.0,0.9850568223215076,0.0398144030189514,figh_cost,0.0,0.0,319.1122178000005,None,wp8,1,2023-04-18_11h23.46.740,threat_forest,2021.2.3,60.11074804224691,True,3.0,0.35,0.44285714285714284,-1.4225000000000003,-1.1015561224489798,0,0,1,0.05492473770844486,0.0398144030189514,0.375,0.375,0.5,0.75,-1.25,-1.125,1.875,1.875,1.0,1.0,-1.0,3.0,0,0,0
10.0,0.0,10.0,0.0,0.0,0.0,0.0,0.0,325.73351189999994,329.2257183000001,None,right,0.5828578000000562,332.7665206000001,wp8,332.7665206000001,None,325.73351189999994,329.22571830000015,False,5.0,['p'],True,0.4166666666666667,0.5,0.1666666666666666,1.0,2.0,0.9358932809493992,0.0277169847623575,wait_cost,0.0,4.0,,,wp8,1,2023-04-18_11h23.46.740,threat_forest,2021.2.3,60.11074804224691,False,22.0,0.41666666666666663,0.3833333333333333,-0.7129629629629629,-1.0677314814814816,1,1,0,-0.5398120331888018,0.0277169847623575,0.4166666666666667,0.4166666666666667,0.5,0.8333333333333334,-0.4999999999999998,-0.4999999999999998,4.5,4.5,1.0,2.0,-1.0,5.0,0,1,1
10.0,0.0,10.0,0.0,1.0,0.0,1.0,0.0,,,,right,1.0749417999995785,338.2643202,wp8,333.3659440000001,335.38023200000043,338.2643202,None,True,4.0,['p'],False,0.2962962962962963,0.3333333333333333,0.1111111111111111,1.0,2.0,0.8325252476189534,0.0174761721107346,succ_gain,1.0,6.0,335.38023200000043,None,wp8,1,2023-04-18_11h23.46.740,threat_forest,2021.2.3,60.11074804224691,True,22.0,0.41666666666666663,0.3833333333333333,-0.7129629629629629,-1.0677314814814816,1,0,1,0.07226652057875277,0.0174761721107346,0.2962962962962963,0.2962962962962963,0.3333333333333333,0.8888888888888888,-1.0000000000000002,-0.925925925925926,3.074074074074074,3.074074074074074,0.0,2.0,-1.0,4.0,0,0,1
10.0,0.0,10.0,0.0,2.0,0.0,2.0,0.0,,,,left,0.4996781999998347,344.4554943000003,wp8,333.3659440000001,335.38023200000043,344.4554943000003,None,False,6.0,['p'],False,0.2962962962962963,0.3333333333333333,0.1111111111111111,1.0,2.0,0.8325252476189534,0.0083709863502963,wait_cost,1.0,5.0,341.37464439999985,None,wp8,1,2023-04-18_11h23.46.740,threat_forest,2021.2.3,60.11074804224691,False,22.0,0.41666666666666663,0.3833333333333333,-0.7129629629629629,-1.0677314814814816,1,0,0,-0.6937909877596632,0.0083709863502963,0.2962962962962963,0.2962962962962963,0.3333333333333333,0.8888888888888888,-1.0000000000000002,-0.925925925925926,5.074074074074074,5.074074074074074,0.0,2.0,1.0,6.0,0,0,1
10.0,0.0,10.0,0.0,3.0,0.0,3.0,0.0,,,,right,1.0729077999994845,348.5851511999999,wp8,348.5851511999999,None,344.97171270000035,346.9860705000001,False,5.0,['p'],True,0.4166666666666667,0.5,0.1666666666666666,1.0,2.0,0.9358932809493992,0.1035147319387288,wait_cost,0.0,4.0,346.9860705000001,None,wp8,1,2023-04-18_11h23.46.740,threat_forest,2021.2.3,60.11074804224691,False,22.0,0.41666666666666663,0.3833333333333333,-0.7129629629629629,-1.0677314814814816,1,1,0,0.07037253264950147,0.1035147319387288,0.4166666666666667,0.4166666666666667,0.5,0.8333333333333334,-0.4999999999999998,-0.4999999999999998,4.5,4.5,1.0,2.0,-1.0,5.0,0,1,1
10.0,0.0,10.0,0.0,4.0,0.0,4.0,0.0,,,,left,1.1368287000004784,354.72051459999966,wp8,349.6840570000004,351.69863179999993,354.72051459999966,None,False,4.0,['p'],False,0.2962962962962963,0.3333333333333333,0.1111111111111111,1.0,2.0,0.8325252476189534,0.0286136831275719,wait_cost,1.0,3.0,351.6986318,None,wp8,1,2023-04-18_11h23.46.740,threat_forest,2021.2.3,60.11074804224691,False,22.0,0.41666666666666663,0.3833333333333333,-0.7129629629629629,-1.0677314814814816,1,0,0,0.12824254378791078,0.0286136831275719,0.2962962962962963,0.2962962962962963,0.3333333333333333,0.8888888888888888,-1.0000000000000002,-0.925925925925926,3.074074074074074,3.074074074074074,0.0,2.0,-1.0,4.0,0,0,1
10.0,0.0,10.0,0.0,5.0,0.0,5.0,0.0,,,,left,0.8747930999998061,361.4063028000001,wp8,349.6840570000004,351.69863179999993,361.4063028000001,None,False,3.0,['p'],False,0.2962962962962963,0.3333333333333333,0.1111111111111111,1.0,2.0,0.8325252476189534,0.1209705075445815,wait_cost,1.0,2.0,357.8926585999998,None,wp8,1,2023-04-18_11h23.46.740,threat_forest,2021.2.3,60.11074804224691,False,22.0,0.41666666666666663,0.3833333333333333,-0.7129629629629629,-1.0677314814814816,1,0,0,-0.13376787772799928,0.1209705075445815,0.2962962962962963,0.2962962962962963,0.3333333333333333,0.8888888888888888,-1.0000000000000002,-0.925925925925926,2.074074074074074,2.074074074074074,0.0,2.0,-1.0,3.0,0,0,1
10.0,0.0,10.0,0.0,6.0,0.0,6.0,0.0,,,,left,0.8872575000004872,365.9373383000002,wp8,365.9373383000002,None,362.3055080000004,364.3199172000004,True,2.0,['p'],True,0.4166666666666667,0.5,0.1666666666666666,1.0,2.0,0.9358932809493992,0.0601851851851852,unsucc_cost,0.0,0.0,364.3199172000004,None,wp8,1,2023-04-18_11h23.46.740,threat_forest,2021.2.3,60.11074804224691,True,22.0,0.41666666666666663,0.3833333333333333,-0.7129629629629629,-1.0677314814814816,1,1,1,-0.11962003440533306,0.0601851851851852,0.4166666666666667,0.4166666666666667,0.5,0.8333333333333334,-0.4999999999999998,-0.4999999999999998,1.5000000000000002,1.5000000000000002,1.0,2.0,-1.0,2.0,0,1,1
11.0,0.0,11.0,0.0,0.0,0.0,0.0,0.0,371.4390155000001,374.9433441000001,None,right,1.078090599999996,376.7289652999998,wp8,371.4390155000001,374.9433441000001,376.7289652999998,None,True,5.0,['p'],False,0.16,0.2,0.2,2.0,2.0,0.8198746470064713,-0.013191945967,unsucc_cost,1.0,3.0,,,wp8,1,2023-04-18_11h23.46.740,threat_forest,2021.2.3,60.11074804224691,True,8.0,0.35,0.3833333333333333,-1.5300000000000002,-1.1214814814814815,0,0,1,0.0751915134821599,-0.013191945967,0.16,0.16,0.2,0.8,-1.8000000000000003,-1.5600000000000003,3.4399999999999995,3.4399999999999995,0.0,2.0,-1.0,5.0,0,0,0
11.0,0.0,11.0,0.0,1.0,0.0,1.0,0.0,,,,left,0.600717700000132,382.2038714999999,wp8,382.2038714999999,None,377.8243895000005,379.83866149999994,True,3.0,['p'],True,0.25,0.5,0.5,1.0,2.0,0.9463946303571862,0.0267718626953125,succ_gain,0.0,5.0,379.8386615,None,wp8,1,2023-04-18_11h23.46.740,threat_forest,2021.2.3,60.11074804224691,True,8.0,0.35,0.3833333333333333,-1.5300000000000002,-1.1214814814814815,0,0,1,-0.5096301719364652,0.0267718626953125,0.25,0.25,0.5,0.5,-1.5,-1.5,1.5,1.5,1.0,2.0,-1.0,3.0,0,0,0
11.0,0.0,11.0,0.0,2.0,0.0,2.0,0.0,,,,left,0.6942167999995945,386.3996323000001,wp8,386.3996323000001,None,377.8243895000005,379.83866149999994,True,5.0,['p'],True,0.25,0.5,0.5,1.0,2.0,0.9463946303571862,0.02289929765625,figh_cost,0.0,2.0,384.8341128000002,None,wp8,1,2023-04-18_11h23.46.740,threat_forest,2021.2.3,60.11074804224691,True,8.0,0.35,0.3833333333333333,-1.5300000000000002,-1.1214814814814815,0,0,1,-0.3649709753292805,0.02289929765625,0.25,0.25,0.5,0.5,-1.5,-1.5,3.5,3.5,1.0,2.0,1.0,5.0,0,0,0
11.0,0.0,11.0,0.0,3.0,0.0,3.0,0.0,,,,left,0.5101925999997547,390.379183,wp8,390.379183,None,377.8243895000005,379.83866149999994,True,2.0,['p'],True,0.25,0.5,0.5,1.0,2.0,0.9463946303571862,0.0337707499999999,figh_cost,0.0,0.0,389.1300062999999,None,wp8,1,2023-04-18_11h23.46.740,threat_forest,2021.2.3,60.11074804224691,True,8.0,0.35,0.3833333333333333,-1.5300000000000002,-1.1214814814814815,0,0,1,-0.6729669774961253,0.0337707499999999,0.25,0.25,0.5,0.5,-1.5,-1.5,0.5,0.5,1.0,2.0,-1.0,2.0,0,0,0
12.0,0.0,12.0,0.0,0.0,0.0,0.0,0.0,394.6832274999997,398.1882822999996,None,right,0.7168516000001546,401.3193282000002,wp8,394.6832274999997,398.1882822999996,401.3193282000002,None,True,5.0,['p'],False,0.4444444444444445,0.6666666666666666,0.3333333333333333,1.0,1.0,0.9656336071428248,0.0498748920388152,succ_gain,1.0,6.0,,,wp8,1,2023-04-18_11h23.46.740,threat_forest,2021.2.3,60.11074804224691,True,56.0,0.4444444444444444,0.3972222222222222,-1.1666666666666667,-1.3483333333333336,1,1,1,-0.3328864333049693,0.0498748920388152,0.4444444444444445,0.4444444444444445,0.6666666666666666,0.6666666666666667,-1.0,-1.0,4.0,4.0,0.0,1.0,-1.0,5.0,0,1,1
12.0,0.0,12.0,0.0,1.0,0.0,1.0,0.0,,,,right,0.7342498000007254,407.4465068,wp8,394.6832274999997,398.1882822999996,407.4465068,None,True,6.0,['p'],False,0.4444444444444445,0.6666666666666666,0.3333333333333333,1.0,1.0,0.9656336071428248,-0.1157947213331301,succ_gain,1.0,6.0,404.08270640000046,None,wp8,1,2023-04-18_11h23.46.740,threat_forest,2021.2.3,60.11074804224691,True,56.0,0.4444444444444444,0.3972222222222222,-1.1666666666666667,-1.3483333333333336,1,1,1,-0.308905981289246,-0.1157947213331301,0.4444444444444445,0.4444444444444445,0.6666666666666666,0.6666666666666667,-1.0,-1.0,5.0,5.0,0.0,1.0,1.0,6.0,0,1,1
12.0,0.0,12.0,0.0,2.0,0.0,2.0,0.0,,,,right,1.4398192999997264,411.7983369000003,wp8,411.7983369000003,None,408.2126509,410.22694520000005,False,6.0,['p'],True,0.2222222222222222,0.2222222222222222,0.0,0.0,1.0,0.4821593609696809,0.0165180612711477,wait_cost,0.0,5.0,410.2269452000001,None,wp8,1,2023-04-18_11h23.46.740,threat_forest,2021.2.3,60.11074804224691,False,56.0,0.4444444444444444,0.3972222222222222,-1.1666666666666667,-1.3483333333333336,1,0,0,0.3645176196025673,0.0165180612711477,0.2222222222222222,0.2222222222222222,0.2222222222222222,1.0,-1.3333333333333335,-1.3333333333333335,4.666666666666666,4.666666666666666,1.0,1.0,-1.0,6.0,0,0,1
12.0,0.0,12.0,0.0,3.0,0.0,3.0,0.0,,,,right,0.8684887999997954,418.5199341999996,wp8,418.5199341999996,None,408.2126509,410.22694520000005,False,5.0,['p'],True,0.2222222222222222,0.2222222222222222,0.0,0.0,1.0,0.4821593609696809,0.0081161408321901,wait_cost,0.0,4.0,415.2722360999997,None,wp8,1,2023-04-18_11h23.46.740,threat_forest,2021.2.3,60.11074804224691,False,56.0,0.4444444444444444,0.3972222222222222,-1.1666666666666667,-1.3483333333333336,1,0,0,-0.1410005891817162,0.0081161408321901,0.2222222222222222,0.2222222222222222,0.2222222222222222,1.0,-1.3333333333333335,-1.3333333333333335,3.6666666666666665,3.6666666666666665,1.0,1.0,-1.0,5.0,0,0,1
12.0,0.0,12.0,0.0,4.0,0.0,4.0,0.0,,,,right,1.159489499999836,422.3492323,wp8,419.41868710000017,421.43313690000014,422.3492323,None,True,4.0,['p'],False,0.4444444444444445,0.6666666666666666,0.3333333333333333,1.0,1.0,0.9656336071428248,0.074074074074074,unsucc_cost,1.0,2.0,421.43313690000014,None,wp8,1,2023-04-18_11h23.46.740,threat_forest,2021.2.3,60.11074804224691,True,56.0,0.4444444444444444,0.3972222222222222,-1.1666666666666667,-1.3483333333333336,1,1,1,0.14797982204487978,0.074074074074074,0.4444444444444445,0.4444444444444445,0.6666666666666666,0.6666666666666667,-1.0,-1.0,3.0,3.0,0.0,1.0,-1.0,4.0,0,1,1
12.0,0.0,12.0,0.0,5.0,0.0,5.0,0.0,,,,right,0.697569800000565,426.5452874000002,wp8,419.41868710000017,421.43313690000014,426.5452874000002,None,True,2.0,['p'],False,0.4444444444444445,0.6666666666666666,0.3333333333333333,1.0,1.0,0.9656336071428248,0.1111111111111111,succ_gain,1.0,3.0,425.5460398000005,None,wp8,1,2023-04-18_11h23.46.740,threat_forest,2021.2.3,60.11074804224691,True,56.0,0.4444444444444444,0.3972222222222222,-1.1666666666666667,-1.3483333333333336,1,1,1,-0.3601526986080556,0.1111111111111111,0.4444444444444445,0.4444444444444445,0.6666666666666666,0.6666666666666667,-1.0,-1.0,1.0,1.0,0.0,1.0,-1.0,2.0,0,1,1
12.0,0.0,12.0,0.0,6.0,0.0,6.0,0.0,,,,right,0.8584663000001456,430.84289249999983,wp8,430.84289249999983,None,427.2613634999998,429.27576409999983,False,3.0,['p'],True,0.2222222222222222,0.2222222222222222,0.0,0.0,1.0,0.4821593609696809,-0.5185185185185186,wait_cost,0.0,2.0,429.27576409999983,None,wp8,1,2023-04-18_11h23.46.740,threat_forest,2021.2.3,60.11074804224691,False,56.0,0.4444444444444444,0.3972222222222222,-1.1666666666666667,-1.3483333333333336,1,0,0,-0.15260785392860252,-0.5185185185185186,0.0,0.2222222222222222,0.2222222222222222,1.0,-1.3333333333333335,-1.3333333333333335,1.6666666666666665,1.6666666666666665,1.0,1.0,1.0,3.0,0,0,1
12.0,0.0,12.0,0.0,7.0,0.0,7.0,0.0,,,,left,0.562488000000485,437.11874929999976,wp8,431.72387290000006,433.73830369999996,437.11874929999976,None,False,2.0,['p'],False,0.4444444444444445,0.6666666666666666,0.3333333333333333,1.0,1.0,0.9656336071428248,-0.5555555555555556,wait_cost,1.0,1.0,433.7383037,None,wp8,1,2023-04-18_11h23.46.740,threat_forest,2021.2.3,60.11074804224691,False,56.0,0.4444444444444444,0.3972222222222222,-1.1666666666666667,-1.3483333333333336,1,1,0,-0.5753854784635917,-0.5555555555555556,0.0,0.4444444444444445,0.6666666666666666,0.6666666666666667,-1.0,-1.0,1.0,1.0,0.0,1.0,-1.0,2.0,0,1,1
13.0,0.0,13.0,0.0,0.0,0.0,0.0,0.0,442.8241367999999,446.32646399999976,None,left,0.7307902000002287,447.1596521000001,wp8,447.1596521000001,None,442.8241367999999,446.32646399999976,True,5.0,['p'],True,0.4444444444444445,0.6666666666666666,0.3333333333333333,1.0,1.0,0.9656336071428248,0.0480533547078672,figh_cost,0.0,2.0,,,wp8,1,2023-04-18_11h23.46.740,threat_forest,2021.2.3,60.11074804224691,True,5.0,0.4444444444444444,0.4444444444444444,-1.259259259259259,-1.2129629629629628,1,1,1,-0.31362886452957267,0.0480533547078672,0.4444444444444445,0.4444444444444445,0.6666666666666666,0.6666666666666667,-1.0,-1.0,4.0,4.0,1.0,1.0,-1.0,5.0,0,1,1
13.0,0.0,13.0,0.0,1.0,0.0,1.0,0.0,,,,right,0.5922872999999527,452.0908654000005,wp8,447.9086009000002,449.9231300000001,452.0908654000005,None,True,2.0,['p'],False,0.1975308641975308,0.2222222222222222,0.1111111111111111,1.0,1.0,0.7461067557824965,-0.0127461107108468,unsucc_cost,1.0,0.0,449.9231300000001,None,wp8,1,2023-04-18_11h23.46.740,threat_forest,2021.2.3,60.11074804224691,True,5.0,0.4444444444444444,0.4444444444444444,-1.259259259259259,-1.2129629629629628,0,0,1,-0.5237634577660839,-0.0127461107108468,0.1975308641975308,0.1975308641975308,0.2222222222222222,0.8888888888888888,-1.6666666666666667,-1.5185185185185184,0.4814814814814816,0.4814814814814816,0.0,1.0,-1.0,2.0,0,0,0
14.0,0.0,14.0,0.0,0.0,0.0,0.0,0.0,457.4420387,460.9462113999998,None,left,1.0765713000000687,464.6934572999999,wp8,457.4420387,460.9462113999998,464.6934572999999,None,False,4.0,['p'],False,0.4444444444444445,0.6666666666666666,0.3333333333333333,1.0,1.0,0.9656336071428248,0.045641051707109,wait_cost,1.0,3.0,,,wp8,1,2023-04-18_11h23.46.740,threat_forest,2021.2.3,60.11074804224691,False,39.0,0.43333333333333335,0.4388888888888889,-1.2000000000000002,-1.2296296296296296,1,1,0,0.07378126879205375,0.045641051707109,0.4444444444444445,0.4444444444444445,0.6666666666666666,0.6666666666666667,-1.0,-1.0,3.0,3.0,0.0,1.0,-1.0,4.0,0,1,1
14.0,0.0,14.0,0.0,1.0,0.0,1.0,0.0,,,,right,0.5046800000000076,469.7548655000001,wp8,457.4420387,460.9462113999998,469.7548655000001,None,True,3.0,['p'],False,0.4444444444444445,0.6666666666666666,0.3333333333333333,1.0,1.0,0.9656336071428248,0.0524121025193765,succ_gain,1.0,4.0,467.80648500000007,None,wp8,1,2023-04-18_11h23.46.740,threat_forest,2021.2.3,60.11074804224691,True,39.0,0.43333333333333335,0.4388888888888889,-1.2000000000000002,-1.2296296296296296,1,1,1,-0.6838307139225815,0.0524121025193765,0.4444444444444445,0.4444444444444445,0.6666666666666666,0.6666666666666667,-1.0,-1.0,2.0,2.0,0.0,1.0,-1.0,3.0,0,1,1
14.0,0.0,14.0,0.0,2.0,0.0,2.0,0.0,,,,right,0.5801134000003003,472.9851885999997,wp8,457.4420387,460.9462113999998,472.9851885999997,None,True,4.0,['p'],False,0.4444444444444445,0.6666666666666666,0.3333333333333333,1.0,1.0,0.9656336071428248,0.0693087435858353,figh_cost,1.0,1.0,472.30219229999966,None,wp8,1,2023-04-18_11h23.46.740,threat_forest,2021.2.3,60.11074804224691,True,39.0,0.43333333333333335,0.4388888888888889,-1.2000000000000002,-1.2296296296296296,1,1,1,-0.5445316773107799,0.0693087435858353,0.4444444444444445,0.4444444444444445,0.6666666666666666,0.6666666666666667,-1.0,-1.0,3.0,3.0,0.0,1.0,1.0,4.0,0,1,1
14.0,0.0,14.0,0.0,3.0,0.0,3.0,0.0,,,,left,1.7554825999995955,476.8170016000004,wp8,476.8170016000004,None,473.5847512,475.5990932000004,True,1.0,['p'],True,0.2,0.2,0.0,0.0,1.0,0.4554859150035951,0.0339924554183812,unsucc_cost,0.0,0.0,475.5990932000004,None,wp8,1,2023-04-18_11h23.46.740,threat_forest,2021.2.3,60.11074804224691,True,39.0,0.43333333333333335,0.4388888888888889,-1.2000000000000002,-1.2296296296296296,0,0,1,0.5627438048709316,0.0339924554183812,1.0,0.2,0.2,1.0,-1.4000000000000001,-1.4000000000000001,-0.40000000000000013,0.0,1.0,1.0,-1.0,1.0,1,0,0
15.0,0.0,15.0,0.0,0.0,0.0,0.0,0.0,481.4140598000004,484.9237076999998,None,left,0.7062175999999454,488.4045632999996,wp8,481.4140598000004,484.9237076999998,488.4045632999996,None,False,4.0,['r'],False,0.2222222222222222,0.6666666666666666,0.6666666666666666,2.0,2.0,0.77250688571426,-0.0225879671967348,wait_cost,1.0,3.0,,,wp8,1,2023-04-18_11h23.46.740,threat_forest,2021.2.3,60.11074804224691,False,68.0,0.5,0.4666666666666667,-1.2222222222222223,-1.2111111111111112,0,0,0,-0.34783187368009916,-0.0225879671967348,0.2222222222222222,0.2222222222222222,0.6666666666666666,0.33333333333333337,-1.3333333333333335,-1.777777777777778,2.2222222222222223,2.2222222222222223,0.0,2.0,-1.0,4.0,0,0,0
15.0,0.0,15.0,0.0,1.0,0.0,1.0,0.0,,,,right,0.7991396999996141,494.1321770000004,wp8,481.4140598000004,484.9237076999998,494.1321770000004,None,True,3.0,['r'],False,0.2222222222222222,0.6666666666666666,0.6666666666666666,2.0,2.0,0.77250688571426,-0.0090279894663753,figh_cost,1.0,0.0,491.1512054000005,None,wp8,1,2023-04-18_11h23.46.740,threat_forest,2021.2.3,60.11074804224691,True,68.0,0.5,0.4666666666666667,-1.2222222222222223,-1.2111111111111112,0,0,1,-0.22421950494525505,-0.0090279894663753,0.2222222222222222,0.2222222222222222,0.6666666666666666,0.33333333333333337,-1.3333333333333335,-1.777777777777778,1.222222222222222,1.222222222222222,0.0,2.0,-1.0,3.0,0,0,0
16.0,0.0,16.0,0.0,0.0,0.0,0.0,0.0,499.4083455999999,502.9030394000001,None,right,0.7755189999998038,505.77160559999993,wp8,499.4083455999999,502.9030394000001,505.77160559999993,None,True,5.0,['p'],False,0.5555555555555556,0.6666666666666666,0.1666666666666666,1.0,2.0,0.8929352898779306,0.0304669022621303,succ_gain,1.0,6.0,,,wp8,1,2023-04-18_11h23.46.740,threat_forest,2021.2.3,60.11074804224691,True,51.0,0.5555555555555556,0.5277777777777778,-0.2376543209876542,-0.7299382716049383,1,1,1,-0.2542227963435519,0.0304669022621303,0.5555555555555556,0.5555555555555556,0.6666666666666666,0.8333333333333334,0.16666666666666674,0.05555555555555569,5.055555555555555,5.055555555555555,0.0,2.0,-1.0,5.0,0,1,1
16.0,0.0,16.0,0.0,1.0,0.0,1.0,0.0,,,,right,0.4843057999996745,512.3319653999997,wp8,499.4083455999999,502.9030394000001,512.3319653999997,None,True,6.0,['p'],False,0.5555555555555556,0.6666666666666666,0.1666666666666666,1.0,2.0,0.8929352898779306,-0.0252043745840764,unsucc_cost,1.0,4.0,508.5850602,None,wp8,1,2023-04-18_11h23.46.740,threat_forest,2021.2.3,60.11074804224691,True,51.0,0.5555555555555556,0.5277777777777778,-0.2376543209876542,-0.7299382716049383,1,1,1,-0.7250387535974339,-0.0252043745840764,0.5555555555555556,0.5555555555555556,0.6666666666666666,0.8333333333333334,0.16666666666666674,0.05555555555555569,6.055555555555555,6.0,0.0,2.0,1.0,6.0,0,1,1
16.0,0.0,16.0,0.0,2.0,0.0,2.0,0.0,,,,left,0.9170528000004196,518.2141330000004,wp8,518.2141330000004,None,512.8480728000004,514.8624718000001,True,4.0,['p'],True,0.3950617283950617,0.4444444444444444,0.1111111111111111,1.0,2.0,0.8733423231021583,0.0125899016646355,unsucc_cost,0.0,2.0,514.8624718000001,None,wp8,1,2023-04-18_11h23.46.740,threat_forest,2021.2.3,60.11074804224691,True,51.0,0.5555555555555556,0.5277777777777778,-0.2376543209876542,-0.7299382716049383,1,0,1,-0.08659022932066605,0.0125899016646355,0.3950617283950617,0.3950617283950617,0.4444444444444444,0.8888888888888888,-0.5555555555555556,-0.5308641975308641,3.469135802469136,3.469135802469136,1.0,2.0,-1.0,4.0,0,0,1
16.0,0.0,16.0,0.0,3.0,0.0,3.0,0.0,,,,left,0.9222670999997716,522.1231710000002,wp8,522.1231710000002,None,512.8480728000004,514.8624718000001,True,2.0,['p'],True,0.3950617283950617,0.4444444444444444,0.1111111111111111,1.0,2.0,0.8733423231021583,-0.0206618655692729,unsucc_cost,0.0,0.0,521.1732798000003,None,wp8,1,2023-04-18_11h23.46.740,threat_forest,2021.2.3,60.11074804224691,True,51.0,0.5555555555555556,0.5277777777777778,-0.2376543209876542,-0.7299382716049383,1,0,1,-0.08092040106730072,-0.0206618655692729,0.3950617283950617,0.3950617283950617,0.4444444444444444,0.8888888888888888,-0.5555555555555556,-0.5308641975308641,1.4691358024691359,1.4691358024691359,1.0,2.0,-1.0,2.0,0,0,1
17.0,0.0,17.0,0.0,0.0,0.0,0.0,0.0,528.7601014000002,532.2628929000002,None,left,0.9398419999997714,533.2323502999998,wp8,533.2323502999998,None,528.7601014000002,532.2628929000002,True,5.0,['p'],True,0.2592592592592592,0.3333333333333333,0.2222222222222222,2.0,2.0,0.9327883776363324,-0.0183254353837554,succ_gain,0.0,6.0,,,wp8,1,2023-04-18_11h23.46.740,threat_forest,2021.2.3,60.11074804224691,True,31.0,0.41666666666666663,0.4861111111111111,-0.9675925925925928,-0.6026234567901235,0,0,1,-0.06204350295259837,-0.0183254353837554,0.2592592592592592,0.2592592592592592,0.3333333333333333,0.7777777777777778,-1.3333333333333335,-1.1851851851851856,3.8148148148148144,3.8148148148148144,1.0,2.0,-1.0,5.0,0,0,0
17.0,0.0,17.0,0.0,1.0,0.0,1.0,0.0,,,,left,0.7866098999993483,537.5248554999998,wp8,534.1948621000001,536.2092616,537.5248554999998,None,False,6.0,['p'],False,0.375,0.5,0.25,1.0,2.0,0.9850568223215076,-0.0708240996554554,wait_cost,1.0,5.0,536.2092616,None,wp8,1,2023-04-18_11h23.46.740,threat_forest,2021.2.3,60.11074804224691,False,31.0,0.41666666666666663,0.4861111111111111,-0.9675925925925928,-0.6026234567901235,0,0,0,-0.2400228332521001,-0.0708240996554554,0.375,0.375,0.5,0.75,-0.75,-0.75,5.25,5.25,0.0,2.0,1.0,6.0,0,0,0
17.0,0.0,17.0,0.0,2.0,0.0,2.0,0.0,,,,left,0.5106330000007802,542.1398065000003,wp8,542.1398065000003,None,538.3407518000004,540.3552995,True,5.0,['p'],True,0.2592592592592592,0.3333333333333333,0.2222222222222222,2.0,2.0,0.9327883776363324,-0.0068014020075178,unsucc_cost,0.0,3.0,540.3552995,None,wp8,1,2023-04-18_11h23.46.740,threat_forest,2021.2.3,60.11074804224691,True,31.0,0.41666666666666663,0.4861111111111111,-0.9675925925925928,-0.6026234567901235,0,0,1,-0.6721041464144059,-0.0068014020075178,0.2592592592592592,0.2592592592592592,0.3333333333333333,0.7777777777777778,-1.3333333333333335,-1.1851851851851856,3.8148148148148144,3.8148148148148144,1.0,2.0,-1.0,5.0,0,0,0
17.0,0.0,17.0,0.0,3.0,0.0,3.0,0.0,,,,left,0.7549377999994249,545.2677721999999,wp8,545.2677721999999,None,538.3407518000004,540.3552995,True,3.0,['p'],True,0.2592592592592592,0.3333333333333333,0.2222222222222222,2.0,2.0,0.9327883776363324,-0.011359909344652,unsucc_cost,0.0,1.0,544.6848749000001,None,wp8,1,2023-04-18_11h23.46.740,threat_forest,2021.2.3,60.11074804224691,True,31.0,0.41666666666666663,0.4861111111111111,-0.9675925925925928,-0.6026234567901235,0,0,1,-0.28111991723359125,-0.011359909344652,0.2592592592592592,0.2592592592592592,0.3333333333333333,0.7777777777777778,-1.3333333333333335,-1.1851851851851856,1.8148148148148144,1.8148148148148144,1.0,2.0,-1.0,3.0,0,0,0
17.0,0.0,17.0,0.0,4.0,0.0,4.0,0.0,,,,left,2.377074099999845,551.6451583999997,wp8,551.6451583999997,None,538.3407518000004,540.3552995,True,1.0,['p'],True,0.2592592592592592,0.3333333333333333,0.2222222222222222,2.0,2.0,0.9327883776363324,0.118950799865366,succ_gain,0.0,3.0,548.0647194000003,None,wp8,1,2023-04-18_11h23.46.740,threat_forest,2021.2.3,60.11074804224691,True,31.0,0.41666666666666663,0.4861111111111111,-0.9675925925925928,-0.6026234567901235,0,0,1,0.8658703616405229,0.118950799865366,1.0,0.2592592592592592,0.3333333333333333,0.7777777777777778,-1.3333333333333335,-1.1851851851851856,-0.18518518518518556,0.0,1.0,2.0,-1.0,1.0,1,0,0
17.0,0.0,17.0,0.0,5.0,0.0,5.0,0.0,,,,left,1.498925099999724,557.3401050000002,wp8,557.3401050000002,None,538.3407518000004,540.3552995,True,3.0,['p'],True,0.2592592592592592,0.3333333333333333,0.2222222222222222,2.0,2.0,0.9327883776363324,0.0776320301783265,unsucc_cost,0.0,1.0,556.0572967999997,None,wp8,1,2023-04-18_11h23.46.740,threat_forest,2021.2.3,60.11074804224691,True,31.0,0.41666666666666663,0.4861111111111111,-0.9675925925925928,-0.6026234567901235,0,0,1,0.4047482512274725,0.0776320301783265,0.2592592592592592,0.2592592592592592,0.3333333333333333,0.7777777777777778,-1.3333333333333335,-1.1851851851851856,1.8148148148148144,1.8148148148148144,1.0,2.0,1.0,3.0,0,0,0
17.0,0.0,17.0,0.0,6.0,0.0,6.0,0.0,,,,left,1.8395778000003704,562.9844395999999,wp8,558.8716149000002,560.8861491999996,562.9844395999999,None,False,1.0,['p'],False,0.375,0.5,0.25,1.0,2.0,0.9850568223215076,0.375,wait_cost,1.0,0.0,560.8861491999996,None,wp8,1,2023-04-18_11h23.46.740,threat_forest,2021.2.3,60.11074804224691,False,31.0,0.41666666666666663,0.4861111111111111,-0.9675925925925928,-0.6026234567901235,0,0,0,0.6095360887701811,0.375,1.0,0.375,0.5,0.75,-0.75,-0.75,0.25,0.25,0.0,2.0,-1.0,1.0,1,0,0
0.0,0.0,0.0,0.0,0.0,0.0,0.0,0.0,10.56777080000029,14.075990400000592,None,left,0.8651294999999664,15.191001000000142,wp8,15.191001000000142,None,10.56777080000029,14.075990400000592,True,5.0,['r'],True,0.5,0.5,0.0,0.0,1.0,0.6309297535714574,0.0653299800297634,unsucc_cost,0.0,3.0,,,wp8,2,2023-04-18_11h33.55.612,threat_forest,2021.2.3,60.20473221250338,True,27.0,0.5357142857142857,0.47619047619047616,-0.7806122448979592,-0.8741024187452759,1,1,1,-0.14487607227320845,0.0653299800297634,0.5,0.5,0.5,1.0,-0.5,-0.5,4.5,4.5,1.0,1.0,-1.0,5.0,0,1,1
0.0,0.0,0.0,0.0,1.0,0.0,1.0,0.0,,,,left,0.8401219999996101,20.886689200000543,wp8,20.886689200000543,None,10.56777080000029,14.075990400000592,True,3.0,['r'],True,0.5,0.5,0.0,0.0,1.0,0.6309297535714574,0.0991686602835485,unsucc_cost,0.0,1.0,18.0888173000003,None,wp8,2,2023-04-18_11h33.55.612,threat_forest,2021.2.3,60.20473221250338,True,27.0,0.5357142857142857,0.47619047619047616,-0.7806122448979592,-0.8741024187452759,1,1,1,-0.17420815959603478,0.0991686602835485,0.5,0.5,0.5,1.0,-0.5,-0.5,2.5,2.5,1.0,1.0,-1.0,3.0,0,1,1
0.0,0.0,0.0,0.0,2.0,0.0,2.0,0.0,,,,left,0.771669099999599,26.58106120000048,wp8,26.58106120000048,None,10.56777080000029,14.075990400000592,True,1.0,['r'],True,0.5,0.5,0.0,0.0,1.0,0.6309297535714574,0.1232092107003671,unsucc_cost,0.0,0.0,23.76687970000057,None,wp8,2,2023-04-18_11h33.55.612,threat_forest,2021.2.3,60.20473221250338,True,27.0,0.5357142857142857,0.47619047619047616,-0.7806122448979592,-0.8741024187452759,1,1,1,-0.25919944778767157,0.1232092107003671,1.0,0.5,0.5,1.0,-0.5,-0.5,0.5,0.5,1.0,1.0,-1.0,1.0,1,1,1
1.0,0.0,1.0,0.0,0.0,0.0,0.0,0.0,29.93537050000032,33.44109230000049,None,right,1.1772658999998384,34.97367519999989,wp8,34.97367519999989,None,29.93537050000032,33.44109230000049,False,4.0,['r'],True,0.3333333333333333,0.3333333333333333,0.0,0.0,2.0,0.5793801642856949,0.0501512138139916,wait_cost,0.0,3.0,,,wp8,2,2023-04-18_11h33.55.612,threat_forest,2021.2.3,60.20473221250338,False,46.0,0.3666666666666667,0.4511904761904762,-1.0533333333333335,-0.9169727891156463,1,0,0,0.16319471610242417,0.0501512138139916,0.3333333333333333,0.3333333333333333,0.3333333333333333,1.0,-0.6666666666666669,-0.6666666666666669,3.333333333333333,3.333333333333333,1.0,2.0,-1.0,4.0,0,0,1
1.0,0.0,1.0,0.0,1.0,0.0,1.0,0.0,,,,right,1.094952899999953,41.15094210000007,wp8,41.15094210000007,None,29.93537050000032,33.44109230000049,False,3.0,['r'],True,0.3333333333333333,0.3333333333333333,0.0,0.0,2.0,0.5793801642856949,0.1031175424965706,wait_cost,0.0,2.0,38.1867744000001,None,wp8,2,2023-04-18_11h33.55.612,threat_forest,2021.2.3,60.20473221250338,False,46.0,0.3666666666666667,0.4511904761904762,-1.0533333333333335,-0.9169727891156463,1,0,0,0.09071134864467535,0.1031175424965706,0.3333333333333333,0.3333333333333333,0.3333333333333333,1.0,-0.6666666666666669,-0.6666666666666669,2.333333333333333,2.333333333333333,1.0,2.0,-1.0,3.0,0,0,1
1.0,0.0,1.0,0.0,2.0,0.0,2.0,0.0,,,,right,1.0467679000003045,46.04731230000016,wp8,42.2664635000001,44.281088499999896,46.04731230000016,None,True,2.0,['r'],False,0.24,0.4,0.4,2.0,2.0,0.9801625908629508,-0.0075037037037035,unsucc_cost,1.0,0.0,44.281088499999896,None,wp8,2,2023-04-18_11h33.55.612,threat_forest,2021.2.3,60.20473221250338,True,46.0,0.3666666666666667,0.4511904761904762,-1.0533333333333335,-0.9169727891156463,0,0,1,0.045707226320513154,-0.0075037037037035,0.24,0.24,0.4,0.6,-1.6,-1.4400000000000002,0.5599999999999998,0.5599999999999998,0.0,2.0,-1.0,2.0,0,0,0
2.0,0.0,2.0,0.0,0.0,0.0,0.0,0.0,52.47058819999984,55.96017380000012,None,right,0.961051999999654,57.03615010000067,wp8,52.47058819999984,55.96017380000012,57.03615010000067,None,True,4.0,['r'],False,0.2222222222222222,0.3333333333333333,0.3333333333333333,2.0,2.0,0.9656336071428248,0.0156420001646662,unsucc_cost,1.0,2.0,,,wp8,2,2023-04-18_11h33.55.612,threat_forest,2021.2.3,60.20473221250338,True,63.0,0.26666666666666666,0.31666666666666665,-1.5022222222222226,-1.2777777777777781,0,0,1,-0.039726761174345204,0.0156420001646662,0.2222222222222222,0.2222222222222222,0.3333333333333333,0.6666666666666667,-1.666666666666667,-1.4444444444444446,2.5555555555555554,2.5555555555555554,0.0,2.0,-1.0,4.0,0,0,0
2.0,0.0,2.0,0.0,1.0,0.0,1.0,0.0,,,,left,1.480590799999845,60.81588150000061,wp8,52.47058819999984,55.96017380000012,60.81588150000061,None,False,2.0,['r'],False,0.2222222222222222,0.3333333333333333,0.3333333333333333,2.0,2.0,0.9656336071428248,0.0119627879815068,wait_cost,1.0,1.0,60.03298350000023,None,wp8,2,2023-04-18_11h33.55.612,threat_forest,2021.2.3,60.20473221250338,False,63.0,0.26666666666666666,0.31666666666666665,-1.5022222222222226,-1.2777777777777781,0,0,0,0.3924411973103014,0.0119627879815068,0.2222222222222222,0.2222222222222222,0.3333333333333333,0.6666666666666667,-1.666666666666667,-1.4444444444444446,0.5555555555555554,0.5555555555555554,0.0,2.0,-1.0,2.0,0,0,0
2.0,0.0,2.0,0.0,2.0,0.0,2.0,0.0,,,,right,0.4555176999992909,67.92593940000006,wp8,52.47058819999984,55.96017380000012,67.92593940000006,None,True,1.0,['r'],False,0.2222222222222222,0.3333333333333333,0.3333333333333333,2.0,2.0,0.9656336071428248,0.0504359153923011,unsucc_cost,1.0,0.0,64.32896489999985,None,wp8,2,2023-04-18_11h33.55.612,threat_forest,2021.2.3,60.20473221250338,True,63.0,0.26666666666666666,0.31666666666666665,-1.5022222222222226,-1.2777777777777781,0,0,1,-0.7863207046412831,0.0504359153923011,1.0,0.2222222222222222,0.3333333333333333,0.6666666666666667,-1.666666666666667,-1.4444444444444446,-0.44444444444444464,0.0,0.0,2.0,-1.0,1.0,1,0,0
3.0,0.0,3.0,0.0,0.0,0.0,0.0,0.0,73.22146969999994,76.73408199999994,None,left,0.6603391000007832,80.51445299999978,wp8,73.22146969999994,76.73408199999994,80.51445299999978,None,False,5.0,['r'],False,0.2222222222222222,0.6666666666666666,0.6666666666666666,2.0,2.0,0.77250688571426,-0.082351114778616,wait_cost,1.0,4.0,,,wp8,2,2023-04-18_11h33.55.612,threat_forest,2021.2.3,60.20473221250338,False,49.0,0.5833333333333333,0.42499999999999993,-0.888888888888889,-1.1955555555555557,0,0,0,-0.4150017880254919,-0.082351114778616,0.2222222222222222,0.2222222222222222,0.6666666666666666,0.33333333333333337,-1.3333333333333335,-1.777777777777778,3.2222222222222223,3.2222222222222223,0.0,2.0,-1.0,5.0,0,0,0
3.0,0.0,3.0,0.0,1.0,0.0,1.0,0.0,,,,right,0.3736466999998811,85.40951580000001,wp8,73.22146969999994,76.73408199999994,85.40951580000001,None,True,4.0,['r'],False,0.2222222222222222,0.6666666666666666,0.6666666666666666,2.0,2.0,0.77250688571426,-0.0341363740283493,succ_gain,1.0,6.0,83.21131849999983,None,wp8,2,2023-04-18_11h33.55.612,threat_forest,2021.2.3,60.20473221250338,True,49.0,0.5833333333333333,0.42499999999999993,-0.888888888888889,-1.1955555555555557,0,0,1,-0.9844445804396168,-0.0341363740283493,0.2222222222222222,0.2222222222222222,0.6666666666666666,0.33333333333333337,-1.3333333333333335,-1.777777777777778,2.2222222222222223,2.2222222222222223,0.0,2.0,-1.0,4.0,0,0,0
3.0,0.0,3.0,0.0,2.0,0.0,2.0,0.0,,,,left,1.8004657000001316,89.83878189999996,wp8,89.83878189999996,None,85.80922760000067,87.82362600000033,True,6.0,['r'],True,0.5,0.5,0.0,0.0,2.0,0.6309297535714574,0.1111111111111111,succ_gain,0.0,6.0,87.82362600000033,None,wp8,2,2023-04-18_11h33.55.612,threat_forest,2021.2.3,60.20473221250338,True,49.0,0.5833333333333333,0.42499999999999993,-0.888888888888889,-1.1955555555555557,1,1,1,0.5880453536615918,0.1111111111111111,0.5,0.5,0.5,1.0,0.0,0.0,6.0,6.0,1.0,2.0,1.0,6.0,0,1,1
3.0,0.0,3.0,0.0,3.0,0.0,3.0,0.0,,,,right,1.6285655000001498,97.13182719999986,wp8,97.13182719999986,None,85.80922760000067,87.82362600000033,False,6.0,['r'],True,0.5,0.5,0.0,0.0,2.0,0.6309297535714574,-0.1822916666666666,wait_cost,0.0,5.0,93.68483780000042,None,wp8,2,2023-04-18_11h33.55.612,threat_forest,2021.2.3,60.20473221250338,False,49.0,0.5833333333333333,0.42499999999999993,-0.888888888888889,-1.1955555555555557,1,1,0,0.4876995659877251,-0.1822916666666666,0.0,0.5,0.5,1.0,0.0,0.0,6.0,6.0,1.0,2.0,-1.0,6.0,0,1,1
3.0,0.0,3.0,0.0,4.0,0.0,4.0,0.0,,,,left,0.7489221000005273,103.59245270000063,wp8,103.59245270000063,None,85.80922760000067,87.82362600000033,True,5.0,['r'],True,0.5,0.5,0.0,0.0,2.0,0.6309297535714574,-0.2222222222222222,succ_gain,0.0,6.0,100.79484589999991,None,wp8,2,2023-04-18_11h33.55.612,threat_forest,2021.2.3,60.20473221250338,True,49.0,0.5833333333333333,0.42499999999999993,-0.888888888888889,-1.1955555555555557,1,1,1,-0.2891203062135979,-0.2222222222222222,0.0,0.5,0.5,1.0,0.0,0.0,5.0,5.0,1.0,2.0,-1.0,5.0,0,1,1
3.0,0.0,3.0,0.0,5.0,0.0,5.0,0.0,,,,right,0.6701384999996662,107.9221465999999,wp8,107.9221465999999,None,85.80922760000067,87.82362600000033,False,6.0,['r'],True,0.5,0.5,0.0,0.0,2.0,0.6309297535714574,0.0,wait_cost,0.0,5.0,106.37295050000012,None,wp8,2,2023-04-18_11h33.55.612,threat_forest,2021.2.3,60.20473221250338,False,49.0,0.5833333333333333,0.42499999999999993,-0.888888888888889,-1.1955555555555557,1,1,0,-0.40027087154260765,0.0,0.0,0.5,0.5,1.0,0.0,0.0,6.0,6.0,1.0,2.0,1.0,6.0,0,1,1
3.0,0.0,3.0,0.0,6.0,0.0,6.0,0.0,,,,right,0.3834153999996488,113.7832016000002,wp8,113.7832016000002,None,85.80922760000067,87.82362600000033,False,5.0,['r'],True,0.5,0.5,0.0,0.0,2.0,0.6309297535714574,0.0,wait_cost,0.0,4.0,110.63569120000012,None,wp8,2,2023-04-18_11h33.55.612,threat_forest,2021.2.3,60.20473221250338,False,49.0,0.5833333333333333,0.42499999999999993,-0.888888888888889,-1.1955555555555557,1,1,0,-0.9586362822506874,0.0,0.0,0.5,0.5,1.0,0.0,0.0,5.0,5.0,1.0,2.0,-1.0,5.0,0,1,1
3.0,0.0,3.0,0.0,7.0,0.0,7.0,0.0,,,,right,1.189641500000107,119.0616931000004,wp8,114.19917119999992,116.21370340000067,119.0616931000004,None,True,4.0,['r'],False,0.2222222222222222,0.6666666666666666,0.6666666666666666,2.0,2.0,0.77250688571426,0.0,fight_cost,1.0,1.0,116.21370340000068,None,wp8,2,2023-04-18_11h33.55.612,threat_forest,2021.2.3,60.20473221250338,True,49.0,0.5833333333333333,0.42499999999999993,-0.888888888888889,-1.1955555555555557,0,0,1,0.17365200123126465,0.0,0.0,0.2222222222222222,0.6666666666666666,0.33333333333333337,-1.3333333333333335,-1.777777777777778,2.2222222222222223,2.2222222222222223,0.0,2.0,-1.0,4.0,0,0,0
4.0,0.0,4.0,0.0,0.0,0.0,0.0,0.0,123.26546229999984,126.7705065,None,right,1.1631622999993851,128.6191490000001,wp8,123.26546229999984,126.77050650000001,128.6191490000001,None,True,4.0,['r'],False,0.6,0.6,0.0,0.0,1.0,0.6126016192893442,0.106823090374617,unsucc_cost,1.0,2.0,,,wp8,2,2023-04-18_11h33.55.612,threat_forest,2021.2.3,60.20473221250338,True,38.0,0.6125,0.5979166666666667,-0.5218750000000001,-0.7053819444444445,1,1,1,0.15114241667988287,0.106823090374617,0.6,0.6,0.6,1.0,-0.20000000000000007,-0.20000000000000007,3.8,3.8,0.0,1.0,-1.0,4.0,0,1,1
4.0,0.0,4.0,0.0,1.0,0.0,1.0,0.0,,,,right,0.5831082000004244,133.79756670000006,wp8,123.26546229999984,126.77050650000001,133.79756670000006,None,True,2.0,['r'],False,0.6,0.6,0.0,0.0,1.0,0.6126016192893442,0.0828427075234651,succ_gain,1.0,3.0,131.81573209999988,None,wp8,2,2023-04-18_11h33.55.612,threat_forest,2021.2.3,60.20473221250338,True,38.0,0.6125,0.5979166666666667,-0.5218750000000001,-0.7053819444444445,1,1,1,-0.5393825180842143,0.0828427075234651,0.6,0.6,0.6,1.0,-0.20000000000000007,-0.20000000000000007,1.7999999999999998,1.7999999999999998,0.0,1.0,-1.0,2.0,0,1,1
4.0,0.0,4.0,0.0,2.0,0.0,2.0,0.0,,,,right,0.9542700000001788,139.77529390000018,wp8,123.26546229999984,126.77050650000001,139.77529390000018,None,True,3.0,['r'],False,0.6,0.6,0.0,0.0,1.0,0.6126016192893442,0.158616267414093,succ_gain,1.0,4.0,136.4280918000004,None,wp8,2,2023-04-18_11h33.55.612,threat_forest,2021.2.3,60.20473221250338,True,38.0,0.6125,0.5979166666666667,-0.5218750000000001,-0.7053819444444445,1,1,1,-0.04680862870802345,0.158616267414093,0.6,0.6,0.6,1.0,-0.20000000000000007,-0.20000000000000007,2.8,2.8,0.0,1.0,1.0,3.0,0,1,1
4.0,0.0,4.0,0.0,3.0,0.0,3.0,0.0,,,,left,1.7122836999997162,145.49078350000036,wp8,145.49078350000036,None,140.7576852000002,142.7723317,True,4.0,['r'],True,0.46875,0.625,0.25,2.0,1.0,0.9634951148421658,0.0079801454544067,succ_gain,0.0,5.0,142.7723317,None,wp8,2,2023-04-18_11h33.55.612,threat_forest,2021.2.3,60.20473221250338,True,38.0,0.6125,0.5979166666666667,-0.5218750000000001,-0.7053819444444445,0,0,1,0.537827976607388,0.0079801454544067,0.46875,0.46875,0.625,0.75,-0.875,-0.84375,3.15625,3.15625,1.0,1.0,1.0,4.0,0,0,0
4.0,0.0,4.0,0.0,4.0,0.0,4.0,0.0,,,,left,2.3954604000000472,152.2138283000004,wp8,152.2138283000004,None,140.7576852000002,142.7723317,True,5.0,['r'],True,0.46875,0.625,0.25,2.0,1.0,0.9634951148421658,-0.1879666137695312,fight_cost,0.0,2.0,149.2495017000001,None,wp8,2,2023-04-18_11h33.55.612,threat_forest,2021.2.3,60.20473221250338,True,38.0,0.6125,0.5979166666666667,-0.5218750000000001,-0.7053819444444445,0,0,1,0.8735754462088042,-0.1879666137695312,0.0,0.46875,0.625,0.75,-0.875,-0.84375,4.15625,4.15625,1.0,1.0,1.0,5.0,0,0,0
4.0,0.0,4.0,0.0,5.0,0.0,5.0,0.0,,,,left,1.898142199999711,157.7584725000006,wp8,157.7584725000006,None,140.7576852000002,142.7723317,True,2.0,['r'],True,0.46875,0.625,0.25,2.0,1.0,0.9634951148421658,-0.0656249999999999,fight_cost,0.0,0.0,156.64269810000042,None,wp8,2,2023-04-18_11h33.55.612,threat_forest,2021.2.3,60.20473221250338,True,38.0,0.6125,0.5979166666666667,-0.5218750000000001,-0.7053819444444445,0,0,1,0.6408756183505897,-0.0656249999999999,0.46875,0.46875,0.625,0.75,-0.875,-0.84375,1.15625,1.15625,1.0,1.0,-1.0,2.0,0,0,0
5.0,0.0,5.0,0.0,0.0,0.0,0.0,0.0,163.64547250000032,167.14938950000032,None,left,0.9758622999997896,170.82985860000008,wp8,170.82985860000008,None,163.64547250000032,167.14938950000032,True,5.0,['p'],True,0.5,0.5,0.0,0.0,1.0,0.6309297535714574,0.07495910506875,succ_gain,0.0,6.0,,,wp8,2,2023-04-18_11h33.55.612,threat_forest,2021.2.3,60.20473221250338,True,24.0,0.55,0.58125,-0.9100000000000001,-0.7159375000000001,1,0,1,-0.024433788588409135,0.07495910506875,0.5,0.5,0.5,1.0,-0.5,-0.5,4.5,4.5,1.0,1.0,-1.0,5.0,0,0,1
5.0,0.0,5.0,0.0,1.0,0.0,1.0,0.0,,,,left,0.9443648999995276,177.1903738000001,wp8,177.1903738000001,None,163.64547250000032,167.14938950000032,True,6.0,['p'],True,0.5,0.5,0.0,0.0,1.0,0.6309297535714574,-0.0455835937499999,succ_gain,0.0,6.0,173.84349620000012,None,wp8,2,2023-04-18_11h33.55.612,threat_forest,2021.2.3,60.20473221250338,True,24.0,0.55,0.58125,-0.9100000000000001,-0.7159375000000001,1,0,1,-0.05724264091686127,-0.0455835937499999,0.5,0.5,0.5,1.0,-0.5,-0.5,5.5,5.5,1.0,1.0,1.0,6.0,0,0,1
5.0,0.0,5.0,0.0,2.0,0.0,2.0,0.0,,,,left,1.442817500000274,181.32016980000023,wp8,181.32016980000023,None,163.64547250000032,167.14938950000032,True,6.0,['p'],True,0.5,0.5,0.0,0.0,1.0,0.6309297535714574,0.0760874999999999,unsucc_cost,0.0,4.0,180.1706067000005,None,wp8,2,2023-04-18_11h33.55.612,threat_forest,2021.2.3,60.20473221250338,True,24.0,0.55,0.58125,-0.9100000000000001,-0.7159375000000001,1,0,1,0.36659779916711416,0.0760874999999999,0.5,0.5,0.5,1.0,-0.5,-0.5,5.5,5.5,1.0,1.0,-1.0,6.0,0,0,1
5.0,0.0,5.0,0.0,3.0,0.0,3.0,0.0,,,,left,1.577574399999321,185.5991167000002,wp8,185.5991167000002,None,163.64547250000032,167.14938950000032,True,4.0,['p'],True,0.5,0.5,0.0,0.0,1.0,0.6309297535714574,0.0943624999999999,unsucc_cost,0.0,2.0,184.79955490000063,None,wp8,2,2023-04-18_11h33.55.612,threat_forest,2021.2.3,60.20473221250338,True,24.0,0.55,0.58125,-0.9100000000000001,-0.7159375000000001,1,0,1,0.455888477553614,0.0943624999999999,0.5,0.5,0.5,1.0,-0.5,-0.5,3.5,3.5,1.0,1.0,-1.0,4.0,0,0,1
5.0,0.0,5.0,0.0,4.0,0.0,4.0,0.0,,,,right,0.6088952999998583,190.3282353000004,wp8,190.3282353000004,None,163.64547250000032,167.14938950000032,False,2.0,['p'],True,0.5,0.5,0.0,0.0,1.0,0.6309297535714574,0.0950499999999999,wait_cost,0.0,1.0,189.21208519999985,None,wp8,2,2023-04-18_11h33.55.612,threat_forest,2021.2.3,60.20473221250338,False,24.0,0.55,0.58125,-0.9100000000000001,-0.7159375000000001,1,0,0,-0.4961089472348793,0.0950499999999999,0.5,0.5,0.5,1.0,-0.5,-0.5,1.5,1.5,1.0,1.0,-1.0,2.0,0,0,1
5.0,0.0,5.0,0.0,5.0,0.0,5.0,0.0,,,,right,0.9503316999998788,193.94166850000056,wp8,190.96067250000036,192.9752507000003,193.94166850000056,None,True,1.0,['p'],False,0.36,0.6,0.4,2.0,1.0,0.9801625908629508,0.1674,succ_gain,1.0,2.0,192.9752507000003,None,wp8,2,2023-04-18_11h33.55.612,threat_forest,2021.2.3,60.20473221250338,True,24.0,0.55,0.58125,-0.9100000000000001,-0.7159375000000001,0,0,1,-0.05094419743437395,0.1674,1.0,0.36,0.6,0.6,-1.4000000000000004,-1.3200000000000003,-0.3200000000000003,0.0,0.0,1.0,-1.0,1.0,1,0,0
5.0,0.0,5.0,0.0,6.0,0.0,6.0,0.0,,,,right,0.798234500000035,197.8542593000002,wp8,190.96067250000036,192.9752507000003,197.8542593000002,None,True,2.0,['p'],False,0.36,0.6,0.4,2.0,1.0,0.9801625908629508,-0.0699999999999999,fight_cost,1.0,0.0,196.9381996000002,None,wp8,2,2023-04-18_11h33.55.612,threat_forest,2021.2.3,60.20473221250338,True,24.0,0.55,0.58125,-0.9100000000000001,-0.7159375000000001,0,0,1,-0.22535286505145152,-0.0699999999999999,0.36,0.36,0.6,0.6,-1.4000000000000004,-1.3200000000000003,0.6799999999999997,0.6799999999999997,0.0,1.0,1.0,2.0,0,0,0
6.0,0.0,6.0,0.0,0.0,0.0,0.0,0.0,203.84201519999988,207.3451173000003,None,right,1.142791500000385,209.728435,wp8,203.84201519999988,207.3451173000003,209.728435,None,True,4.0,['p'],False,0.2,0.2,0.0,0.0,1.0,0.4554859150035951,0.0007341423130033,unsucc_cost,1.0,2.0,,,wp8,2,2023-04-18_11h33.55.612,threat_forest,2021.2.3,60.20473221250338,True,50.0,0.35,0.45,-1.2625000000000002,-1.0862500000000002,0,0,1,0.13347395347526314,0.0007341423130033,0.2,0.2,0.2,1.0,-1.4000000000000001,-1.4000000000000001,2.5999999999999996,2.5999999999999996,0.0,1.0,-1.0,4.0,0,0,0
6.0,0.0,6.0,0.0,1.0,0.0,1.0,0.0,,,,left,2.1067741999995637,213.95611629999985,wp8,203.84201519999988,207.3451173000003,213.95611629999985,None,False,2.0,['p'],False,0.2,0.2,0.0,0.0,1.0,0.4554859150035951,-0.0051644691467286,wait_cost,1.0,1.0,212.90660149999985,None,wp8,2,2023-04-18_11h33.55.612,threat_forest,2021.2.3,60.20473221250338,False,50.0,0.35,0.45,-1.2625000000000002,-1.0862500000000002,0,0,0,0.7451579624915307,-0.0051644691467286,0.2,0.2,0.2,1.0,-1.4000000000000001,-1.4000000000000001,0.5999999999999999,0.5999999999999999,0.0,1.0,-1.0,2.0,0,0,0
6.0,0.0,6.0,0.0,2.0,0.0,2.0,0.0,,,,left,0.8342832000007547,220.64960539999996,wp8,220.64960539999996,None,216.08730990000004,218.10178189999988,True,1.0,['p'],True,0.375,0.5,0.25,1.0,1.0,0.9850568223215076,0.0439410781860352,succ_gain,0.0,2.0,218.10178189999988,None,wp8,2,2023-04-18_11h33.55.612,threat_forest,2021.2.3,60.20473221250338,True,50.0,0.35,0.45,-1.2625000000000002,-1.0862500000000002,0,0,1,-0.1811823659174443,0.0439410781860352,1.0,0.375,0.5,0.75,-1.25,-1.125,-0.125,0.0,1.0,1.0,-1.0,1.0,1,0,0
6.0,0.0,6.0,0.0,3.0,0.0,3.0,0.0,,,,left,1.5448938999998063,224.31291359999975,wp8,224.31291359999975,None,216.08730990000004,218.10178189999988,True,2.0,['p'],True,0.375,0.5,0.25,1.0,1.0,0.9850568223215076,0.0438836669921876,succ_gain,0.0,3.0,223.53000690000044,None,wp8,2,2023-04-18_11h33.55.612,threat_forest,2021.2.3,60.20473221250338,True,50.0,0.35,0.45,-1.2625000000000002,-1.0862500000000002,0,0,1,0.43495523485231685,0.0438836669921876,0.375,0.375,0.5,0.75,-1.25,-1.125,0.875,0.875,1.0,1.0,1.0,2.0,0,0,0
6.0,0.0,6.0,0.0,4.0,0.0,4.0,0.0,,,,right,1.7588252999994438,229.12609900000007,wp8,225.8781872999998,227.89258150000023,229.12609900000007,None,True,3.0,['p'],False,0.2,0.2,0.0,0.0,1.0,0.4554859150035951,-0.0550625000000001,succ_gain,1.0,4.0,227.89258150000023,None,wp8,2,2023-04-18_11h33.55.612,threat_forest,2021.2.3,60.20473221250338,True,50.0,0.35,0.45,-1.2625000000000002,-1.0862500000000002,0,0,1,0.564646143028565,-0.0550625000000001,0.2,0.2,0.2,1.0,-1.4000000000000001,-1.4000000000000001,1.5999999999999999,1.5999999999999999,0.0,1.0,1.0,3.0,0,0,0
6.0,0.0,6.0,0.0,5.0,0.0,5.0,0.0,,,,right,1.2537663000002794,234.40400200000025,wp8,225.8781872999998,227.89258150000023,234.40400200000025,None,True,4.0,['p'],False,0.2,0.2,0.0,0.0,1.0,0.4554859150035951,-0.535,unsucc_cost,1.0,2.0,232.92126569999985,None,wp8,2,2023-04-18_11h33.55.612,threat_forest,2021.2.3,60.20473221250338,True,50.0,0.35,0.45,-1.2625000000000002,-1.0862500000000002,0,0,1,0.22615206120672787,-0.535,0.0,0.2,0.2,1.0,-1.4000000000000001,-1.4000000000000001,2.5999999999999996,2.5999999999999996,0.0,1.0,1.0,4.0,0,0,0
6.0,0.0,6.0,0.0,6.0,0.0,6.0,0.0,,,,left,1.7655886000002283,239.88202199999975,wp8,239.88202199999975,None,235.6858247,237.7001491000001,True,2.0,['p'],True,0.375,0.5,0.25,1.0,1.0,0.9850568223215076,0.0875,succ_gain,0.0,3.0,237.7001491000001,None,wp8,2,2023-04-18_11h33.55.612,threat_forest,2021.2.3,60.20473221250338,True,50.0,0.35,0.45,-1.2625000000000002,-1.0862500000000002,0,0,1,0.5684841192110833,0.0875,0.375,0.375,0.5,0.75,-1.25,-1.125,0.875,0.875,1.0,1.0,-1.0,2.0,0,0,0
6.0,0.0,6.0,0.0,7.0,0.0,7.0,0.0,,,,left,1.0900468000008914,247.32560509999985,wp8,241.67992099999992,243.69452460000048,247.32560509999985,None,False,3.0,['p'],False,0.2,0.2,0.0,0.0,1.0,0.4554859150035951,0.0,wait_cost,1.0,2.0,243.69452460000048,None,wp8,2,2023-04-18_11h33.55.612,threat_forest,2021.2.3,60.20473221250338,False,50.0,0.35,0.45,-1.2625000000000002,-1.0862500000000002,0,0,0,0.08622063109997238,0.0,0.0,0.2,0.2,1.0,-1.4000000000000001,-1.4000000000000001,1.5999999999999999,1.5999999999999999,0.0,1.0,1.0,3.0,0,0,0
7.0,0.0,7.0,0.0,0.0,0.0,0.0,0.0,252.5288563000004,256.0329622999998,None,left,1.7530314000005092,259.30083900000045,wp8,259.30083900000045,None,252.5288563000004,256.0329622999998,True,4.0,['p'],True,0.1975308641975308,0.2222222222222222,0.1111111111111111,1.0,2.0,0.7461067557824965,-0.0032005207389234,unsucc_cost,0.0,2.0,,,wp8,2,2023-04-18_11h33.55.612,threat_forest,2021.2.3,60.20473221250338,True,12.0,0.3111111111111111,0.33055555555555555,-1.1204938271604938,-1.191496913580247,0,0,1,0.5613465179295662,-0.0032005207389234,0.1975308641975308,0.1975308641975308,0.2222222222222222,0.8888888888888888,-1.4444444444444444,-1.3209876543209877,2.6790123456790123,2.6790123456790123,1.0,2.0,-1.0,4.0,0,0,0
7.0,0.0,7.0,0.0,1.0,0.0,1.0,0.0,,,,left,0.9818401000002268,264.1422532000006,wp8,261.0787184999999,263.0930533999999,264.1422532000006,None,False,2.0,['p'],False,0.32,0.4,0.2,1.0,2.0,0.9455672104350704,0.0318220362451399,wait_cost,1.0,1.0,263.0930533999999,None,wp8,2,2023-04-18_11h33.55.612,threat_forest,2021.2.3,60.20473221250338,False,12.0,0.3111111111111111,0.33055555555555555,-1.1204938271604938,-1.191496913580247,1,0,0,-0.01832681484306989,0.0318220362451399,0.32,0.32,0.4,0.8,-1.0,-0.92,1.08,1.08,0.0,2.0,-1.0,2.0,0,0,1
7.0,0.0,7.0,0.0,2.0,0.0,2.0,0.0,,,,left,0.8963972999999896,268.4217405999998,wp8,268.4217405999998,None,265.1413879000001,267.1558352000002,True,1.0,['p'],True,0.1975308641975308,0.2222222222222222,0.1111111111111111,1.0,2.0,0.7461067557824965,0.0652194928066033,unsucc_cost,0.0,0.0,267.1558352000002,None,wp8,2,2023-04-18_11h33.55.612,threat_forest,2021.2.3,60.20473221250338,True,12.0,0.3111111111111111,0.33055555555555555,-1.1204938271604938,-1.191496913580247,0,0,1,-0.10937154910810569,0.0652194928066033,1.0,0.1975308641975308,0.2222222222222222,0.8888888888888888,-1.4444444444444444,-1.3209876543209877,-0.32098765432098775,0.0,1.0,2.0,-1.0,1.0,1,0,0
8.0,0.0,8.0,0.0,0.0,0.0,0.0,0.0,273.80720010000005,277.3130970000002,None,right,2.096113600000536,281.02707009999995,wp8,273.80720010000005,277.3130970000002,281.02707009999995,None,True,5.0,['r'],False,0.375,0.5,0.25,1.0,2.0,0.9850568223215076,0.0170934234469043,succ_gain,1.0,6.0,,,wp8,2,2023-04-18_11h33.55.612,threat_forest,2021.2.3,60.20473221250338,True,42.0,0.39285714285714285,0.35198412698412695,-0.9566326530612245,-1.038563240110859,1,1,1,0.7400849634636496,0.0170934234469043,0.375,0.375,0.5,0.75,-0.75,-0.75,4.25,4.25,0.0,2.0,-1.0,5.0,0,1,1
8.0,0.0,8.0,0.0,1.0,0.0,1.0,0.0,,,,right,1.0169605000000956,286.39031690000047,wp8,286.39031690000047,None,283.1413456999999,285.1556644000002,False,6.0,['r'],True,0.2448979591836734,0.2857142857142857,0.1428571428571428,1.0,2.0,0.8400769154957735,-0.0786263608403641,wait_cost,0.0,5.0,285.1556644000002,None,wp8,2,2023-04-18_11h33.55.612,threat_forest,2021.2.3,60.20473221250338,False,42.0,0.39285714285714285,0.35198412698412695,-0.9566326530612245,-1.038563240110859,0,0,0,0.01681827658755487,-0.0786263608403641,0.2448979591836734,0.2448979591836734,0.2857142857142857,0.8571428571428572,-1.2857142857142856,-1.163265306122449,4.836734693877551,4.836734693877551,1.0,2.0,1.0,6.0,0,0,0
8.0,0.0,8.0,0.0,2.0,0.0,2.0,0.0,,,,right,1.4170843000001696,292.04977000000054,wp8,287.43728960000044,289.45167649999985,292.04977000000054,None,True,5.0,['r'],False,0.375,0.5,0.25,1.0,2.0,0.9850568223215076,0.0556713511442823,succ_gain,1.0,6.0,289.45167649999985,None,wp8,2,2023-04-18_11h33.55.612,threat_forest,2021.2.3,60.20473221250338,True,42.0,0.39285714285714285,0.35198412698412695,-0.9566326530612245,-1.038563240110859,1,1,1,0.34860145082335364,0.0556713511442823,0.375,0.375,0.5,0.75,-0.75,-0.75,4.25,4.25,0.0,2.0,-1.0,5.0,0,1,1
8.0,0.0,8.0,0.0,3.0,0.0,3.0,0.0,,,,left,0.6931735999996818,298.8433892000003,wp8,287.43728960000044,289.45167649999985,298.8433892000003,None,False,6.0,['r'],False,0.375,0.5,0.25,1.0,2.0,0.9850568223215076,-0.3068064697977405,wait_cost,1.0,5.0,295.5126540000001,None,wp8,2,2023-04-18_11h33.55.612,threat_forest,2021.2.3,60.20473221250338,False,42.0,0.39285714285714285,0.35198412698412695,-0.9566326530612245,-1.038563240110859,1,1,0,-0.36647480611333905,-0.3068064697977405,0.0,0.375,0.5,0.75,-0.75,-0.75,5.25,5.25,0.0,2.0,1.0,6.0,0,1,1
8.0,0.0,8.0,0.0,4.0,0.0,4.0,0.0,,,,left,0.7083169000006819,304.45503310000004,wp8,287.43728960000044,289.45167649999985,304.45503310000004,None,False,5.0,['r'],False,0.375,0.5,0.25,1.0,2.0,0.9850568223215076,-0.3657763448172636,wait_cost,1.0,4.0,301.5736391999999,None,wp8,2,2023-04-18_11h33.55.612,threat_forest,2021.2.3,60.20473221250338,False,42.0,0.39285714285714285,0.35198412698412695,-0.9566326530612245,-1.038563240110859,1,1,0,-0.34486368655989097,-0.3657763448172636,0.0,0.375,0.5,0.75,-0.75,-0.75,4.25,4.25,0.0,2.0,-1.0,5.0,0,1,1
8.0,0.0,8.0,0.0,5.0,0.0,5.0,0.0,,,,right,0.9508346999991772,309.3834052000002,wp8,309.3834052000002,None,305.1873145999998,307.2017456000003,False,4.0,['r'],True,0.2448979591836734,0.2857142857142857,0.1428571428571428,1.0,2.0,0.8400769154957735,-0.5011453561016244,wait_cost,0.0,3.0,307.2017456000003,None,wp8,2,2023-04-18_11h33.55.612,threat_forest,2021.2.3,60.20473221250338,False,42.0,0.39285714285714285,0.35198412698412695,-0.9566326530612245,-1.038563240110859,0,0,0,-0.050415048580243836,-0.5011453561016244,0.0,0.2448979591836734,0.2857142857142857,0.8571428571428572,-1.2857142857142856,-1.163265306122449,2.836734693877551,2.836734693877551,1.0,2.0,-1.0,4.0,0,0,0
8.0,0.0,8.0,0.0,6.0,0.0,6.0,0.0,,,,left,1.6320592000001852,313.53081180000027,wp8,310.3659045000004,312.3803330999999,313.53081180000027,None,False,3.0,['r'],False,0.375,0.5,0.25,1.0,2.0,0.9850568223215076,-0.5087691326530612,wait_cost,1.0,2.0,312.3803330999999,None,wp8,2,2023-04-18_11h33.55.612,threat_forest,2021.2.3,60.20473221250338,False,42.0,0.39285714285714285,0.35198412698412695,-0.9566326530612245,-1.038563240110859,1,1,0,0.48984253039392855,-0.5087691326530612,0.0,0.375,0.5,0.75,-0.75,-0.75,2.25,2.25,0.0,2.0,-1.0,3.0,0,1,1
8.0,0.0,8.0,0.0,7.0,0.0,7.0,0.0,,,,right,1.1268874999996117,319.7903270000006,wp8,319.7903270000006,None,315.1946158999999,317.20902710000064,False,2.0,['r'],True,0.2448979591836734,0.2857142857142857,0.1428571428571428,1.0,2.0,0.8400769154957735,-0.7551020408163265,wait_cost,0.0,1.0,317.20902710000064,None,wp8,2,2023-04-18_11h33.55.612,threat_forest,2021.2.3,60.20473221250338,False,42.0,0.39285714285714285,0.35198412698412695,-0.9566326530612245,-1.038563240110859,0,0,0,0.11945940753698282,-0.7551020408163265,0.0,0.2448979591836734,0.2857142857142857,0.8571428571428572,-1.2857142857142856,-1.163265306122449,0.8367346938775511,0.8367346938775511,1.0,2.0,-1.0,2.0,0,0,0
9.0,0.0,9.0,0.0,0.0,0.0,0.0,0.0,326.1318785000003,329.6359853000004,None,left,0.5663103999995656,333.0783089000006,wp8,333.0783089000006,None,326.1318785000003,329.63598530000036,True,4.0,['r'],True,0.2857142857142857,0.2857142857142857,0.0,0.0,2.0,0.5445684476282007,0.0227016800734137,succ_gain,0.0,6.0,,,wp8,2,2023-04-18_11h33.55.612,threat_forest,2021.2.3,60.20473221250338,True,55.0,0.2928571428571428,0.34285714285714286,-1.0485714285714285,-1.0026020408163265,1,0,1,-0.5686129412074781,0.0227016800734137,0.2857142857142857,0.2857142857142857,0.2857142857142857,1.0,-0.8571428571428572,-0.8571428571428572,3.142857142857143,3.142857142857143,1.0,2.0,-1.0,4.0,0,0,1
9.0,0.0,9.0,0.0,1.0,0.0,1.0,0.0,,,,left,0.6963182999998025,338.9430173999999,wp8,333.6774542000003,335.6917948,338.9430173999999,None,False,6.0,['r'],False,0.24,0.3,0.2,2.0,2.0,0.9003120349047065,-0.1069245545540785,wait_cost,1.0,5.0,335.6917948,None,wp8,2,2023-04-18_11h33.55.612,threat_forest,2021.2.3,60.20473221250338,False,55.0,0.2928571428571428,0.34285714285714286,-1.0485714285714285,-1.0026020408163265,0,0,0,-0.3619483956041824,-0.1069245545540785,0.24,0.24,0.3,0.8,-1.4,-1.24,4.76,4.76,0.0,2.0,1.0,6.0,0,0,0
9.0,0.0,9.0,0.0,2.0,0.0,2.0,0.0,,,,left,0.6402364000005036,345.18341260000034,wp8,333.6774542000003,335.6917948,345.18341260000034,None,False,5.0,['r'],False,0.24,0.3,0.2,2.0,2.0,0.9003120349047065,-0.0038576902717201,wait_cost,1.0,4.0,341.6861918000004,None,wp8,2,2023-04-18_11h33.55.612,threat_forest,2021.2.3,60.20473221250338,False,55.0,0.2928571428571428,0.34285714285714286,-1.0485714285714285,-1.0026020408163265,0,0,0,-0.4459177958297839,-0.0038576902717201,0.24,0.24,0.3,0.8,-1.4,-1.24,3.76,3.76,0.0,2.0,-1.0,5.0,0,0,0
9.0,0.0,9.0,0.0,3.0,0.0,3.0,0.0,,,,left,0.924889500000063,350.19523050000043,wp8,350.19523050000043,None,345.8494533000003,347.86370290000013,True,4.0,['r'],True,0.2857142857142857,0.2857142857142857,0.0,0.0,2.0,0.5445684476282007,0.0512979591836735,succ_gain,0.0,6.0,347.86370290000013,None,wp8,2,2023-04-18_11h33.55.612,threat_forest,2021.2.3,60.20473221250338,True,55.0,0.2928571428571428,0.34285714285714286,-1.0485714285714285,-1.0026020408163265,1,0,1,-0.07808100806495276,0.0512979591836735,0.2857142857142857,0.2857142857142857,0.2857142857142857,1.0,-0.8571428571428572,-0.8571428571428572,3.142857142857143,3.142857142857143,1.0,2.0,-1.0,4.0,0,0,1
9.0,0.0,9.0,0.0,4.0,0.0,4.0,0.0,,,,right,0.6362233999998352,356.3596213999999,wp8,351.14446230000067,353.1587618000003,356.3596213999999,None,True,6.0,['r'],False,0.24,0.3,0.2,2.0,2.0,0.9003120349047065,-0.1139330612244898,succ_gain,1.0,6.0,353.1587618000003,None,wp8,2,2023-04-18_11h33.55.612,threat_forest,2021.2.3,60.20473221250338,True,55.0,0.2928571428571428,0.34285714285714286,-1.0485714285714285,-1.0026020408163265,0,0,1,-0.45220551945723886,-0.1139330612244898,0.0,0.24,0.3,0.8,-1.4,-1.24,4.76,4.76,0.0,2.0,1.0,6.0,0,0,0
9.0,0.0,9.0,0.0,5.0,0.0,5.0,0.0,,,,left,0.8220198999997592,361.76865520000047,wp8,351.14446230000067,353.1587618000003,361.76865520000047,None,False,6.0,['r'],False,0.24,0.3,0.2,2.0,2.0,0.9003120349047065,0.0,wait_cost,1.0,5.0,359.0366604999999,None,wp8,2,2023-04-18_11h33.55.612,threat_forest,2021.2.3,60.20473221250338,False,55.0,0.2928571428571428,0.34285714285714286,-1.0485714285714285,-1.0026020408163265,0,0,0,-0.19599067497354702,0.0,0.0,0.24,0.3,0.8,-1.4,-1.24,4.76,4.76,0.0,2.0,-1.0,6.0,0,0,0
9.0,0.0,9.0,0.0,6.0,0.0,6.0,0.0,,,,left,1.0737939000000551,367.11267039999984,wp8,367.11267039999984,None,362.6171355000006,364.63138530000015,True,5.0,['r'],True,0.2857142857142857,0.2857142857142857,0.0,0.0,2.0,0.5445684476282007,0.0,unsucc_cost,0.0,3.0,364.63138530000015,None,wp8,2,2023-04-18_11h33.55.612,threat_forest,2021.2.3,60.20473221250338,True,55.0,0.2928571428571428,0.34285714285714286,-1.0485714285714285,-1.0026020408163265,1,0,1,0.0711980782303298,0.0,0.0,0.2857142857142857,0.2857142857142857,1.0,-0.8571428571428572,-0.8571428571428572,4.142857142857142,4.142857142857142,1.0,2.0,-1.0,5.0,0,0,1
9.0,0.0,9.0,0.0,7.0,0.0,7.0,0.0,,,,left,0.7485575999999128,371.7269946000006,wp8,368.2117698000002,370.2261324000001,371.7269946000006,None,False,3.0,['r'],False,0.24,0.3,0.2,2.0,2.0,0.9003120349047065,-0.2,wait_cost,1.0,2.0,370.2261324000001,None,wp8,2,2023-04-18_11h33.55.612,threat_forest,2021.2.3,60.20473221250338,False,55.0,0.2928571428571428,0.34285714285714286,-1.0485714285714285,-1.0026020408163265,0,0,0,-0.28960712417555495,-0.2,0.0,0.24,0.3,0.8,-1.4,-1.24,1.76,1.76,0.0,2.0,-1.0,3.0,0,0,0
10.0,0.0,10.0,0.0,0.0,0.0,0.0,0.0,377.1385911000007,380.6497331000001,None,right,0.7414186000005429,382.3323214000002,wp8,377.1385911000007,380.64973310000005,382.3323214000002,None,True,4.0,['r'],False,0.2222222222222222,0.6666666666666666,0.6666666666666666,2.0,1.0,0.77250688571426,-0.0026222925028365,fight_cost,1.0,1.0,,,wp8,2,2023-04-18_11h33.55.612,threat_forest,2021.2.3,60.20473221250338,True,66.0,0.5,0.3964285714285714,-1.5,-1.2742857142857142,0,0,1,-0.2991899009074913,-0.0026222925028365,0.2222222222222222,0.2222222222222222,0.6666666666666666,0.33333333333333337,-2.0,-2.0,2.0,2.0,0.0,1.0,-1.0,4.0,0,0,0
10.0,0.0,10.0,0.0,1.0,0.0,1.0,0.0,,,,right,0.6924850999994305,386.31131689999984,wp8,377.1385911000007,380.64973310000005,386.31131689999984,None,True,1.0,['r'],False,0.2222222222222222,0.6666666666666666,0.6666666666666666,2.0,1.0,0.77250688571426,0.0101742832224085,succ_gain,1.0,2.0,385.11218950000057,None,wp8,2,2023-04-18_11h33.55.612,threat_forest,2021.2.3,60.20473221250338,True,66.0,0.5,0.3964285714285714,-1.5,-1.2742857142857142,0,0,1,-0.36746855739843093,0.0101742832224085,1.0,0.2222222222222222,0.6666666666666666,0.33333333333333337,-2.0,-2.0,-1.0,0.0,0.0,1.0,-1.0,1.0,1,0,0
10.0,0.0,10.0,0.0,2.0,0.0,2.0,0.0,,,,right,0.6617977999994764,391.6734192000004,wp8,377.1385911000007,380.64973310000005,391.6734192000004,None,True,2.0,['r'],False,0.2222222222222222,0.6666666666666666,0.6666666666666666,2.0,1.0,0.77250688571426,0.0048344383478128,succ_gain,1.0,3.0,389.04199400000016,None,wp8,2,2023-04-18_11h33.55.612,threat_forest,2021.2.3,60.20473221250338,True,66.0,0.5,0.3964285714285714,-1.5,-1.2742857142857142,0,0,1,-0.41279520776809203,0.0048344383478128,0.2222222222222222,0.2222222222222222,0.6666666666666666,0.33333333333333337,-2.0,-2.0,0.0,0.0,0.0,1.0,1.0,2.0,0,0,0
10.0,0.0,10.0,0.0,3.0,0.0,3.0,0.0,,,,right,0.9602328999999372,396.601705,wp8,396.601705,None,392.3557293000004,394.3701931000005,False,3.0,['r'],True,0.3333333333333333,0.3333333333333333,0.0,0.0,1.0,0.5793801642856949,0.1003086419753085,wait_cost,0.0,2.0,394.3701931000005,None,wp8,2,2023-04-18_11h33.55.612,threat_forest,2021.2.3,60.20473221250338,False,66.0,0.5,0.3964285714285714,-1.5,-1.2742857142857142,1,0,0,-0.04057941977728592,0.1003086419753085,0.3333333333333333,0.3333333333333333,0.3333333333333333,1.0,-1.0000000000000002,-1.0000000000000002,1.9999999999999998,1.9999999999999998,1.0,1.0,1.0,3.0,0,0,1
10.0,0.0,10.0,0.0,4.0,0.0,4.0,0.0,,,,left,0.6742513999997755,400.7978426999998,wp8,400.7978426999998,None,392.3557293000004,394.3701931000005,True,2.0,['r'],True,0.3333333333333333,0.3333333333333333,0.0,0.0,1.0,0.5793801642856949,0.052469135802469,succ_gain,0.0,3.0,399.5986277000002,None,wp8,2,2023-04-18_11h33.55.612,threat_forest,2021.2.3,60.20473221250338,True,66.0,0.5,0.3964285714285714,-1.5,-1.2742857142857142,1,0,1,-0.39415224058362214,0.052469135802469,0.3333333333333333,0.3333333333333333,0.3333333333333333,1.0,-1.0000000000000002,-1.0000000000000002,0.9999999999999998,0.9999999999999998,1.0,1.0,-1.0,2.0,0,0,1
10.0,0.0,10.0,0.0,5.0,0.0,5.0,0.0,,,,right,0.9015885999997408,406.1761235000004,wp8,401.4972598000004,403.5116840999999,406.1761235000004,None,True,3.0,['r'],False,0.2222222222222222,0.6666666666666666,0.6666666666666666,2.0,1.0,0.77250688571426,-0.052469135802469,unsucc_cost,1.0,1.0,403.5116840999999,None,wp8,2,2023-04-18_11h33.55.612,threat_forest,2021.2.3,60.20473221250338,True,66.0,0.5,0.3964285714285714,-1.5,-1.2742857142857142,0,0,1,-0.10359696052490641,-0.052469135802469,0.2222222222222222,0.2222222222222222,0.6666666666666666,0.33333333333333337,-2.0,-2.0,1.0,1.0,0.0,1.0,1.0,3.0,0,0,0
10.0,0.0,10.0,0.0,6.0,0.0,6.0,0.0,,,,right,0.9355689000003622,409.889244,wp8,409.889244,None,407.1085395999999,409.12312010000005,False,1.0,['r'],True,0.3333333333333333,0.3333333333333333,0.0,0.0,1.0,0.5793801642856949,0.3333333333333332,wait_cost,0.0,0.0,409.1231201000001,None,wp8,2,2023-04-18_11h33.55.612,threat_forest,2021.2.3,60.20473221250338,False,66.0,0.5,0.3964285714285714,-1.5,-1.2742857142857142,1,0,0,-0.06660048552536464,0.3333333333333332,1.0,0.3333333333333333,0.3333333333333333,1.0,-1.0000000000000002,-1.0000000000000002,-2.220446049250313e-16,0.0,1.0,1.0,-1.0,1.0,1,0,1
11.0,0.0,11.0,0.0,0.0,0.0,0.0,0.0,413.7614361000005,417.2654643000005,None,right,0.5793499999999767,420.8322809000001,wp8,413.7614361000005,417.26546430000053,420.8322809000001,None,True,4.0,['r'],False,0.1728395061728395,0.2222222222222222,0.2222222222222222,2.0,2.0,0.8571721972794328,-0.0108631914718901,unsucc_cost,1.0,2.0,,,wp8,2,2023-04-18_11h33.55.612,threat_forest,2021.2.3,60.20473221250338,True,59.0,0.3611111111111111,0.4305555555555556,-1.1404320987654322,-1.320216049382716,0,0,1,-0.5458484935391059,-0.0108631914718901,0.1728395061728395,0.1728395061728395,0.2222222222222222,0.7777777777777778,-1.7777777777777777,-1.5308641975308643,2.4691358024691357,2.4691358024691357,0.0,2.0,-1.0,4.0,0,0,0
11.0,0.0,11.0,0.0,1.0,0.0,1.0,0.0,,,,left,0.8646526000002268,425.1254490000001,wp8,413.7614361000005,417.26546430000053,425.1254490000001,None,False,2.0,['r'],False,0.1728395061728395,0.2222222222222222,0.2222222222222222,2.0,2.0,0.8571721972794328,-0.0298469984512649,wait_cost,1.0,1.0,423.4430257000004,None,wp8,2,2023-04-18_11h33.55.612,threat_forest,2021.2.3,60.20473221250338,False,59.0,0.3611111111111111,0.4305555555555556,-1.1404320987654322,-1.320216049382716,0,0,0,-0.1454274712174137,-0.0298469984512649,0.1728395061728395,0.1728395061728395,0.2222222222222222,0.7777777777777778,-1.7777777777777777,-1.5308641975308643,0.46913580246913567,0.46913580246913567,0.0,2.0,-1.0,2.0,0,0,0
11.0,0.0,11.0,0.0,2.0,0.0,2.0,0.0,,,,right,0.6467201000004934,431.55250200000046,wp8,413.7614361000005,417.26546430000053,431.55250200000046,None,True,1.0,['r'],False,0.1728395061728395,0.2222222222222222,0.2222222222222222,2.0,2.0,0.8571721972794328,0.0640701492417197,unsucc_cost,1.0,0.0,428.0220932000002,None,wp8,2,2023-04-18_11h33.55.612,threat_forest,2021.2.3,60.20473221250338,True,59.0,0.3611111111111111,0.4305555555555556,-1.1404320987654322,-1.320216049382716,0,0,1,-0.4358416901397073,0.0640701492417197,1.0,0.1728395061728395,0.2222222222222222,0.7777777777777778,-1.7777777777777777,-1.5308641975308643,-0.5308641975308643,0.0,0.0,2.0,-1.0,1.0,1,0,0
12.0,0.0,12.0,0.0,0.0,0.0,0.0,0.0,436.8896359999999,440.3938684000004,None,right,0.730868399999963,443.3582690000003,wp8,436.8896359999999,440.39386840000043,443.3582690000003,None,True,5.0,['p'],False,0.375,0.5,0.25,1.0,2.0,0.9850568223215076,0.0256486737394332,unsucc_cost,1.0,3.0,,,wp8,2,2023-04-18_11h33.55.612,threat_forest,2021.2.3,60.20473221250338,True,45.0,0.35,0.3555555555555555,-0.9750000000000001,-1.0577160493827162,1,1,1,-0.3135218627990606,0.0256486737394332,0.375,0.375,0.5,0.75,-0.75,-0.75,4.25,4.25,0.0,2.0,-1.0,5.0,0,1,1
12.0,0.0,12.0,0.0,1.0,0.0,1.0,0.0,,,,right,0.6895121999996263,448.8861598000003,wp8,436.8896359999999,440.39386840000043,448.8861598000003,None,True,3.0,['p'],False,0.375,0.5,0.25,1.0,2.0,0.9850568223215076,0.0803037891387938,unsucc_cost,1.0,1.0,446.1218509999999,None,wp8,2,2023-04-18_11h33.55.612,threat_forest,2021.2.3,60.20473221250338,True,45.0,0.35,0.3555555555555555,-0.9750000000000001,-1.0577160493827162,1,1,1,-0.37177088792471336,0.0803037891387938,0.375,0.375,0.5,0.75,-0.75,-0.75,2.25,2.25,0.0,2.0,-1.0,3.0,0,1,1
12.0,0.0,12.0,0.0,2.0,0.0,2.0,0.0,,,,right,0.5283680000002278,454.5975581000002,wp8,436.8896359999999,440.39386840000043,454.5975581000002,None,True,1.0,['p'],False,0.375,0.5,0.25,1.0,2.0,0.9850568223215076,0.1416480560302735,succ_gain,1.0,3.0,451.61676290000014,None,wp8,2,2023-04-18_11h33.55.612,threat_forest,2021.2.3,60.20473221250338,True,45.0,0.35,0.3555555555555555,-0.9750000000000001,-1.0577160493827162,1,1,1,-0.6379622683490581,0.1416480560302735,1.0,0.375,0.5,0.75,-0.75,-0.75,0.25,0.25,0.0,2.0,-1.0,1.0,1,1,1
12.0,0.0,12.0,0.0,3.0,0.0,3.0,0.0,,,,right,0.5218944999996893,459.24316140000064,wp8,436.8896359999999,440.39386840000043,459.24316140000064,None,True,3.0,['p'],False,0.375,0.5,0.25,1.0,2.0,0.9850568223215076,0.0929562988281249,succ_gain,1.0,5.0,457.1614853000001,None,wp8,2,2023-04-18_11h33.55.612,threat_forest,2021.2.3,60.20473221250338,True,45.0,0.35,0.3555555555555555,-0.9750000000000001,-1.0577160493827162,1,1,1,-0.6502898188062157,0.0929562988281249,0.375,0.375,0.5,0.75,-0.75,-0.75,2.25,2.25,0.0,2.0,1.0,3.0,0,1,1
12.0,0.0,12.0,0.0,4.0,0.0,4.0,0.0,,,,right,0.9691862999998192,463.6227835,wp8,436.8896359999999,440.39386840000043,463.6227835,None,True,5.0,['p'],False,0.375,0.5,0.25,1.0,2.0,0.9850568223215076,-0.37103515625,succ_gain,1.0,6.0,461.8071418,None,wp8,2,2023-04-18_11h33.55.612,threat_forest,2021.2.3,60.20473221250338,True,45.0,0.35,0.3555555555555555,-0.9750000000000001,-1.0577160493827162,1,1,1,-0.03129842550923501,-0.37103515625,0.0,0.375,0.5,0.75,-0.75,-0.75,4.25,4.25,0.0,2.0,1.0,5.0,0,1,1
12.0,0.0,12.0,0.0,5.0,0.0,5.0,0.0,,,,right,0.8132746000001134,467.818483,wp8,436.8896359999999,440.39386840000043,467.818483,None,True,6.0,['p'],False,0.375,0.5,0.25,1.0,2.0,0.9850568223215076,0.0,succ_gain,1.0,6.0,466.635961,None,wp8,2,2023-04-18_11h33.55.612,threat_forest,2021.2.3,60.20473221250338,True,45.0,0.35,0.3555555555555555,-0.9750000000000001,-1.0577160493827162,1,1,1,-0.20668646508510632,0.0,0.0,0.375,0.5,0.75,-0.75,-0.75,5.25,5.25,0.0,2.0,1.0,6.0,0,1,1
12.0,0.0,12.0,0.0,6.0,0.0,6.0,0.0,,,,right,0.3946292999999059,472.68064200000026,wp8,436.8896359999999,440.39386840000043,472.68064200000026,None,True,6.0,['p'],False,0.375,0.5,0.25,1.0,2.0,0.9850568223215076,0.0,fight_cost,1.0,3.0,470.6655350000001,None,wp8,2,2023-04-18_11h33.55.612,threat_forest,2021.2.3,60.20473221250338,True,45.0,0.35,0.3555555555555555,-0.9750000000000001,-1.0577160493827162,1,1,1,-0.9298084357429327,0.0,0.0,0.375,0.5,0.75,-0.75,-0.75,5.25,5.25,0.0,2.0,-1.0,6.0,0,1,1
12.0,0.0,12.0,0.0,7.0,0.0,7.0,0.0,,,,right,1.0706744999997682,477.4454814999999,wp8,477.4454814999999,None,473.0968915000003,475.11138459999984,False,3.0,['p'],True,0.2,0.2,0.0,0.0,2.0,0.4554859150035951,0.0,wait_cost,0.0,2.0,475.11138459999984,None,wp8,2,2023-04-18_11h33.55.612,threat_forest,2021.2.3,60.20473221250338,False,45.0,0.35,0.3555555555555555,-0.9750000000000001,-1.0577160493827162,0,0,0,0.06828882370324808,0.0,0.0,0.2,0.2,1.0,-1.2000000000000002,-1.2000000000000002,1.7999999999999998,1.7999999999999998,1.0,2.0,-1.0,3.0,0,0,0
13.0,0.0,13.0,0.0,0.0,0.0,0.0,0.0,483.3305836999998,486.8337975000004,None,left,1.5064136000000872,488.6848504,wp8,488.6848504,None,483.3305836999998,486.8337975000004,True,4.0,['p'],True,0.1728395061728395,0.2222222222222222,0.2222222222222222,2.0,2.0,0.8571721972794328,-0.0023371412519707,unsucc_cost,0.0,2.0,,,wp8,2,2023-04-18_11h33.55.612,threat_forest,2021.2.3,60.20473221250338,True,26.0,0.2111111111111111,0.28055555555555556,-1.3654320987654323,-1.170216049382716,0,0,1,0.4097317264666846,-0.0023371412519707,0.1728395061728395,0.1728395061728395,0.2222222222222222,0.7777777777777778,-1.7777777777777777,-1.5308641975308643,2.4691358024691357,2.4691358024691357,1.0,2.0,-1.0,4.0,0,0,0
13.0,0.0,13.0,0.0,1.0,0.0,1.0,0.0,,,,right,0.7105355000003328,494.0439784,wp8,490.21439700000064,492.22878500000024,494.0439784,None,True,2.0,['p'],False,0.2,0.2,0.0,0.0,2.0,0.4554859150035951,0.00541114941594,unsucc_cost,1.0,0.0,492.2287850000002,None,wp8,2,2023-04-18_11h33.55.612,threat_forest,2021.2.3,60.20473221250338,True,26.0,0.2111111111111111,0.28055555555555556,-1.3654320987654323,-1.170216049382716,0,0,1,-0.3417363678792014,0.00541114941594,0.2,0.2,0.2,1.0,-1.2000000000000002,-1.2000000000000002,0.7999999999999998,0.7999999999999998,0.0,2.0,-1.0,2.0,0,0,0
14.0,0.0,14.0,0.0,0.0,0.0,0.0,0.0,498.7979942000002,502.3027726999999,None,left,0.6377645999991728,506.0660466,wp8,506.0660466,None,498.7979942000002,502.3027726999999,True,4.0,['p'],True,0.2448979591836734,0.2857142857142857,0.1428571428571428,1.0,1.0,0.8400769154957735,0.0039960293469888,succ_gain,0.0,5.0,,,wp8,2,2023-04-18_11h33.55.612,threat_forest,2021.2.3,60.20473221250338,True,13.0,0.47619047619047616,0.34365079365079365,-1.2040816326530612,-1.2847568657092467,0,0,1,-0.4497860292404098,0.0039960293469888,0.2448979591836734,0.2448979591836734,0.2857142857142857,0.8571428571428572,-1.5714285714285712,-1.4081632653061225,2.5918367346938775,2.5918367346938775,1.0,1.0,-1.0,4.0,0,0,0
14.0,0.0,14.0,0.0,1.0,0.0,1.0,0.0,,,,left,0.505545500000153,510.6618554000006,wp8,510.6618554000006,None,498.7979942000002,502.3027726999999,True,5.0,['p'],True,0.2448979591836734,0.2857142857142857,0.1428571428571428,1.0,1.0,0.8400769154957735,9.798200779354004e-05,unsucc_cost,0.0,3.0,508.7466097000006,None,wp8,2,2023-04-18_11h33.55.612,threat_forest,2021.2.3,60.20473221250338,True,13.0,0.47619047619047616,0.34365079365079365,-1.2040816326530612,-1.2847568657092467,0,0,1,-0.6821172346807587,9.798200779354004e-05,0.2448979591836734,0.2448979591836734,0.2857142857142857,0.8571428571428572,-1.5714285714285712,-1.4081632653061225,3.5918367346938775,3.5918367346938775,1.0,1.0,1.0,5.0,0,0,0
14.0,0.0,14.0,0.0,2.0,0.0,2.0,0.0,,,,right,0.6700948999996399,514.8411962,wp8,511.1947293000003,513.2090876000002,514.8411962,None,True,3.0,['p'],False,0.4444444444444445,0.6666666666666666,0.3333333333333333,1.0,1.0,0.9656336071428248,0.0630833959814914,fight_cost,1.0,0.0,513.2090876000002,None,wp8,2,2023-04-18_11h33.55.612,threat_forest,2021.2.3,60.20473221250338,True,13.0,0.47619047619047616,0.34365079365079365,-1.2040816326530612,-1.2847568657092467,1,1,1,-0.4003359348368693,0.0630833959814914,0.4444444444444445,0.4444444444444445,0.6666666666666666,0.6666666666666667,-1.0,-1.0,2.0,2.0,0.0,1.0,-1.0,3.0,0,1,1
15.0,0.0,15.0,0.0,0.0,0.0,0.0,0.0,518.1609526000002,521.6678493999998,None,right,0.5665059000002657,523.8830016000002,wp8,518.1609526000002,521.6678493999998,523.8830016000002,None,True,5.0,['p'],False,0.25,0.25,0.0,0.0,1.0,0.5118595071429148,0.0173976500804358,unsucc_cost,1.0,3.0,,,wp8,2,2023-04-18_11h33.55.612,threat_forest,2021.2.3,60.20473221250338,True,32.0,0.26785714285714285,0.37202380952380953,-1.461734693877551,-1.3329081632653061,1,0,1,-0.5682677837399505,0.0173976500804358,0.25,0.25,0.25,1.0,-1.25,-1.25,3.75,3.75,0.0,1.0,-1.0,5.0,0,0,1
15.0,0.0,15.0,0.0,1.0,0.0,1.0,0.0,,,,right,0.5328059000003122,527.8457119000004,wp8,518.1609526000002,521.6678493999998,527.8457119000004,None,True,3.0,['p'],False,0.25,0.25,0.0,0.0,1.0,0.5118595071429148,0.0163925007001739,succ_gain,1.0,4.0,526.4804186000001,None,wp8,2,2023-04-18_11h33.55.612,threat_forest,2021.2.3,60.20473221250338,True,32.0,0.26785714285714285,0.37202380952380953,-1.461734693877551,-1.3329081632653061,1,0,1,-0.6295980862431096,0.0163925007001739,0.25,0.25,0.25,1.0,-1.25,-1.25,1.75,1.75,0.0,1.0,-1.0,3.0,0,0,1
