miniblock.thisRepN,miniblock.thisTrialN,miniblock.thisN,miniblock.thisIndex,day.thisRepN,day.thisTrialN,day.thisN,day.thisIndex,forest.started,fixation_forest.started,fixation_forest.stopped,key_resp.keys,key_resp.rt,key_resp.started,Subject_ID,weather_left.started,weather_left.stopped,weather_right.started,weather_right.stopped,foraging T/F,in_LP,p/r heuristic,good_weather.T/F,p_succ_correct,p_succ_uncorrected,r_threat,n_oponents,gain_if_succ,weather_entropy,OP_value_difference,action_outcome,forest_side_L=0_R=1,out_LP,fixation_day.started,fixation_day.stopped,participant,session,date,expName,psychopyVersion,frameRate,foraging T/F NaNs,fora_NR,forest_mean_p,mvt_cutoff_p,forest_mean_ev,mvt_cutoff_ev,mvt_policy_eg,mvt_policy_p,fora_response,logRT,optimal policy,$\mathit{p}$ success cor + cap,$\mathit{p}$ success cor,$\mathit{p}$ success,risk threat encounter,expected gain naive,expected gain correct,expected state no bounds,expected state with bounds,weather type,gain magnitude,win stay lose shift,continuous energy state,binary energy state,$\mathit{p}$ success based MVT,expected gain based MVT
0.0,0.0,0.0,0.0,0.0,0.0,0.0,0.0,26.496275200042877,29.99512269999832,None,left,1.0363224999746308,31.824071699986234,oy13,31.824071699986234,None,26.496275200042877,29.99512269999832,True,4.0,['p'],True,0.2777777777777778,0.3333333333333333,0.1666666666666666,1.0,2.0,0.8929352898779304,0.0253296004142655,unsucc_cost,0.0,2.0,,,oy13,1,2022-04-08_14h45.22.479,threat_forest,2021.2.3,60.12090311892305,True,54.0,0.2777777777777778,0.2777777777777778,-1.1882716049382718,-1.1882716049382718,1,0,1,0.03567838880735577,0.0253296004142655,0.2777777777777778,0.2777777777777778,0.3333333333333333,0.8333333333333334,-1.1666666666666665,-1.0555555555555556,2.9444444444444446,2.9444444444444446,1.0,2.0,,4.0,0,0,1
0.0,0.0,0.0,0.0,1.0,0.0,1.0,0.0,,,,left,1.9501685000723228,36.43543079996016,oy13,32.882422400056385,34.8821411000099,36.43543079996016,None,False,2.0,['p'],False,0.1975308641975308,0.2222222222222222,0.1111111111111111,1.0,2.0,0.7461067557824965,-0.0062004160416093,wait_cost,1.0,1.0,34.8821411000099,None,oy13,1,2022-04-08_14h45.22.479,threat_forest,2021.2.3,60.12090311892305,False,54.0,0.2777777777777778,0.2777777777777778,-1.1882716049382718,-1.1882716049382718,0,0,0,0.667915779136,-0.0062004160416093,0.1975308641975308,0.1975308641975308,0.2222222222222222,0.8888888888888888,-1.4444444444444444,-1.3209876543209877,0.6790123456790123,0.6790123456790123,0.0,2.0,-1.0,2.0,0,0,0
0.0,0.0,0.0,0.0,2.0,0.0,2.0,0.0,,,,left,1.139763400075026,42.008728299988434,oy13,42.008728299988434,None,38.4153546000598,40.415446200058796,True,1.0,['p'],True,0.2777777777777778,0.3333333333333333,0.1666666666666666,1.0,2.0,0.8929352898779304,0.0818945598659017,unsucc_cost,0.0,0.0,40.4154462000588,None,oy13,1,2022-04-08_14h45.22.479,threat_forest,2021.2.3,60.12090311892305,True,54.0,0.2777777777777778,0.2777777777777778,-1.1882716049382718,-1.1882716049382718,1,0,1,0.13082069707237373,0.0818945598659017,1.0,0.2777777777777778,0.3333333333333333,0.8333333333333334,-1.1666666666666665,-1.0555555555555556,-0.05555555555555558,0.0,1.0,2.0,-1.0,1.0,1,0,1
1.0,0.0,1.0,0.0,0.0,0.0,0.0,0.0,45.817298399982974,49.314917400013655,None,left,1.3125418999698013,52.43934949999675,oy13,52.43934949999675,None,45.817298399982974,49.314917400013655,True,4.0,['r'],True,0.6,0.6,0.0,0.0,2.0,0.6126016192893442,0.1103326303155006,unsucc_cost,0.0,2.0,,,oy13,1,2022-04-08_14h45.22.479,threat_forest,2021.2.3,60.12090311892305,True,47.0,0.6333333333333333,0.45555555555555555,-0.07777777777777783,-0.6330246913580249,1,1,1,0.2719656387606038,0.1103326303155006,0.6,0.6,0.6,1.0,0.3999999999999999,0.3999999999999999,4.4,4.4,1.0,2.0,-1.0,4.0,0,1,1
1.0,0.0,1.0,0.0,1.0,0.0,1.0,0.0,,,,left,2.786438000039197,56.96560740005225,oy13,56.96560740005225,None,45.817298399982974,49.314917400013655,True,2.0,['r'],True,0.6,0.6,0.0,0.0,2.0,0.6126016192893442,0.0858461728395062,unsucc_cost,0.0,0.0,55.782021400053054,None,oy13,1,2022-04-08_14h45.22.479,threat_forest,2021.2.3,60.12090311892305,True,47.0,0.6333333333333333,0.45555555555555555,-0.07777777777777783,-0.6330246913580249,1,1,1,1.0247640776594058,0.0858461728395062,0.6,0.6,0.6,1.0,0.3999999999999999,0.3999999999999999,2.4,2.4,1.0,2.0,-1.0,2.0,0,1,1
2.0,0.0,2.0,0.0,0.0,0.0,0.0,0.0,64.74213180004153,68.24855769996066,None,left,1.260623599984683,69.40948999999091,oy13,64.74213180004153,68.24855769996066,69.40948999999091,None,False,4.0,['p'],False,0.1975308641975308,0.2222222222222222,0.1111111111111111,1.0,1.0,0.7461067557824965,0.0005623829220521,wait_cost,1.0,3.0,,,oy13,1,2022-04-08_14h45.22.479,threat_forest,2021.2.3,60.12090311892305,False,5.0,0.4444444444444444,0.5388888888888889,-1.259259259259259,-0.6685185185185185,0,0,0,0.23160651915333424,0.0005623829220521,0.1975308641975308,0.1975308641975308,0.2222222222222222,0.8888888888888888,-1.6666666666666667,-1.5185185185185184,2.481481481481482,2.481481481481482,0.0,1.0,-1.0,4.0,0,0,0
2.0,0.0,2.0,0.0,1.0,0.0,1.0,0.0,,,,left,1.0269688999978823,76.11826350004412,oy13,76.11826350004412,None,70.69947730004787,72.69942329998594,True,3.0,['p'],True,0.4444444444444445,0.6666666666666666,0.3333333333333333,1.0,1.0,0.9656336071428248,0.0515398167286913,succ_gain,0.0,4.0,72.69942329998594,None,oy13,1,2022-04-08_14h45.22.479,threat_forest,2021.2.3,60.12090311892305,True,5.0,0.4444444444444444,0.5388888888888889,-1.259259259259259,-0.6685185185185185,0,0,1,0.026611648109986716,0.0515398167286913,0.4444444444444445,0.4444444444444445,0.6666666666666666,0.6666666666666667,-1.0,-1.0,2.0,2.0,1.0,1.0,-1.0,3.0,0,0,0
2.0,0.0,2.0,0.0,2.0,0.0,2.0,0.0,,,,left,1.4079365000361577,81.09296100004576,oy13,77.16608610004187,79.16588059999049,81.09296100004576,None,False,4.0,['p'],False,0.1975308641975308,0.2222222222222222,0.1111111111111111,1.0,1.0,0.7461067557824965,0.0003541733178702,wait_cost,1.0,3.0,79.16588059999049,None,oy13,1,2022-04-08_14h45.22.479,threat_forest,2021.2.3,60.12090311892305,False,5.0,0.4444444444444444,0.5388888888888889,-1.259259259259259,-0.6685185185185185,0,0,0,0.3421251573127038,0.0003541733178702,0.1975308641975308,0.1975308641975308,0.2222222222222222,0.8888888888888888,-1.6666666666666667,-1.5185185185185184,2.481481481481482,2.481481481481482,0.0,1.0,1.0,4.0,0,0,0
2.0,0.0,2.0,0.0,3.0,0.0,3.0,0.0,,,,left,1.366960100014694,88.34091390005779,oy13,77.16608610004187,79.16588059999049,88.34091390005779,None,False,3.0,['p'],False,0.1975308641975308,0.2222222222222222,0.1111111111111111,1.0,1.0,0.7461067557824965,0.022924045713029,wait_cost,1.0,2.0,84.53291850001551,None,oy13,1,2022-04-08_14h45.22.479,threat_forest,2021.2.3,60.12090311892305,False,5.0,0.4444444444444444,0.5388888888888889,-1.259259259259259,-0.6685185185185185,0,0,0,0.3125893693236578,0.022924045713029,0.1975308641975308,0.1975308641975308,0.2222222222222222,0.8888888888888888,-1.6666666666666667,-1.5185185185185184,1.4814814814814816,1.4814814814814816,0.0,1.0,-1.0,3.0,0,0,0
2.0,0.0,2.0,0.0,4.0,0.0,4.0,0.0,,,,left,0.973344499943778,94.521161200013,oy13,94.521161200013,None,89.73318290000316,91.73289039998781,True,2.0,['p'],True,0.4444444444444445,0.6666666666666666,0.3333333333333333,1.0,1.0,0.9656336071428248,0.084980270622703,figh_cost,0.0,0.0,91.7328903999878,None,oy13,1,2022-04-08_14h45.22.479,threat_forest,2021.2.3,60.12090311892305,True,5.0,0.4444444444444444,0.5388888888888889,-1.259259259259259,-0.6685185185185185,0,0,1,-0.027017199908751025,0.084980270622703,0.4444444444444445,0.4444444444444445,0.6666666666666666,0.6666666666666667,-1.0,-1.0,1.0,1.0,1.0,1.0,-1.0,2.0,0,0,0
3.0,0.0,3.0,0.0,0.0,0.0,0.0,0.0,100.38583299994934,103.88007209997158,None,right,1.4056967000942675,105.04141039995012,oy13,100.38583299994934,103.88007209997158,105.04141039995012,None,True,5.0,['p'],False,0.32,0.4,0.2,1.0,1.0,0.9455672104350704,0.029786704162101,succ_gain,1.0,6.0,,,oy13,1,2022-04-08_14h45.22.479,threat_forest,2021.2.3,60.12090311892305,True,48.0,0.3111111111111111,0.37777777777777777,-1.3792592592592592,-1.3192592592592591,1,0,1,0.34053305183505544,0.029786704162101,0.32,0.32,0.4,0.8,-1.4,-1.24,3.76,3.76,0.0,1.0,-1.0,5.0,0,0,1
3.0,0.0,3.0,0.0,1.0,0.0,1.0,0.0,,,,right,1.2238119998946786,111.84162770002148,oy13,111.84162770002148,None,106.46663090004586,108.46627720003016,False,6.0,['p'],True,0.1975308641975308,0.2222222222222222,0.1111111111111111,1.0,1.0,0.7461067557824965,-0.1509253795256747,wait_cost,0.0,5.0,108.46627720003016,None,oy13,1,2022-04-08_14h45.22.479,threat_forest,2021.2.3,60.12090311892305,False,48.0,0.3111111111111111,0.37777777777777777,-1.3792592592592592,-1.3192592592592591,0,0,0,0.20197057743594754,-0.1509253795256747,0.1975308641975308,0.1975308641975308,0.2222222222222222,0.8888888888888888,-1.6666666666666667,-1.5185185185185184,4.481481481481482,4.481481481481482,1.0,1.0,1.0,6.0,0,0,0
3.0,0.0,3.0,0.0,2.0,0.0,2.0,0.0,,,,right,2.707867599907331,117.4558420999674,oy13,117.4558420999674,None,106.46663090004586,108.46627720003016,False,5.0,['p'],True,0.1975308641975308,0.2222222222222222,0.1111111111111111,1.0,1.0,0.7461067557824965,-0.0374626039229961,wait_cost,0.0,4.0,115.08306690002792,None,oy13,1,2022-04-08_14h45.22.479,threat_forest,2021.2.3,60.12090311892305,False,48.0,0.3111111111111111,0.37777777777777777,-1.3792592592592592,-1.3192592592592591,0,0,0,0.9961614616492012,-0.0374626039229961,0.1975308641975308,0.1975308641975308,0.2222222222222222,0.8888888888888888,-1.6666666666666667,-1.5185185185185184,3.481481481481482,3.481481481481482,1.0,1.0,-1.0,5.0,0,0,0
3.0,0.0,3.0,0.0,3.0,0.0,3.0,0.0,,,,right,1.7856046999804676,123.64006989996416,oy13,123.64006989996416,None,106.46663090004586,108.46627720003016,False,4.0,['p'],True,0.1975308641975308,0.2222222222222222,0.1111111111111111,1.0,1.0,0.7461067557824965,-0.0434061105028649,wait_cost,0.0,3.0,122.18337109999266,None,oy13,1,2022-04-08_14h45.22.479,threat_forest,2021.2.3,60.12090311892305,False,48.0,0.3111111111111111,0.37777777777777777,-1.3792592592592592,-1.3192592592592591,0,0,0,0.5797571253589106,-0.0434061105028649,0.1975308641975308,0.1975308641975308,0.2222222222222222,0.8888888888888888,-1.6666666666666667,-1.5185185185185184,2.481481481481482,2.481481481481482,1.0,1.0,-1.0,4.0,0,0,0
3.0,0.0,3.0,0.0,4.0,0.0,4.0,0.0,,,,right,1.6864843999501318,128.03768019995186,oy13,128.03768019995186,None,106.46663090004586,108.46627720003016,False,3.0,['p'],True,0.1975308641975308,0.2222222222222222,0.1111111111111111,1.0,1.0,0.7461067557824965,-0.0400814118594538,wait_cost,0.0,2.0,127.45007989997976,None,oy13,1,2022-04-08_14h45.22.479,threat_forest,2021.2.3,60.12090311892305,False,48.0,0.3111111111111111,0.37777777777777777,-1.3792592592592592,-1.3192592592592591,0,0,0,0.5226461255213357,-0.0400814118594538,0.1975308641975308,0.1975308641975308,0.2222222222222222,0.8888888888888888,-1.6666666666666667,-1.5185185185185184,1.4814814814814816,1.4814814814814816,1.0,1.0,-1.0,3.0,0,0,0
3.0,0.0,3.0,0.0,5.0,0.0,5.0,0.0,,,,right,1.674536900012754,133.621679999982,oy13,133.621679999982,None,106.46663090004586,108.46627720003016,False,2.0,['p'],True,0.1975308641975308,0.2222222222222222,0.1111111111111111,1.0,1.0,0.7461067557824965,-0.0612345679012346,wait_cost,0.0,1.0,131.75003480003215,None,oy13,1,2022-04-08_14h45.22.479,threat_forest,2021.2.3,60.12090311892305,False,48.0,0.3111111111111111,0.37777777777777777,-1.3792592592592592,-1.3192592592592591,0,0,0,0.5155366494457247,-0.0612345679012346,0.1975308641975308,0.1975308641975308,0.2222222222222222,0.8888888888888888,-1.6666666666666667,-1.5185185185185184,0.4814814814814816,0.4814814814814816,1.0,1.0,-1.0,2.0,0,0,0
3.0,0.0,3.0,0.0,6.0,0.0,6.0,0.0,,,,left,0.7408848999766633,138.7544753999682,oy13,138.7544753999682,None,106.46663090004586,108.46627720003016,True,1.0,['p'],True,0.1975308641975308,0.2222222222222222,0.1111111111111111,1.0,1.0,0.7461067557824965,0.1975308641975308,unsucc_cost,0.0,0.0,137.31651769997552,None,oy13,1,2022-04-08_14h45.22.479,threat_forest,2021.2.3,60.12090311892305,True,48.0,0.3111111111111111,0.37777777777777777,-1.3792592592592592,-1.3192592592592591,0,0,1,-0.299909996416879,0.1975308641975308,1.0,0.1975308641975308,0.2222222222222222,0.8888888888888888,-1.6666666666666667,-1.5185185185185184,-0.5185185185185184,0.0,1.0,1.0,-1.0,1.0,1,0,0
4.0,0.0,4.0,0.0,0.0,0.0,0.0,0.0,143.62220880005043,147.1334257000126,None,right,0.9866712000221014,149.99061850004364,oy13,143.62220880005043,147.1334257000126,149.99061850004364,None,True,4.0,['r'],False,0.2222222222222222,0.6666666666666666,0.6666666666666666,2.0,1.0,0.77250688571426,0.0018129330221619,succ_gain,1.0,5.0,,,oy13,1,2022-04-08_14h45.22.479,threat_forest,2021.2.3,60.12090311892305,True,20.0,0.4583333333333333,0.3847222222222222,-1.625,-1.5021296296296296,0,0,1,-0.013418425725701243,0.0018129330221619,0.2222222222222222,0.2222222222222222,0.6666666666666666,0.33333333333333337,-2.0,-2.0,2.0,2.0,0.0,1.0,-1.0,4.0,0,0,0
4.0,0.0,4.0,0.0,1.0,0.0,1.0,0.0,,,,left,1.3269918999867514,155.01732270000502,oy13,143.62220880005043,147.1334257000126,155.01732270000502,None,False,5.0,['r'],False,0.2222222222222222,0.6666666666666666,0.6666666666666666,2.0,1.0,0.77250688571426,-0.0087425853564993,wait_cost,1.0,4.0,153.00001049996354,None,oy13,1,2022-04-08_14h45.22.479,threat_forest,2021.2.3,60.12090311892305,False,20.0,0.4583333333333333,0.3847222222222222,-1.625,-1.5021296296296296,0,0,0,0.2829146513274857,-0.0087425853564993,0.2222222222222222,0.2222222222222222,0.6666666666666666,0.33333333333333337,-2.0,-2.0,3.0,3.0,0.0,1.0,1.0,5.0,0,0,0
4.0,0.0,4.0,0.0,2.0,0.0,2.0,0.0,,,,left,1.3987273999955503,159.1337199000409,oy13,143.62220880005043,147.1334257000126,159.1337199000409,None,False,4.0,['r'],False,0.2222222222222222,0.6666666666666666,0.6666666666666666,2.0,1.0,0.77250688571426,-0.0031369211276067,wait_cost,1.0,3.0,158.36720480001532,None,oy13,1,2022-04-08_14h45.22.479,threat_forest,2021.2.3,60.12090311892305,False,20.0,0.4583333333333333,0.3847222222222222,-1.625,-1.5021296296296296,0,0,0,0.3355628232269977,-0.0031369211276067,0.2222222222222222,0.2222222222222222,0.6666666666666666,0.33333333333333337,-2.0,-2.0,2.0,2.0,0.0,1.0,-1.0,4.0,0,0,0
4.0,0.0,4.0,0.0,3.0,0.0,3.0,0.0,,,,left,1.960010900045745,165.48600390006322,oy13,143.62220880005043,147.1334257000126,165.48600390006322,None,False,3.0,['r'],False,0.2222222222222222,0.6666666666666666,0.6666666666666666,2.0,1.0,0.77250688571426,0.0121876071673525,wait_cost,1.0,2.0,162.55035879998468,None,oy13,1,2022-04-08_14h45.22.479,threat_forest,2021.2.3,60.12090311892305,False,20.0,0.4583333333333333,0.3847222222222222,-1.625,-1.5021296296296296,0,0,0,0.6729500344747913,0.0121876071673525,0.2222222222222222,0.2222222222222222,0.6666666666666666,0.33333333333333337,-2.0,-2.0,1.0,1.0,0.0,1.0,-1.0,3.0,0,0,0
4.0,0.0,4.0,0.0,4.0,0.0,4.0,0.0,,,,left,1.5027776000788435,172.68552020005882,oy13,143.62220880005043,147.1334257000126,172.68552020005882,None,False,2.0,['r'],False,0.2222222222222222,0.6666666666666666,0.6666666666666666,2.0,1.0,0.77250688571426,0.0176718964334705,wait_cost,1.0,1.0,169.4674467999721,None,oy13,1,2022-04-08_14h45.22.479,threat_forest,2021.2.3,60.12090311892305,False,20.0,0.4583333333333333,0.3847222222222222,-1.625,-1.5021296296296296,0,0,0,0.4073151291493386,0.0176718964334705,0.2222222222222222,0.2222222222222222,0.6666666666666666,0.33333333333333337,-2.0,-2.0,0.0,0.0,0.0,1.0,-1.0,2.0,0,0,0
4.0,0.0,4.0,0.0,5.0,0.0,5.0,0.0,,,,left,0.8739971000468358,179.53956589999143,oy13,179.53956589999143,None,174.21742720005568,176.2175198000623,True,1.0,['r'],True,0.25,0.25,0.0,0.0,1.0,0.5118595071429148,0.0607638888888888,unsucc_cost,0.0,0.0,176.2175198000623,None,oy13,1,2022-04-08_14h45.22.479,threat_forest,2021.2.3,60.12090311892305,True,20.0,0.4583333333333333,0.3847222222222222,-1.625,-1.5021296296296296,1,0,1,-0.13467822135632154,0.0607638888888888,1.0,0.25,0.25,1.0,-1.25,-1.25,-0.25,0.0,1.0,1.0,-1.0,1.0,1,0,1
5.0,0.0,5.0,0.0,0.0,0.0,0.0,0.0,183.1317789000459,186.62332919996695,None,left,1.141901700058952,190.02477270003877,oy13,190.02477270003877,None,183.1317789000459,186.62332919996697,True,5.0,['p'],True,0.375,0.5,0.25,1.0,1.0,0.9850568223215076,0.037518611380037,succ_gain,0.0,6.0,,,oy13,1,2022-04-08_14h45.22.479,threat_forest,2021.2.3,60.12090311892305,True,9.0,0.4,0.4291666666666667,-1.3025,-1.46375,1,0,1,0.13269503052280873,0.037518611380037,0.375,0.375,0.5,0.75,-1.25,-1.125,3.875,3.875,1.0,1.0,-1.0,5.0,0,0,1
5.0,0.0,5.0,0.0,1.0,0.0,1.0,0.0,,,,right,1.1864031000295654,195.52073500002732,oy13,195.52073500002732,None,183.1317789000459,186.62332919996697,False,6.0,['p'],True,0.375,0.5,0.25,1.0,1.0,0.9850568223215076,-0.1193507232516357,wait_cost,0.0,5.0,193.1844492000528,None,oy13,1,2022-04-08_14h45.22.479,threat_forest,2021.2.3,60.12090311892305,False,9.0,0.4,0.4291666666666667,-1.3025,-1.46375,1,0,0,0.17092612480982133,-0.1193507232516357,0.375,0.375,0.5,0.75,-1.25,-1.125,4.875,4.875,1.0,1.0,1.0,6.0,0,0,1
5.0,0.0,5.0,0.0,2.0,0.0,2.0,0.0,,,,left,1.6136331999441609,202.2518469999777,oy13,196.73476300004404,198.73422900005244,202.2518469999777,None,False,5.0,['p'],False,0.24,0.3,0.2,2.0,1.0,0.9003120349047065,-0.0389128717617186,wait_cost,1.0,4.0,198.73422900005244,None,oy13,1,2022-04-08_14h45.22.479,threat_forest,2021.2.3,60.12090311892305,False,9.0,0.4,0.4291666666666667,-1.3025,-1.46375,0,0,0,0.47848828252314746,-0.0389128717617186,0.24,0.24,0.3,0.8,-1.7,-1.48,3.52,3.52,0.0,1.0,-1.0,5.0,0,0,0
5.0,0.0,5.0,0.0,3.0,0.0,3.0,0.0,,,,left,1.632132799946703,207.2898567999946,oy13,196.73476300004404,198.73422900005244,207.2898567999946,None,False,4.0,['p'],False,0.24,0.3,0.2,2.0,1.0,0.9003120349047065,-0.0391069940625,wait_cost,1.0,3.0,205.88442140002732,None,oy13,1,2022-04-08_14h45.22.479,threat_forest,2021.2.3,60.12090311892305,False,9.0,0.4,0.4291666666666667,-1.3025,-1.46375,0,0,0,0.4898876257477138,-0.0391069940625,0.24,0.24,0.3,0.8,-1.7,-1.48,2.52,2.52,0.0,1.0,-1.0,4.0,0,0,0
5.0,0.0,5.0,0.0,4.0,0.0,4.0,0.0,,,,left,1.6955731000052765,213.93978180002887,oy13,213.93978180002887,None,208.95157949998972,210.95098540000618,True,3.0,['p'],True,0.375,0.5,0.25,1.0,1.0,0.9850568223215076,0.0731003906249999,unsucc_cost,0.0,1.0,210.95098540000615,None,oy13,1,2022-04-08_14h45.22.479,threat_forest,2021.2.3,60.12090311892305,True,9.0,0.4,0.4291666666666667,-1.3025,-1.46375,1,0,1,0.5280207957829076,0.0731003906249999,0.375,0.375,0.5,0.75,-1.25,-1.125,1.875,1.875,1.0,1.0,-1.0,3.0,0,0,1
5.0,0.0,5.0,0.0,5.0,0.0,5.0,0.0,,,,left,0.9527132000075652,220.1689731000224,oy13,220.1689731000224,None,208.95157949998972,210.95098540000618,True,1.0,['p'],True,0.375,0.5,0.25,1.0,1.0,0.9850568223215076,0.1279687499999999,succ_gain,0.0,2.0,217.66793090000283,None,oy13,1,2022-04-08_14h45.22.479,threat_forest,2021.2.3,60.12090311892305,True,9.0,0.4,0.4291666666666667,-1.3025,-1.46375,1,0,1,-0.048441364998992334,0.1279687499999999,1.0,0.375,0.5,0.75,-1.25,-1.125,-0.125,0.0,1.0,1.0,-1.0,1.0,1,0,1
5.0,0.0,5.0,0.0,6.0,0.0,6.0,0.0,,,,left,1.5466072000563145,225.0115006000269,oy13,221.15174859995025,223.15157290000934,225.0115006000269,None,False,2.0,['p'],False,0.24,0.3,0.2,2.0,1.0,0.9003120349047065,-0.0675,wait_cost,1.0,1.0,223.1515729000093,None,oy13,1,2022-04-08_14h45.22.479,threat_forest,2021.2.3,60.12090311892305,False,9.0,0.4,0.4291666666666667,-1.3025,-1.46375,0,0,0,0.43606362859144987,-0.0675,0.24,0.24,0.3,0.8,-1.7,-1.48,0.52,0.52,0.0,1.0,1.0,2.0,0,0,0
5.0,0.0,5.0,0.0,7.0,0.0,7.0,0.0,,,,right,1.3137833999935538,229.6385698999511,oy13,221.15174859995025,223.15157290000934,229.6385698999511,None,True,1.0,['p'],False,0.24,0.3,0.2,2.0,1.0,0.9003120349047065,0.24,unsucc_cost,1.0,0.0,228.58484829997175,None,oy13,1,2022-04-08_14h45.22.479,threat_forest,2021.2.3,60.12090311892305,True,9.0,0.4,0.4291666666666667,-1.3025,-1.46375,0,0,1,0.2729110662872276,0.24,1.0,0.24,0.3,0.8,-1.7,-1.48,-0.48,0.0,0.0,1.0,-1.0,1.0,1,0,0
6.0,0.0,6.0,0.0,0.0,0.0,0.0,0.0,235.245657499996,238.75194129999727,None,right,0.8443676999304444,241.0909089000197,oy13,235.245657499996,238.75194129999727,241.0909089000197,None,True,4.0,['p'],False,0.4444444444444445,0.6666666666666666,0.3333333333333333,1.0,1.0,0.9656336071428248,0.045641051707109,succ_gain,1.0,5.0,,,oy13,1,2022-04-08_14h45.22.479,threat_forest,2021.2.3,60.12090311892305,True,39.0,0.43333333333333335,0.4166666666666667,-1.2000000000000002,-1.2512500000000002,1,1,1,-0.16916721583523828,0.045641051707109,0.4444444444444445,0.4444444444444445,0.6666666666666666,0.6666666666666667,-1.0,-1.0,3.0,3.0,0.0,1.0,-1.0,4.0,0,1,1
6.0,0.0,6.0,0.0,1.0,0.0,1.0,0.0,,,,right,1.5455509000457823,246.11516960000156,oy13,246.11516960000156,None,241.95200970000587,243.95180669997353,False,5.0,['p'],True,0.2,0.2,0.0,0.0,1.0,0.4554859150035951,0.0004162250842519,wait_cost,0.0,4.0,243.95180669997356,None,oy13,1,2022-04-08_14h45.22.479,threat_forest,2021.2.3,60.12090311892305,False,39.0,0.43333333333333335,0.4166666666666667,-1.2000000000000002,-1.2512500000000002,0,0,0,0.435380416402794,0.0004162250842519,0.2,0.2,0.2,1.0,-1.4000000000000001,-1.4000000000000001,3.5999999999999996,3.5999999999999996,1.0,1.0,1.0,5.0,0,0,0
6.0,0.0,6.0,0.0,2.0,0.0,2.0,0.0,,,,right,1.6893978000152856,252.6550088999793,oy13,252.6550088999793,None,241.95200970000587,243.95180669997353,False,4.0,['p'],True,0.2,0.2,0.0,0.0,1.0,0.4554859150035951,0.0025250114311842,wait_cost,0.0,3.0,249.6853398999665,None,oy13,1,2022-04-08_14h45.22.479,threat_forest,2021.2.3,60.12090311892305,False,39.0,0.43333333333333335,0.4166666666666667,-1.2000000000000002,-1.2512500000000002,0,0,0,0.5243721340819785,0.0025250114311842,0.2,0.2,0.2,1.0,-1.4000000000000001,-1.4000000000000001,2.5999999999999996,2.5999999999999996,1.0,1.0,-1.0,4.0,0,0,0
6.0,0.0,6.0,0.0,3.0,0.0,3.0,0.0,,,,right,1.58994860004168,259.5884806000395,oy13,259.5884806000395,None,241.95200970000587,243.95180669997353,False,3.0,['p'],True,0.2,0.2,0.0,0.0,1.0,0.4554859150035951,0.036599451303155,wait_cost,0.0,2.0,256.36859379999805,None,oy13,1,2022-04-08_14h45.22.479,threat_forest,2021.2.3,60.12090311892305,False,39.0,0.43333333333333335,0.4166666666666667,-1.2000000000000002,-1.2512500000000002,0,0,0,0.46370168869179956,0.036599451303155,0.2,0.2,0.2,1.0,-1.4000000000000001,-1.4000000000000001,1.5999999999999999,1.5999999999999999,1.0,1.0,-1.0,3.0,0,0,0
6.0,0.0,6.0,0.0,4.0,0.0,4.0,0.0,,,,right,1.6400705999694765,263.8722571999533,oy13,261.20222089998424,263.2024451000616,263.8722571999533,None,True,2.0,['p'],False,0.4444444444444445,0.6666666666666666,0.3333333333333333,1.0,1.0,0.9656336071428248,0.0928875171467763,figh_cost,1.0,0.0,263.2024451000616,None,oy13,1,2022-04-08_14h45.22.479,threat_forest,2021.2.3,60.12090311892305,True,39.0,0.43333333333333335,0.4166666666666667,-1.2000000000000002,-1.2512500000000002,1,1,1,0.49473928967141156,0.0928875171467763,0.4444444444444445,0.4444444444444445,0.6666666666666666,0.6666666666666667,-1.0,-1.0,1.0,1.0,0.0,1.0,-1.0,2.0,0,1,1
7.0,0.0,7.0,0.0,0.0,0.0,0.0,0.0,269.64480360003654,273.1522430999903,None,left,1.084747500019148,275.60886389994994,oy13,275.60886389994994,None,269.64480360003654,273.1522430999903,True,5.0,['r'],True,0.3333333333333333,0.3333333333333333,0.0,0.0,2.0,0.5793801642856949,0.0435920879685414,succ_gain,0.0,6.0,,,oy13,1,2022-04-08_14h45.22.479,threat_forest,2021.2.3,60.12090311892305,True,46.0,0.3666666666666667,0.4,-1.0533333333333335,-1.126666666666667,1,0,1,0.08134724103282193,0.0435920879685414,0.3333333333333333,0.3333333333333333,0.3333333333333333,1.0,-0.6666666666666669,-0.6666666666666669,4.333333333333333,4.333333333333333,1.0,2.0,-1.0,5.0,0,0,1
7.0,0.0,7.0,0.0,1.0,0.0,1.0,0.0,,,,left,1.9683701999019831,281.9424701000098,oy13,276.71920140006114,278.71935400005896,281.9424701000098,None,False,6.0,['r'],False,0.24,0.4,0.4,2.0,2.0,0.9801625908629508,-0.1497080721646091,wait_cost,1.0,5.0,278.71935400005896,None,oy13,1,2022-04-08_14h45.22.479,threat_forest,2021.2.3,60.12090311892305,False,46.0,0.3666666666666667,0.4,-1.0533333333333335,-1.126666666666667,0,0,0,0.6772058906459416,-0.1497080721646091,0.24,0.24,0.4,0.6,-1.6,-1.4400000000000002,4.56,4.56,0.0,2.0,1.0,6.0,0,0,0
7.0,0.0,7.0,0.0,2.0,0.0,2.0,0.0,,,,right,1.5820448000449687,287.8550751999719,oy13,287.8550751999719,None,283.9360669000307,285.93564509996213,False,5.0,['r'],True,0.3333333333333333,0.3333333333333333,0.0,0.0,2.0,0.5793801642856949,0.0885027489711933,wait_cost,0.0,4.0,285.93564509996213,None,oy13,1,2022-04-08_14h45.22.479,threat_forest,2021.2.3,60.12090311892305,False,46.0,0.3666666666666667,0.4,-1.0533333333333335,-1.126666666666667,1,0,0,0.45871818755699384,0.0885027489711933,0.3333333333333333,0.3333333333333333,0.3333333333333333,1.0,-0.6666666666666669,-0.6666666666666669,4.333333333333333,4.333333333333333,1.0,2.0,-1.0,5.0,0,0,1
7.0,0.0,7.0,0.0,3.0,0.0,3.0,0.0,,,,left,1.7840244000544772,292.0921693999553,oy13,289.4728697000537,291.4859340999974,292.0921693999553,None,False,4.0,['r'],False,0.24,0.4,0.4,2.0,2.0,0.9801625908629508,-0.0324772740740739,wait_cost,1.0,3.0,291.4859340999974,None,oy13,1,2022-04-08_14h45.22.479,threat_forest,2021.2.3,60.12090311892305,False,46.0,0.3666666666666667,0.4,-1.0533333333333335,-1.126666666666667,0,0,0,0.5788717112248675,-0.0324772740740739,0.24,0.24,0.4,0.6,-1.6,-1.4400000000000002,2.5599999999999996,2.5599999999999996,0.0,2.0,-1.0,4.0,0,0,0
7.0,0.0,7.0,0.0,4.0,0.0,4.0,0.0,,,,left,1.8030352999921888,299.24106040003244,oy13,299.24106040003244,None,293.90277000004426,295.9020462000044,True,3.0,['r'],True,0.3333333333333333,0.3333333333333333,0.0,0.0,2.0,0.5793801642856949,0.2144444444444444,unsucc_cost,0.0,1.0,295.9020462000044,None,oy13,1,2022-04-08_14h45.22.479,threat_forest,2021.2.3,60.12090311892305,True,46.0,0.3666666666666667,0.4,-1.0533333333333335,-1.126666666666667,1,0,1,0.5894715225055026,0.2144444444444444,0.3333333333333333,0.3333333333333333,0.3333333333333333,1.0,-0.6666666666666669,-0.6666666666666669,2.333333333333333,2.333333333333333,1.0,2.0,-1.0,3.0,0,0,1
7.0,0.0,7.0,0.0,5.0,0.0,5.0,0.0,,,,right,0.9946719999425112,305.3952993999701,oy13,301.0695831000339,303.0690240999684,305.3952993999701,None,True,1.0,['r'],False,0.24,0.4,0.4,2.0,2.0,0.9801625908629508,0.24,figh_cost,1.0,0.0,303.0690240999684,None,oy13,1,2022-04-08_14h45.22.479,threat_forest,2021.2.3,60.12090311892305,True,46.0,0.3666666666666667,0.4,-1.0533333333333335,-1.126666666666667,0,0,1,-0.005342244468472196,0.24,1.0,0.24,0.4,0.6,-1.6,-1.4400000000000002,-0.44000000000000017,0.0,0.0,2.0,-1.0,1.0,1,0,0
8.0,0.0,8.0,0.0,0.0,0.0,0.0,0.0,311.3310533000622,314.8360579999862,None,left,1.2932690000161529,318.4939874999691,oy13,311.3310533000622,314.8360579999862,318.4939874999691,None,False,5.0,['p'],False,0.375,0.5,0.25,1.0,1.0,0.9850568223215076,0.0361323788439721,wait_cost,1.0,4.0,,,oy13,1,2022-04-08_14h45.22.479,threat_forest,2021.2.3,60.12090311892305,False,69.0,0.39285714285714285,0.37976190476190474,-1.2665816326530612,-1.1599574829931973,1,0,0,0.25717312147433347,0.0361323788439721,0.375,0.375,0.5,0.75,-1.25,-1.125,3.875,3.875,0.0,1.0,-1.0,5.0,0,0,1
8.0,0.0,8.0,0.0,1.0,0.0,1.0,0.0,,,,right,1.341637899982743,323.78830899996683,oy13,311.3310533000622,314.8360579999862,323.78830899996683,None,True,4.0,['p'],False,0.375,0.5,0.25,1.0,1.0,0.9850568223215076,0.0514035096049941,succ_gain,1.0,5.0,321.81938899995293,None,oy13,1,2022-04-08_14h45.22.479,threat_forest,2021.2.3,60.12090311892305,True,69.0,0.39285714285714285,0.37976190476190474,-1.2665816326530612,-1.1599574829931973,1,0,1,0.2938911809659041,0.0514035096049941,0.375,0.375,0.5,0.75,-1.25,-1.125,2.875,2.875,0.0,1.0,-1.0,4.0,0,0,1
8.0,0.0,8.0,0.0,2.0,0.0,2.0,0.0,,,,left,1.828085600049235,327.9401541999541,oy13,311.3310533000622,314.8360579999862,327.9401541999541,None,False,5.0,['p'],False,0.375,0.5,0.25,1.0,1.0,0.9850568223215076,0.0667717868390274,wait_cost,1.0,4.0,327.1529023000039,None,oy13,1,2022-04-08_14h45.22.479,threat_forest,2021.2.3,60.12090311892305,False,69.0,0.39285714285714285,0.37976190476190474,-1.2665816326530612,-1.1599574829931973,1,0,0,0.603269299096014,0.0667717868390274,0.375,0.375,0.5,0.75,-1.25,-1.125,3.875,3.875,0.0,1.0,1.0,5.0,0,0,1
8.0,0.0,8.0,0.0,3.0,0.0,3.0,0.0,,,,left,1.6983849999960512,332.33830990002025,oy13,311.3310533000622,314.8360579999862,332.33830990002025,None,False,4.0,['p'],False,0.375,0.5,0.25,1.0,1.0,0.9850568223215076,0.0767058090154061,wait_cost,1.0,3.0,331.7867878000252,None,oy13,1,2022-04-08_14h45.22.479,threat_forest,2021.2.3,60.12090311892305,False,69.0,0.39285714285714285,0.37976190476190474,-1.2665816326530612,-1.1599574829931973,1,0,0,0.5296777995238499,0.0767058090154061,0.375,0.375,0.5,0.75,-1.25,-1.125,2.875,2.875,0.0,1.0,-1.0,4.0,0,0,1
8.0,0.0,8.0,0.0,4.0,0.0,4.0,0.0,,,,right,1.7897611999651415,337.3542390000075,oy13,311.3310533000622,314.8360579999862,337.3542390000075,None,True,3.0,['p'],False,0.375,0.5,0.25,1.0,1.0,0.9850568223215076,0.0723316171972615,unsucc_cost,1.0,1.0,336.0694316000445,None,oy13,1,2022-04-08_14h45.22.479,threat_forest,2021.2.3,60.12090311892305,True,69.0,0.39285714285714285,0.37976190476190474,-1.2665816326530612,-1.1599574829931973,1,0,1,0.582082203112343,0.0723316171972615,0.375,0.375,0.5,0.75,-1.25,-1.125,1.875,1.875,0.0,1.0,-1.0,3.0,0,0,1
8.0,0.0,8.0,0.0,5.0,0.0,5.0,0.0,,,,right,1.5203864999348298,341.7232351000421,oy13,311.3310533000622,314.8360579999862,341.7232351000421,None,True,1.0,['p'],False,0.375,0.5,0.25,1.0,1.0,0.9850568223215076,0.1284279336734693,figh_cost,1.0,0.0,341.16950550000183,None,oy13,1,2022-04-08_14h45.22.479,threat_forest,2021.2.3,60.12090311892305,True,69.0,0.39285714285714285,0.37976190476190474,-1.2665816326530612,-1.1599574829931973,1,0,1,0.418964578808367,0.1284279336734693,1.0,0.375,0.5,0.75,-1.25,-1.125,-0.125,0.0,0.0,1.0,-1.0,1.0,1,0,1
9.0,0.0,9.0,0.0,0.0,0.0,0.0,0.0,347.5227593999589,351.0172431999817,None,left,1.574618099955842,353.1303178999806,oy13,347.5227593999589,351.01724319998175,353.1303178999806,None,False,5.0,['r'],False,0.28125,0.375,0.25,2.0,2.0,0.9634951148421658,-0.0048305423367587,wait_cost,1.0,4.0,,,oy13,1,2022-04-08_14h45.22.479,threat_forest,2021.2.3,60.12090311892305,False,10.0,0.35416666666666663,0.37351190476190477,-0.8958333333333335,-1.0812074829931975,0,0,0,0.45401276665697204,-0.0048305423367587,0.28125,0.28125,0.375,0.75,-1.25,-1.125,3.875,3.875,0.0,2.0,-1.0,5.0,0,0,0
9.0,0.0,9.0,0.0,1.0,0.0,1.0,0.0,,,,right,1.1801424000877887,358.7476043000352,oy13,347.5227593999589,351.01724319998175,358.7476043000352,None,True,4.0,['r'],False,0.28125,0.375,0.25,2.0,2.0,0.9634951148421658,0.0125198670204943,unsucc_cost,1.0,2.0,356.7367335000308,None,oy13,1,2022-04-08_14h45.22.479,threat_forest,2021.2.3,60.12090311892305,True,10.0,0.35416666666666663,0.37351190476190477,-0.8958333333333335,-1.0812074829931975,0,0,1,0.16563510923706332,0.0125198670204943,0.28125,0.28125,0.375,0.75,-1.25,-1.125,2.875,2.875,0.0,2.0,-1.0,4.0,0,0,0
9.0,0.0,9.0,0.0,2.0,0.0,2.0,0.0,,,,left,1.1098243999294937,363.1566561999498,oy13,347.5227593999589,351.01724319998175,363.1566561999498,None,False,2.0,['r'],False,0.28125,0.375,0.25,2.0,2.0,0.9634951148421658,-0.0033863208912037,wait_cost,1.0,1.0,361.9535018999595,None,oy13,1,2022-04-08_14h45.22.479,threat_forest,2021.2.3,60.12090311892305,False,10.0,0.35416666666666663,0.37351190476190477,-0.8958333333333335,-1.0812074829931975,0,0,0,0.10420180454786046,-0.0033863208912037,0.28125,0.28125,0.375,0.75,-1.25,-1.125,0.875,0.875,0.0,2.0,-1.0,2.0,0,0,0
9.0,0.0,9.0,0.0,3.0,0.0,3.0,0.0,,,,left,0.9966959999874234,367.12497400003485,oy13,367.12497400003485,None,364.2896616000217,366.3033366999589,True,1.0,['r'],True,0.3333333333333333,0.3333333333333333,0.0,0.0,2.0,0.5793801642856949,0.1605812355324073,unsucc_cost,0.0,0.0,366.3033366999589,None,oy13,1,2022-04-08_14h45.22.479,threat_forest,2021.2.3,60.12090311892305,True,10.0,0.35416666666666663,0.37351190476190477,-0.8958333333333335,-1.0812074829931975,1,0,1,-0.0033094702731020905,0.1605812355324073,1.0,0.3333333333333333,0.3333333333333333,1.0,-0.6666666666666669,-0.6666666666666669,0.33333333333333315,0.33333333333333315,1.0,2.0,-1.0,1.0,1,0,1
10.0,0.0,10.0,0.0,0.0,0.0,0.0,0.0,373.5917005999945,377.0870828999905,None,right,1.2832542000105605,377.8027702999534,oy13,377.8027702999534,None,373.5917005999945,377.0870828999905,False,5.0,['p'],True,0.18,0.2,0.1,1.0,1.0,0.7058405977926203,-0.0277547547885865,wait_cost,0.0,4.0,,,oy13,1,2022-04-08_14h45.22.479,threat_forest,2021.2.3,60.12090311892305,False,11.0,0.35,0.3520833333333333,-1.3425000000000002,-1.1191666666666669,0,0,0,0.24939919540095015,-0.0277547547885865,0.18,0.18,0.2,0.9,-1.7000000000000002,-1.5600000000000003,3.4399999999999995,3.4399999999999995,1.0,1.0,-1.0,5.0,0,0,0
10.0,0.0,10.0,0.0,1.0,0.0,1.0,0.0,,,,right,0.9378249999135732,383.4584337000269,oy13,379.1039590999717,381.10374389996286,383.4584337000269,None,True,4.0,['p'],False,0.375,0.5,0.25,1.0,1.0,0.9850568223215076,0.0519862670288086,succ_gain,1.0,5.0,381.10374389996286,None,oy13,1,2022-04-08_14h45.22.479,threat_forest,2021.2.3,60.12090311892305,True,11.0,0.35,0.3520833333333333,-1.3425000000000002,-1.1191666666666669,0,1,1,-0.06419191463806648,0.0519862670288086,0.375,0.375,0.5,0.75,-1.25,-1.125,2.875,2.875,0.0,1.0,-1.0,4.0,0,1,0
10.0,0.0,10.0,0.0,2.0,0.0,2.0,0.0,,,,right,1.387090599979274,387.6176116999704,oy13,387.6176116999704,None,384.4205451000016,386.4202322999481,False,5.0,['p'],True,0.18,0.2,0.1,1.0,1.0,0.7058405977926203,-0.0842478930175782,wait_cost,0.0,4.0,386.4202322999481,None,oy13,1,2022-04-08_14h45.22.479,threat_forest,2021.2.3,60.12090311892305,False,11.0,0.35,0.3520833333333333,-1.3425000000000002,-1.1191666666666669,0,0,0,0.3272084600207769,-0.0842478930175782,0.18,0.18,0.2,0.9,-1.7000000000000002,-1.5600000000000003,3.4399999999999995,3.4399999999999995,1.0,1.0,1.0,5.0,0,0,0
10.0,0.0,10.0,0.0,3.0,0.0,3.0,0.0,,,,right,1.280351100023836,393.8392400000012,oy13,393.8392400000012,None,384.4205451000016,386.4202322999481,False,4.0,['p'],True,0.18,0.2,0.1,1.0,1.0,0.7058405977926203,-0.0879811640625001,wait_cost,0.0,3.0,391.0540161000099,None,oy13,1,2022-04-08_14h45.22.479,threat_forest,2021.2.3,60.12090311892305,False,11.0,0.35,0.3520833333333333,-1.3425000000000002,-1.1191666666666669,0,0,0,0.2471343372126325,-0.0879811640625001,0.18,0.18,0.2,0.9,-1.7000000000000002,-1.5600000000000003,2.4399999999999995,2.4399999999999995,1.0,1.0,-1.0,4.0,0,0,0
10.0,0.0,10.0,0.0,4.0,0.0,4.0,0.0,,,,right,1.8237395000178367,397.69487540004775,oy13,397.69487540004775,None,384.4205451000016,386.4202322999481,False,3.0,['p'],True,0.18,0.2,0.1,1.0,1.0,0.7058405977926203,-0.08106525,wait_cost,0.0,2.0,397.1376267999876,None,oy13,1,2022-04-08_14h45.22.479,threat_forest,2021.2.3,60.12090311892305,False,11.0,0.35,0.3520833333333333,-1.3425000000000002,-1.1191666666666669,0,0,0,0.6008890634800046,-0.08106525,0.18,0.18,0.2,0.9,-1.7000000000000002,-1.5600000000000003,1.4399999999999997,1.4399999999999997,1.0,1.0,-1.0,3.0,0,0,0
10.0,0.0,10.0,0.0,5.0,0.0,5.0,0.0,,,,right,1.3342778000514954,405.226205999963,oy13,405.226205999963,None,384.4205451000016,386.4202322999481,False,2.0,['p'],True,0.18,0.2,0.1,1.0,1.0,0.7058405977926203,-0.0975,wait_cost,0.0,1.0,401.53758010000456,None,oy13,1,2022-04-08_14h45.22.479,threat_forest,2021.2.3,60.12090311892305,False,11.0,0.35,0.3520833333333333,-1.3425000000000002,-1.1191666666666669,0,0,0,0.28839017172892484,-0.0975,0.18,0.18,0.2,0.9,-1.7000000000000002,-1.5600000000000003,0.4399999999999997,0.4399999999999997,1.0,1.0,-1.0,2.0,0,0,0
10.0,0.0,10.0,0.0,6.0,0.0,6.0,0.0,,,,left,1.2186658999416975,409.88059529999737,oy13,409.88059529999737,None,384.4205451000016,386.4202322999481,True,1.0,['p'],True,0.18,0.2,0.1,1.0,1.0,0.7058405977926203,0.1799999999999999,unsucc_cost,0.0,0.0,408.5876049000072,None,oy13,1,2022-04-08_14h45.22.479,threat_forest,2021.2.3,60.12090311892305,True,11.0,0.35,0.3520833333333333,-1.3425000000000002,-1.1191666666666669,0,0,1,0.1977567357729101,0.1799999999999999,1.0,0.18,0.2,0.9,-1.7000000000000002,-1.5600000000000003,-0.5600000000000003,0.0,1.0,1.0,-1.0,1.0,1,0,0
11.0,0.0,11.0,0.0,0.0,0.0,0.0,0.0,416.2679199000122,419.7712833000114,None,right,1.0340831000357866,422.8428965000203,oy13,416.2679199000122,419.7712833000114,422.8428965000203,None,True,4.0,['r'],False,0.5,0.5,0.0,0.0,2.0,0.6309297535714574,0.096737473125,succ_gain,1.0,6.0,,,oy13,1,2022-04-08_14h45.22.479,threat_forest,2021.2.3,60.12090311892305,True,67.0,0.55,0.45,-0.4800000000000001,-0.9112500000000001,1,1,1,0.033515140396385194,0.096737473125,0.5,0.5,0.5,1.0,0.0,0.0,4.0,4.0,0.0,2.0,-1.0,4.0,0,1,1
11.0,0.0,11.0,0.0,1.0,0.0,1.0,0.0,,,,right,1.3345651999115944,429.1760013999883,oy13,429.1760013999883,None,423.90481650002766,425.9048091999721,False,6.0,['r'],True,0.36,0.6,0.4,2.0,2.0,0.9801625908629508,-0.1255866,wait_cost,0.0,5.0,425.9048091999721,None,oy13,1,2022-04-08_14h45.22.479,threat_forest,2021.2.3,60.12090311892305,False,67.0,0.55,0.45,-0.4800000000000001,-0.9112500000000001,0,0,0,0.28860554585262854,-0.1255866,0.36,0.36,0.6,0.6,-0.8000000000000003,-0.9600000000000002,5.04,5.04,1.0,2.0,1.0,6.0,0,0,0
11.0,0.0,11.0,0.0,2.0,0.0,2.0,0.0,,,,left,1.916606100043282,436.2746799000306,oy13,436.2746799000306,None,423.90481650002766,425.9048091999721,True,5.0,['r'],True,0.36,0.6,0.4,2.0,2.0,0.9801625908629508,-0.050683,unsucc_cost,0.0,3.0,432.5379909999901,None,oy13,1,2022-04-08_14h45.22.479,threat_forest,2021.2.3,60.12090311892305,True,67.0,0.55,0.45,-0.4800000000000001,-0.9112500000000001,0,0,1,0.6505559656644414,-0.050683,0.36,0.36,0.6,0.6,-0.8000000000000003,-0.9600000000000002,4.04,4.04,1.0,2.0,-1.0,5.0,0,0,0
11.0,0.0,11.0,0.0,3.0,0.0,3.0,0.0,,,,right,1.0170581999700516,442.56078549998347,oy13,438.22150059998967,440.22150139999576,442.56078549998347,None,True,3.0,['r'],False,0.5,0.5,0.0,0.0,2.0,0.6309297535714574,0.16185,succ_gain,1.0,5.0,440.22150139999576,None,oy13,1,2022-04-08_14h45.22.479,threat_forest,2021.2.3,60.12090311892305,True,67.0,0.55,0.45,-0.4800000000000001,-0.9112500000000001,1,1,1,0.01691434253820968,0.16185,0.5,0.5,0.5,1.0,0.0,0.0,3.0,3.0,0.0,2.0,-1.0,3.0,0,1,1
11.0,0.0,11.0,0.0,4.0,0.0,4.0,0.0,,,,right,1.4867735999869185,447.57238809997216,oy13,438.22150059998967,440.22150139999576,447.57238809997216,None,True,5.0,['r'],False,0.5,0.5,0.0,0.0,2.0,0.6309297535714574,-0.205,succ_gain,1.0,6.0,445.60448360000737,None,oy13,1,2022-04-08_14h45.22.479,threat_forest,2021.2.3,60.12090311892305,True,67.0,0.55,0.45,-0.4800000000000001,-0.9112500000000001,1,1,1,0.39660840301947287,-0.205,0.0,0.5,0.5,1.0,0.0,0.0,5.0,5.0,0.0,2.0,1.0,5.0,0,1,1
11.0,0.0,11.0,0.0,5.0,0.0,5.0,0.0,,,,left,1.3516628000652418,453.7223654000554,oy13,438.22150059998967,440.22150139999576,453.7223654000554,None,False,6.0,['r'],False,0.5,0.5,0.0,0.0,2.0,0.6309297535714574,0.0,wait_cost,1.0,5.0,451.08808580006007,None,oy13,1,2022-04-08_14h45.22.479,threat_forest,2021.2.3,60.12090311892305,False,67.0,0.55,0.45,-0.4800000000000001,-0.9112500000000001,1,1,0,0.30133553827759796,0.0,0.0,0.5,0.5,1.0,0.0,0.0,6.0,6.0,0.0,2.0,1.0,6.0,0,1,1
11.0,0.0,11.0,0.0,6.0,0.0,6.0,0.0,,,,right,1.451748999999836,459.2149835999589,oy13,459.2149835999589,None,455.1048805000028,457.10475249995943,False,5.0,['r'],True,0.36,0.6,0.4,2.0,2.0,0.9801625908629508,0.0,wait_cost,0.0,4.0,457.1047524999594,None,oy13,1,2022-04-08_14h45.22.479,threat_forest,2021.2.3,60.12090311892305,False,67.0,0.55,0.45,-0.4800000000000001,-0.9112500000000001,0,0,0,0.37276903644583875,0.0,0.0,0.36,0.6,0.6,-0.8000000000000003,-0.9600000000000002,4.04,4.04,1.0,2.0,-1.0,5.0,0,0,0
11.0,0.0,11.0,0.0,7.0,0.0,7.0,0.0,,,,right,1.912680399953388,464.9418077999726,oy13,464.9418077999726,None,455.1048805000028,457.10475249995943,False,4.0,['r'],True,0.36,0.6,0.4,2.0,2.0,0.9801625908629508,0.0,wait_cost,0.0,3.0,462.68810869997833,None,oy13,1,2022-04-08_14h45.22.479,threat_forest,2021.2.3,60.12090311892305,False,67.0,0.55,0.45,-0.4800000000000001,-0.9112500000000001,0,0,0,0.6485056090430769,0.0,0.0,0.36,0.6,0.6,-0.8000000000000003,-0.9600000000000002,3.04,3.04,1.0,2.0,-1.0,4.0,0,0,0
12.0,0.0,12.0,0.0,0.0,0.0,0.0,0.0,472.3341099000536,475.8276116000488,None,right,1.4535389000084251,478.5336117000552,oy13,478.5336117000552,None,472.3341099000536,475.82761160004884,False,5.0,['p'],True,0.24,0.3,0.2,2.0,2.0,0.9003120349047065,-0.0305436800767033,wait_cost,0.0,4.0,,,oy13,1,2022-04-08_14h45.22.479,threat_forest,2021.2.3,60.12090311892305,False,15.0,0.4833333333333333,0.5166666666666666,-0.8977777777777778,-0.6888888888888889,0,0,0,0.37400120365036366,-0.0305436800767033,0.24,0.24,0.3,0.8,-1.4,-1.24,3.76,3.76,1.0,2.0,-1.0,5.0,0,0,0
12.0,0.0,12.0,0.0,1.0,0.0,1.0,0.0,,,,right,1.6043871999718249,483.4609121000394,oy13,480.0053885000525,482.0049827999901,483.4609121000394,None,True,4.0,['p'],False,0.4444444444444445,0.6666666666666666,0.3333333333333333,1.0,2.0,0.9656336071428248,0.112530937087955,unsucc_cost,1.0,2.0,482.0049827999901,None,oy13,1,2022-04-08_14h45.22.479,threat_forest,2021.2.3,60.12090311892305,True,15.0,0.4833333333333333,0.5166666666666666,-0.8977777777777778,-0.6888888888888889,1,0,1,0.4727418768040405,0.112530937087955,0.4444444444444445,0.4444444444444445,0.6666666666666666,0.6666666666666667,-0.3333333333333335,-0.5555555555555556,3.4444444444444446,3.4444444444444446,0.0,2.0,-1.0,4.0,0,0,1
12.0,0.0,12.0,0.0,2.0,0.0,2.0,0.0,,,,right,1.7957304000156,489.7396391000366,oy13,480.0053885000525,482.0049827999901,489.7396391000366,None,True,2.0,['p'],False,0.4444444444444445,0.6666666666666666,0.3333333333333333,1.0,2.0,0.9656336071428248,0.0768585517248386,unsucc_cost,1.0,0.0,487.0883361999877,None,oy13,1,2022-04-08_14h45.22.479,threat_forest,2021.2.3,60.12090311892305,True,15.0,0.4833333333333333,0.5166666666666666,-0.8977777777777778,-0.6888888888888889,1,0,1,0.5854118472622829,0.0768585517248386,0.4444444444444445,0.4444444444444445,0.6666666666666666,0.6666666666666667,-0.3333333333333335,-0.5555555555555556,1.4444444444444444,1.4444444444444444,0.0,2.0,-1.0,2.0,0,0,1
13.0,0.0,13.0,0.0,0.0,0.0,0.0,0.0,496.26706700003706,499.77203460002784,None,left,1.5095340000698343,501.3771523999749,oy13,501.3771523999749,None,496.26706700003706,499.77203460002784,True,5.0,['p'],True,0.4444444444444445,0.6666666666666666,0.3333333333333333,1.0,1.0,0.9656336071428248,0.0468159241685405,succ_gain,0.0,6.0,,,oy13,1,2022-04-08_14h45.22.479,threat_forest,2021.2.3,60.12090311892305,True,23.0,0.43333333333333335,0.4583333333333333,-1.3600000000000003,-1.128888888888889,1,0,1,0.41180099397193115,0.0468159241685405,0.4444444444444445,0.4444444444444445,0.6666666666666666,0.6666666666666667,-1.0,-1.0,4.0,4.0,1.0,1.0,-1.0,5.0,0,0,1
13.0,0.0,13.0,0.0,1.0,0.0,1.0,0.0,,,,right,1.4866329999640584,508.5067838999676,oy13,508.5067838999676,None,496.26706700003706,499.77203460002784,False,6.0,['p'],True,0.4444444444444445,0.6666666666666666,0.3333333333333333,1.0,1.0,0.9656336071428248,-0.1294202433609751,wait_cost,0.0,5.0,504.905533400015,None,oy13,1,2022-04-08_14h45.22.479,threat_forest,2021.2.3,60.12090311892305,False,23.0,0.43333333333333335,0.4583333333333333,-1.3600000000000003,-1.128888888888889,1,0,0,0.39651383134335755,-0.1294202433609751,0.4444444444444445,0.4444444444444445,0.6666666666666666,0.6666666666666667,-1.0,-1.0,5.0,5.0,1.0,1.0,1.0,6.0,0,0,1
13.0,0.0,13.0,0.0,2.0,0.0,2.0,0.0,,,,left,1.4555533999809995,512.8574339000043,oy13,512.8574339000043,None,496.26706700003706,499.77203460002784,True,5.0,['p'],True,0.4444444444444445,0.6666666666666666,0.3333333333333333,1.0,1.0,0.9656336071428248,0.0703882944673067,succ_gain,0.0,6.0,512.0224626000272,None,oy13,1,2022-04-08_14h45.22.479,threat_forest,2021.2.3,60.12090311892305,True,23.0,0.43333333333333335,0.4583333333333333,-1.3600000000000003,-1.128888888888889,1,0,1,0.3753861719407056,0.0703882944673067,0.4444444444444445,0.4444444444444445,0.6666666666666666,0.6666666666666667,-1.0,-1.0,4.0,4.0,1.0,1.0,-1.0,5.0,0,0,1
13.0,0.0,13.0,0.0,3.0,0.0,3.0,0.0,,,,right,1.2025622999062762,519.7592554000439,oy13,519.7592554000439,None,496.26706700003706,499.77203460002784,False,6.0,['p'],True,0.4444444444444445,0.6666666666666666,0.3333333333333333,1.0,1.0,0.9656336071428248,-0.3031374485596708,wait_cost,0.0,5.0,516.3387258000439,None,oy13,1,2022-04-08_14h45.22.479,threat_forest,2021.2.3,60.12090311892305,False,23.0,0.43333333333333335,0.4583333333333333,-1.3600000000000003,-1.128888888888889,1,0,0,0.18445453030962516,-0.3031374485596708,0.0,0.4444444444444445,0.6666666666666666,0.6666666666666667,-1.0,-1.0,5.0,5.0,1.0,1.0,1.0,6.0,0,0,1
13.0,0.0,13.0,0.0,4.0,0.0,4.0,0.0,,,,left,1.6115750999888403,524.0738019000273,oy13,520.9894292999525,522.9890100000193,524.0738019000273,None,False,5.0,['p'],False,0.16,0.2,0.2,2.0,1.0,0.8198746470064713,-0.4821530864197531,wait_cost,1.0,4.0,522.9890100000193,None,oy13,1,2022-04-08_14h45.22.479,threat_forest,2021.2.3,60.12090311892305,False,23.0,0.43333333333333335,0.4583333333333333,-1.3600000000000003,-1.128888888888889,0,0,0,0.4772120237247794,-0.4821530864197531,0.0,0.16,0.2,0.8,-2.0,-1.7200000000000004,3.2799999999999994,3.2799999999999994,0.0,1.0,-1.0,5.0,0,0,0
13.0,0.0,13.0,0.0,5.0,0.0,5.0,0.0,,,,left,1.543344600009732,528.8776165000163,oy13,520.9894292999525,522.9890100000193,528.8776165000163,None,False,4.0,['p'],False,0.16,0.2,0.2,2.0,1.0,0.8198746470064713,-0.5406222222222223,wait_cost,1.0,3.0,527.7227161000483,None,oy13,1,2022-04-08_14h45.22.479,threat_forest,2021.2.3,60.12090311892305,False,23.0,0.43333333333333335,0.4583333333333333,-1.3600000000000003,-1.128888888888889,0,0,0,0.43395187962567505,-0.5406222222222223,0.0,0.16,0.2,0.8,-2.0,-1.7200000000000004,2.2799999999999994,2.2799999999999994,0.0,1.0,-1.0,4.0,0,0,0
13.0,0.0,13.0,0.0,6.0,0.0,6.0,0.0,,,,left,1.3047536000376567,533.7133951999713,oy13,520.9894292999525,522.9890100000193,533.7133951999713,None,False,3.0,['p'],False,0.16,0.2,0.2,2.0,1.0,0.8198746470064713,-0.6465777777777778,wait_cost,1.0,2.0,532.4395438999636,None,oy13,1,2022-04-08_14h45.22.479,threat_forest,2021.2.3,60.12090311892305,False,23.0,0.43333333333333335,0.4583333333333333,-1.3600000000000003,-1.128888888888889,0,0,0,0.2660142107157026,-0.6465777777777778,0.0,0.16,0.2,0.8,-2.0,-1.7200000000000004,1.2799999999999996,1.2799999999999996,0.0,1.0,-1.0,3.0,0,0,0
13.0,0.0,13.0,0.0,7.0,0.0,7.0,0.0,,,,right,1.1134253999916837,538.4935347000137,oy13,538.4935347000137,None,535.0396477000322,537.0390754999826,False,2.0,['p'],True,0.4444444444444445,0.6666666666666666,0.3333333333333333,1.0,1.0,0.9656336071428248,-0.5555555555555556,wait_cost,0.0,1.0,537.0390754999826,None,oy13,1,2022-04-08_14h45.22.479,threat_forest,2021.2.3,60.12090311892305,False,23.0,0.43333333333333335,0.4583333333333333,-1.3600000000000003,-1.128888888888889,1,0,0,0.10744120950479781,-0.5555555555555556,0.0,0.4444444444444445,0.6666666666666666,0.6666666666666667,-1.0,-1.0,1.0,1.0,1.0,1.0,-1.0,2.0,0,0,1
14.0,0.0,14.0,0.0,0.0,0.0,0.0,0.0,543.2880049999803,546.7893869000254,None,right,1.0867663999088109,549.42997930001,oy13,549.42997930001,None,543.2880049999803,546.7893869000254,False,5.0,['p'],True,0.4444444444444445,0.6666666666666666,0.3333333333333333,1.0,2.0,0.9656336071428248,0.014840682614443,wait_cost,0.0,4.0,,,oy13,1,2022-04-08_14h45.22.479,threat_forest,2021.2.3,60.12090311892305,False,1.0,0.4833333333333333,0.4583333333333333,-0.7877777777777778,-1.0738888888888891,1,0,0,0.08320668155625449,0.014840682614443,0.4444444444444445,0.4444444444444445,0.6666666666666666,0.6666666666666667,-0.3333333333333335,-0.5555555555555556,4.444444444444445,4.444444444444445,1.0,2.0,-1.0,5.0,0,0,1
14.0,0.0,14.0,0.0,1.0,0.0,1.0,0.0,,,,left,2.2370580999413505,556.0157405999489,oy13,550.5396360000595,552.5395793999778,556.0157405999489,None,False,4.0,['p'],False,0.27,0.3,0.1,1.0,2.0,0.7963326591781347,0.0265089794654627,wait_cost,1.0,3.0,552.5395793999778,None,oy13,1,2022-04-08_14h45.22.479,threat_forest,2021.2.3,60.12090311892305,False,1.0,0.4833333333333333,0.4583333333333333,-0.7877777777777778,-1.0738888888888891,1,0,0,0.8051616544288107,0.0265089794654627,0.27,0.27,0.3,0.9,-1.1,-1.02,2.98,2.98,0.0,2.0,-1.0,4.0,0,0,1
14.0,0.0,14.0,0.0,2.0,0.0,2.0,0.0,,,,left,1.6821373000275344,561.0444567999803,oy13,550.5396360000595,552.5395793999778,561.0444567999803,None,False,3.0,['p'],False,0.27,0.3,0.1,1.0,2.0,0.7963326591781347,0.0676296630795609,wait_cost,1.0,2.0,560.2731879999628,None,oy13,1,2022-04-08_14h45.22.479,threat_forest,2021.2.3,60.12090311892305,False,1.0,0.4833333333333333,0.4583333333333333,-0.7877777777777778,-1.0738888888888891,1,0,0,0.5200651872487381,0.0676296630795609,0.27,0.27,0.3,0.9,-1.1,-1.02,1.98,1.98,0.0,2.0,-1.0,3.0,0,0,1
14.0,0.0,14.0,0.0,3.0,0.0,3.0,0.0,,,,left,2.1665075999917462,565.6279299999587,oy13,550.5396360000595,552.5395793999778,565.6279299999587,None,False,2.0,['p'],False,0.27,0.3,0.1,1.0,2.0,0.7963326591781347,-0.0185194067215362,wait_cost,1.0,1.0,564.7731664000312,None,oy13,1,2022-04-08_14h45.22.479,threat_forest,2021.2.3,60.12090311892305,False,1.0,0.4833333333333333,0.4583333333333333,-0.7877777777777778,-1.0738888888888891,1,0,0,0.7731164701500154,-0.0185194067215362,0.27,0.27,0.3,0.9,-1.1,-1.02,0.98,0.98,0.0,2.0,-1.0,2.0,0,0,1
14.0,0.0,14.0,0.0,4.0,0.0,4.0,0.0,,,,right,0.9645465000066906,571.7630184000591,oy13,550.5396360000595,552.5395793999778,571.7630184000591,None,True,1.0,['p'],False,0.27,0.3,0.1,1.0,2.0,0.7963326591781347,0.1375484166666667,unsucc_cost,1.0,0.0,569.8233963999664,None,oy13,1,2022-04-08_14h45.22.479,threat_forest,2021.2.3,60.12090311892305,True,1.0,0.4833333333333333,0.4583333333333333,-0.7877777777777778,-1.0738888888888891,1,0,1,-0.03609723628300051,0.1375484166666667,1.0,0.27,0.3,0.9,-1.1,-1.02,-0.020000000000000018,0.0,0.0,2.0,-1.0,1.0,1,0,1
15.0,0.0,15.0,0.0,0.0,0.0,0.0,0.0,578.3552958000218,581.8569603000069,None,left,1.6440347000025213,584.4508592999773,oy13,578.3552958000218,581.8569603000069,584.4508592999773,None,False,5.0,['p'],False,0.2040816326530612,0.2857142857142857,0.2857142857142857,2.0,2.0,0.9335459102197724,-0.0417655517413427,wait_cost,1.0,4.0,,,oy13,1,2022-04-08_14h45.22.479,threat_forest,2021.2.3,60.12090311892305,False,21.0,0.47619047619047616,0.4797619047619047,-1.012471655328798,-0.900124716553288,0,0,0,0.49715340346873205,-0.0417655517413427,0.2040816326530612,0.2040816326530612,0.2857142857142857,0.7142857142857143,-1.7142857142857144,-1.4693877551020407,3.5306122448979593,3.5306122448979593,0.0,2.0,-1.0,5.0,0,0,0
15.0,0.0,15.0,0.0,1.0,0.0,1.0,0.0,,,,left,2.1582756000570957,591.0450875000097,oy13,578.3552958000218,581.8569603000069,591.0450875000097,None,False,4.0,['p'],False,0.2040816326530612,0.2857142857142857,0.2857142857142857,2.0,2.0,0.9335459102197724,0.016103917800016,wait_cost,1.0,3.0,588.1237378000515,None,oy13,1,2022-04-08_14h45.22.479,threat_forest,2021.2.3,60.12090311892305,False,21.0,0.47619047619047616,0.4797619047619047,-1.012471655328798,-0.900124716553288,0,0,0,0.7693095695514353,0.016103917800016,0.2040816326530612,0.2040816326530612,0.2857142857142857,0.7142857142857143,-1.7142857142857144,-1.4693877551020407,2.5306122448979593,2.5306122448979593,0.0,2.0,-1.0,4.0,0,0,0
15.0,0.0,15.0,0.0,2.0,0.0,2.0,0.0,,,,right,1.9298245999962087,598.2956907000626,oy13,598.2956907000626,None,593.2239572999533,595.2236748000141,False,3.0,['p'],True,0.4444444444444445,0.6666666666666666,0.3333333333333333,1.0,2.0,0.9656336071428248,0.1089079935511806,wait_cost,0.0,2.0,595.2236748000141,None,oy13,1,2022-04-08_14h45.22.479,threat_forest,2021.2.3,60.12090311892305,False,21.0,0.47619047619047616,0.4797619047619047,-1.012471655328798,-0.900124716553288,1,0,0,0.6574291179559013,0.1089079935511806,0.4444444444444445,0.4444444444444445,0.6666666666666666,0.6666666666666667,-0.3333333333333335,-0.5555555555555556,2.4444444444444446,2.4444444444444446,1.0,2.0,-1.0,3.0,0,0,1
15.0,0.0,15.0,0.0,3.0,0.0,3.0,0.0,,,,left,1.8138420999748632,604.332067899988,oy13,600.2573785999557,602.2573518999852,604.332067899988,None,False,2.0,['p'],False,0.2040816326530612,0.2857142857142857,0.2857142857142857,2.0,2.0,0.9335459102197724,-0.0306724464080636,wait_cost,1.0,1.0,602.2573518999852,None,oy13,1,2022-04-08_14h45.22.479,threat_forest,2021.2.3,60.12090311892305,False,21.0,0.47619047619047616,0.4797619047619047,-1.012471655328798,-0.900124716553288,0,0,0,0.5954473026864638,-0.0306724464080636,0.2040816326530612,0.2040816326530612,0.2857142857142857,0.7142857142857143,-1.7142857142857144,-1.4693877551020407,0.5306122448979593,0.5306122448979593,0.0,2.0,-1.0,2.0,0,0,0
15.0,0.0,15.0,0.0,4.0,0.0,4.0,0.0,,,,left,0.7095621000044048,610.0955092000077,oy13,610.0955092000077,None,606.1743215000024,608.1738841000479,True,1.0,['p'],True,0.4444444444444445,0.6666666666666666,0.3333333333333333,1.0,2.0,0.9656336071428248,0.2001903642115282,figh_cost,0.0,0.0,608.1738841000479,None,oy13,1,2022-04-08_14h45.22.479,threat_forest,2021.2.3,60.12090311892305,True,21.0,0.47619047619047616,0.4797619047619047,-1.012471655328798,-0.900124716553288,1,0,1,-0.3431072597789849,0.2001903642115282,1.0,0.4444444444444445,0.6666666666666666,0.6666666666666667,-0.3333333333333335,-0.5555555555555556,0.4444444444444444,0.4444444444444444,1.0,2.0,-1.0,1.0,1,0,1
16.0,0.0,16.0,0.0,0.0,0.0,0.0,0.0,614.5379370000446,618.0402266000165,None,left,1.3664851000066849,620.6808751999633,oy13,620.6808751999633,None,614.5379370000446,618.0402266000165,True,5.0,['p'],True,0.25,0.5,0.5,1.0,1.0,0.9463946303571862,0.0122551342604393,figh_cost,0.0,2.0,,,oy13,1,2022-04-08_14h45.22.479,threat_forest,2021.2.3,60.12090311892305,True,71.0,0.35,0.41309523809523807,-1.7350000000000003,-1.3737358276643992,0,0,1,0.31224182256267885,0.0122551342604393,0.25,0.25,0.5,0.5,-2.0,-1.75,3.25,3.25,1.0,1.0,-1.0,5.0,0,0,0
16.0,0.0,16.0,0.0,1.0,0.0,1.0,0.0,,,,right,1.4074094999814406,625.393921699957,oy13,625.393921699957,None,614.5379370000446,618.0402266000165,False,2.0,['p'],True,0.25,0.5,0.5,1.0,1.0,0.9463946303571862,0.004407104375,wait_cost,0.0,1.0,624.0739508999977,None,oy13,1,2022-04-08_14h45.22.479,threat_forest,2021.2.3,60.12090311892305,False,71.0,0.35,0.41309523809523807,-1.7350000000000003,-1.3737358276643992,0,0,0,0.3417507805498697,0.004407104375,0.25,0.25,0.5,0.5,-2.0,-1.75,0.25,0.25,1.0,1.0,-1.0,2.0,0,0,0
16.0,0.0,16.0,0.0,2.0,0.0,2.0,0.0,,,,right,1.317925599985756,631.0992998000002,oy13,626.8243043000111,628.8242164000403,631.0992998000002,None,True,1.0,['p'],False,0.16,0.2,0.2,2.0,1.0,0.8198746470064713,0.0086225937499998,unsucc_cost,1.0,0.0,628.8242164000403,None,oy13,1,2022-04-08_14h45.22.479,threat_forest,2021.2.3,60.12090311892305,True,71.0,0.35,0.41309523809523807,-1.7350000000000003,-1.3737358276643992,0,0,1,0.27605898531079137,0.0086225937499998,1.0,0.16,0.2,0.8,-2.0,-1.7200000000000004,-0.7200000000000004,0.0,0.0,1.0,-1.0,1.0,1,0,0
17.0,0.0,17.0,0.0,0.0,0.0,0.0,0.0,635.4349560999544,638.9408716000617,None,right,1.2743849999969823,639.5024768000003,oy13,639.5024768000003,None,635.4349560999544,638.9408716000617,False,5.0,['p'],True,0.2448979591836734,0.2857142857142857,0.1428571428571428,1.0,2.0,0.8400769154957735,-0.0142294939424326,wait_cost,0.0,4.0,,,oy13,1,2022-04-08_14h45.22.479,threat_forest,2021.2.3,60.12090311892305,False,42.0,0.39285714285714285,0.37142857142857144,-0.9566326530612245,-1.3458163265306125,1,0,0,0.24246370929724279,-0.0142294939424326,0.2448979591836734,0.2448979591836734,0.2857142857142857,0.8571428571428572,-1.2857142857142856,-1.163265306122449,3.836734693877551,3.836734693877551,1.0,2.0,-1.0,5.0,0,0,1
17.0,0.0,17.0,0.0,1.0,0.0,1.0,0.0,,,,right,0.8591300999978557,643.6138246000046,oy13,640.8081753000151,642.8075387000572,643.6138246000046,None,True,4.0,['p'],False,0.375,0.5,0.25,1.0,2.0,0.9850568223215076,0.0723916443011504,succ_gain,1.0,6.0,642.8075387000572,None,oy13,1,2022-04-08_14h45.22.479,threat_forest,2021.2.3,60.12090311892305,True,42.0,0.39285714285714285,0.37142857142857144,-0.9566326530612245,-1.3458163265306125,1,1,1,-0.15183491328811308,0.0723916443011504,0.375,0.375,0.5,0.75,-0.75,-0.75,3.25,3.25,0.0,2.0,-1.0,4.0,0,1,1
17.0,0.0,17.0,0.0,2.0,0.0,2.0,0.0,,,,right,1.0072171000065282,648.3996140999952,oy13,648.3996140999952,None,644.491023599985,646.4910659999587,False,6.0,['p'],True,0.2448979591836734,0.2857142857142857,0.1428571428571428,1.0,2.0,0.8400769154957735,0.0047709633861774,wait_cost,0.0,5.0,646.4910659999587,None,oy13,1,2022-04-08_14h45.22.479,threat_forest,2021.2.3,60.12090311892305,False,42.0,0.39285714285714285,0.37142857142857144,-0.9566326530612245,-1.3458163265306125,1,0,0,0.007191181370488327,0.0047709633861774,0.2448979591836734,0.2448979591836734,0.2857142857142857,0.8571428571428572,-1.2857142857142856,-1.163265306122449,4.836734693877551,4.836734693877551,1.0,2.0,1.0,6.0,0,0,1
17.0,0.0,17.0,0.0,3.0,0.0,3.0,0.0,,,,right,1.3424396999180317,652.3443024000153,oy13,652.3443024000153,None,644.491023599985,646.4910659999587,False,5.0,['p'],True,0.2448979591836734,0.2857142857142857,0.1428571428571428,1.0,2.0,0.8400769154957735,0.0373747631992197,wait_cost,0.0,4.0,651.4245257000439,None,oy13,1,2022-04-08_14h45.22.479,threat_forest,2021.2.3,60.12090311892305,False,42.0,0.39285714285714285,0.37142857142857144,-0.9566326530612245,-1.3458163265306125,1,0,0,0.2944886301299434,0.0373747631992197,0.2448979591836734,0.2448979591836734,0.2857142857142857,0.8571428571428572,-1.2857142857142856,-1.163265306122449,3.836734693877551,3.836734693877551,1.0,2.0,-1.0,5.0,0,0,1
17.0,0.0,17.0,0.0,4.0,0.0,4.0,0.0,,,,right,1.057443599915132,658.0963670000201,oy13,658.0963670000201,None,644.491023599985,646.4910659999587,False,4.0,['p'],True,0.2448979591836734,0.2857142857142857,0.1428571428571428,1.0,2.0,0.8400769154957735,0.0359078899416909,wait_cost,0.0,3.0,655.7077292000176,None,oy13,1,2022-04-08_14h45.22.479,threat_forest,2021.2.3,60.12090311892305,False,42.0,0.39285714285714285,0.37142857142857144,-0.9566326530612245,-1.3458163265306125,1,0,0,0.05585429710243208,0.0359078899416909,0.2448979591836734,0.2448979591836734,0.2857142857142857,0.8571428571428572,-1.2857142857142856,-1.163265306122449,2.836734693877551,2.836734693877551,1.0,2.0,-1.0,4.0,0,0,1
17.0,0.0,17.0,0.0,5.0,0.0,5.0,0.0,,,,right,1.409117599949241,664.6783476000419,oy13,664.6783476000419,None,644.491023599985,646.4910659999587,False,3.0,['p'],True,0.2448979591836734,0.2857142857142857,0.1428571428571428,1.0,2.0,0.8400769154957735,0.0921881507705122,wait_cost,0.0,2.0,661.1745921999682,None,oy13,1,2022-04-08_14h45.22.479,threat_forest,2021.2.3,60.12090311892305,False,42.0,0.39285714285714285,0.37142857142857144,-0.9566326530612245,-1.3458163265306125,1,0,0,0.34296369284689615,0.0921881507705122,0.2448979591836734,0.2448979591836734,0.2857142857142857,0.8571428571428572,-1.2857142857142856,-1.163265306122449,1.836734693877551,1.836734693877551,1.0,2.0,-1.0,3.0,0,0,1
17.0,0.0,17.0,0.0,6.0,0.0,6.0,0.0,,,,left,0.8960860000224784,671.3603409000207,oy13,671.3603409000207,None,644.491023599985,646.4910659999587,True,2.0,['p'],True,0.2448979591836734,0.2857142857142857,0.1428571428571428,1.0,2.0,0.8400769154957735,-0.0650510204081632,succ_gain,0.0,4.0,668.1078820000403,None,oy13,1,2022-04-08_14h45.22.479,threat_forest,2021.2.3,60.12090311892305,True,42.0,0.39285714285714285,0.37142857142857144,-0.9566326530612245,-1.3458163265306125,1,0,1,-0.10971888844525549,-0.0650510204081632,0.2448979591836734,0.2448979591836734,0.2857142857142857,0.8571428571428572,-1.2857142857142856,-1.163265306122449,0.8367346938775511,0.8367346938775511,1.0,2.0,-1.0,2.0,0,0,1
17.0,0.0,17.0,0.0,7.0,0.0,7.0,0.0,,,,right,1.5375156999798492,674.8782818999607,oy13,674.8782818999607,None,644.491023599985,646.4910659999587,False,4.0,['p'],True,0.2448979591836734,0.2857142857142857,0.1428571428571428,1.0,2.0,0.8400769154957735,0.0,wait_cost,0.0,3.0,674.2745904000476,None,oy13,1,2022-04-08_14h45.22.479,threat_forest,2021.2.3,60.12090311892305,False,42.0,0.39285714285714285,0.37142857142857144,-0.9566326530612245,-1.3458163265306125,1,0,0,0.4301679320154078,0.0,0.0,0.2448979591836734,0.2857142857142857,0.8571428571428572,-1.2857142857142856,-1.163265306122449,2.836734693877551,2.836734693877551,1.0,2.0,1.0,4.0,0,0,1
0.0,0.0,0.0,0.0,0.0,0.0,0.0,0.0,28.39639809995424,31.898685700027272,None,left,0.8230372999096289,32.87116480001714,oy13,32.87116480001714,None,28.39639809995424,31.898685700027272,True,4.0,['r'],True,0.4,0.4,0.0,0.0,1.0,0.6126016192893442,0.0461191598079562,succ_gain,0.0,5.0,,,oy13,2,2022-04-08_14h58.33.802,threat_forest,2021.2.3,59.77429225171653,True,7.0,0.45,0.42142857142857143,-1.0666666666666667,-1.0116496598639455,1,0,1,-0.19475375744917003,0.0461191598079562,0.4,0.4,0.4,1.0,-0.7999999999999999,-0.7999999999999999,3.2,3.2,1.0,1.0,-1.0,4.0,0,0,1
0.0,0.0,0.0,0.0,1.0,0.0,1.0,0.0,,,,left,1.4315114999189973,38.622178700054064,oy13,33.715573200024664,35.71543430001475,38.622178700054064,None,False,5.0,['r'],False,0.3333333333333333,0.5,0.3333333333333333,2.0,1.0,1.0,0.0085305486968449,wait_cost,1.0,4.0,35.71543430001475,None,oy13,2,2022-04-08_14h58.33.802,threat_forest,2021.2.3,59.77429225171653,False,7.0,0.45,0.42142857142857143,-1.0666666666666667,-1.0116496598639455,0,0,0,0.35873087899843953,0.0085305486968449,0.3333333333333333,0.3333333333333333,0.5,0.6666666666666667,-1.5,-1.3333333333333335,3.6666666666666665,3.6666666666666665,0.0,1.0,1.0,5.0,0,0,0
0.0,0.0,0.0,0.0,2.0,0.0,2.0,0.0,,,,left,0.8923966999864206,45.222153699956834,oy13,45.222153699956834,None,40.08204640005715,42.081888400018215,True,4.0,['r'],True,0.4,0.4,0.0,0.0,1.0,0.6126016192893442,0.0645959259259258,succ_gain,0.0,5.0,42.081888400018215,None,oy13,2,2022-04-08_14h58.33.802,threat_forest,2021.2.3,59.77429225171653,True,7.0,0.45,0.42142857142857143,-1.0666666666666667,-1.0116496598639455,1,0,1,-0.11384451433913502,0.0645959259259258,0.4,0.4,0.4,1.0,-0.7999999999999999,-0.7999999999999999,3.2,3.2,1.0,1.0,-1.0,4.0,0,0,1
0.0,0.0,0.0,0.0,3.0,0.0,3.0,0.0,,,,left,1.1199770999373868,49.49034190003295,oy13,46.13212209998164,48.13213140005246,49.49034190003295,None,False,5.0,['r'],False,0.3333333333333333,0.5,0.3333333333333333,2.0,1.0,1.0,-0.040216049382716,wait_cost,1.0,4.0,48.13213140005246,None,oy13,2,2022-04-08_14h58.33.802,threat_forest,2021.2.3,59.77429225171653,False,7.0,0.45,0.42142857142857143,-1.0666666666666667,-1.0116496598639455,0,0,0,0.1133082386134949,-0.040216049382716,0.3333333333333333,0.3333333333333333,0.5,0.6666666666666667,-1.5,-1.3333333333333335,3.6666666666666665,3.6666666666666665,0.0,1.0,1.0,5.0,0,0,0
0.0,0.0,0.0,0.0,4.0,0.0,4.0,0.0,,,,left,0.8827157999621704,55.387307099998,oy13,55.387307099998,None,50.63233179994859,52.631963600055315,True,4.0,['r'],True,0.4,0.4,0.0,0.0,1.0,0.6126016192893442,0.0922222222222222,unsucc_cost,0.0,2.0,52.63196360005532,None,oy13,2,2022-04-08_14h58.33.802,threat_forest,2021.2.3,59.77429225171653,True,7.0,0.45,0.42142857142857143,-1.0666666666666667,-1.0116496598639455,1,0,1,-0.12475198753285512,0.0922222222222222,0.4,0.4,0.4,1.0,-0.7999999999999999,-0.7999999999999999,3.2,3.2,1.0,1.0,-1.0,4.0,0,0,1
0.0,0.0,0.0,0.0,5.0,0.0,5.0,0.0,,,,left,1.0525122999679295,61.46824499999639,oy13,61.46824499999639,None,50.63233179994859,52.631963600055315,True,2.0,['r'],True,0.4,0.4,0.0,0.0,1.0,0.6126016192893442,0.0333333333333333,unsucc_cost,0.0,0.0,58.298793100053445,None,oy13,2,2022-04-08_14h58.33.802,threat_forest,2021.2.3,59.77429225171653,True,7.0,0.45,0.42142857142857143,-1.0666666666666667,-1.0116496598639455,1,0,1,0.05117997293645045,0.0333333333333333,0.4,0.4,0.4,1.0,-0.7999999999999999,-0.7999999999999999,1.2000000000000002,1.2000000000000002,1.0,1.0,-1.0,2.0,0,0,1
1.0,0.0,1.0,0.0,0.0,0.0,0.0,0.0,66.26814920001198,69.78227289998904,None,right,1.5203105000546202,72.15817840001546,oy13,72.15817840001546,None,66.26814920001198,69.78227289998904,False,5.0,['p'],True,0.3333333333333333,0.5,0.3333333333333333,2.0,2.0,1.0,-0.0164991778692271,wait_cost,0.0,4.0,,,oy13,2,2022-04-08_14h58.33.802,threat_forest,2021.2.3,59.77429225171653,False,2.0,0.45,0.45,-0.7,-0.8833333333333333,0,0,0,0.4189145903483359,-0.0164991778692271,0.3333333333333333,0.3333333333333333,0.5,0.6666666666666667,-1.0,-1.0,4.0,4.0,1.0,2.0,-1.0,5.0,0,0,0
1.0,0.0,1.0,0.0,1.0,0.0,1.0,0.0,,,,right,1.3852267999900505,79.13733149995096,oy13,73.69949220004492,75.69935010001063,79.13733149995096,None,True,4.0,['p'],False,0.4,0.4,0.0,0.0,2.0,0.6126016192893442,0.0736827160493828,unsucc_cost,1.0,2.0,75.69935010001063,None,oy13,2,2022-04-08_14h58.33.802,threat_forest,2021.2.3,59.77429225171653,True,2.0,0.45,0.45,-0.7,-0.8833333333333333,1,0,1,0.32586388073844796,0.0736827160493828,0.4,0.4,0.4,1.0,-0.3999999999999999,-0.3999999999999999,3.6,3.6,0.0,2.0,-1.0,4.0,0,0,1
1.0,0.0,1.0,0.0,2.0,0.0,2.0,0.0,,,,left,1.6362922999542209,83.34963920002338,oy13,73.69949220004492,75.69935010001063,83.34963920002338,None,False,2.0,['p'],False,0.4,0.4,0.0,0.0,2.0,0.6126016192893442,0.0363703703703703,wait_cost,1.0,1.0,82.54934979998507,None,oy13,2,2022-04-08_14h58.33.802,threat_forest,2021.2.3,59.77429225171653,False,2.0,0.45,0.45,-0.7,-0.8833333333333333,1,0,0,0.49243288967510696,0.0363703703703703,0.4,0.4,0.4,1.0,-0.3999999999999999,-0.3999999999999999,1.6,1.6,0.0,2.0,-1.0,2.0,0,0,1
1.0,0.0,1.0,0.0,3.0,0.0,3.0,0.0,,,,left,0.6485569999786094,90.02963410003576,oy13,90.02963410003576,None,85.0166003999766,87.0160734000383,True,1.0,['p'],True,0.3333333333333333,0.5,0.3333333333333333,2.0,2.0,1.0,0.1792592592592592,fight_cost,0.0,0.0,87.0160734000383,None,oy13,2,2022-04-08_14h58.33.802,threat_forest,2021.2.3,59.77429225171653,True,2.0,0.45,0.45,-0.7,-0.8833333333333333,0,0,1,-0.4330053839785352,0.1792592592592592,1.0,0.3333333333333333,0.5,0.6666666666666667,-1.0,-1.0,0.0,0.0,1.0,2.0,-1.0,1.0,1,0,0
2.0,0.0,2.0,0.0,0.0,0.0,0.0,0.0,95.0310852000257,98.53671000001486,None,left,1.0356245000148192,102.30605380004272,oy13,95.0310852000257,98.53671000001486,102.30605380004272,None,False,4.0,['p'],False,0.2,0.2,0.0,0.0,2.0,0.4554859150035951,-0.0012731594242116,wait_cost,1.0,3.0,,,oy13,2,2022-04-08_14h58.33.802,threat_forest,2021.2.3,59.77429225171653,False,37.0,0.26666666666666666,0.35833333333333334,-1.1277777777777778,-0.9138888888888889,0,0,0,0.0350046264126418,-0.0012731594242116,0.2,0.2,0.2,1.0,-1.2000000000000002,-1.2000000000000002,2.8,2.8,0.0,2.0,-1.0,4.0,0,0,0
2.0,0.0,2.0,0.0,1.0,0.0,1.0,0.0,,,,left,1.2817891000304371,107.02266849996522,oy13,107.02266849996522,None,103.3667901000008,105.36652379995212,True,3.0,['p'],True,0.2777777777777778,0.3333333333333333,0.1666666666666666,1.0,2.0,0.8929352898779304,0.0598929245085531,succ_gain,0.0,5.0,105.36652379995212,None,oy13,2,2022-04-08_14h58.33.802,threat_forest,2021.2.3,59.77429225171653,True,37.0,0.26666666666666666,0.35833333333333334,-1.1277777777777778,-0.9138888888888889,0,0,1,0.24825683640886018,0.0598929245085531,0.2777777777777778,0.2777777777777778,0.3333333333333333,0.8333333333333334,-1.1666666666666665,-1.0555555555555556,1.9444444444444444,1.9444444444444444,1.0,2.0,-1.0,3.0,0,0,0
2.0,0.0,2.0,0.0,2.0,0.0,2.0,0.0,,,,left,1.0008369999704885,111.39943630003836,oy13,108.33351989998482,110.33303530002013,111.39943630003836,None,False,5.0,['p'],False,0.2,0.2,0.0,0.0,2.0,0.4554859150035951,0.021066981786313,wait_cost,1.0,4.0,110.33303530002011,None,oy13,2,2022-04-08_14h58.33.802,threat_forest,2021.2.3,59.77429225171653,False,37.0,0.26666666666666666,0.35833333333333334,-1.1277777777777778,-0.9138888888888889,0,0,0,0.0008366498813492867,0.021066981786313,0.2,0.2,0.2,1.0,-1.2000000000000002,-1.2000000000000002,3.8,3.8,0.0,2.0,1.0,5.0,0,0,0
2.0,0.0,2.0,0.0,3.0,0.0,3.0,0.0,,,,left,1.1202518999343738,116.90550730004908,oy13,108.33351989998482,110.33303530002013,116.90550730004908,None,False,4.0,['p'],False,0.2,0.2,0.0,0.0,2.0,0.4554859150035951,0.0058641975308642,wait_cost,1.0,3.0,114.4331109999912,None,oy13,2,2022-04-08_14h58.33.802,threat_forest,2021.2.3,59.77429225171653,False,37.0,0.26666666666666666,0.35833333333333334,-1.1277777777777778,-0.9138888888888889,0,0,0,0.11355357067408425,0.0058641975308642,0.2,0.2,0.2,1.0,-1.2000000000000002,-1.2000000000000002,2.8,2.8,0.0,2.0,-1.0,4.0,0,0,0
2.0,0.0,2.0,0.0,4.0,0.0,4.0,0.0,,,,left,1.5313892000121996,123.67180400004143,oy13,123.67180400004143,None,118.05007510003634,120.04949440003838,True,3.0,['p'],True,0.2777777777777778,0.3333333333333333,0.1666666666666666,1.0,2.0,0.8929352898779304,0.1521604938271604,unsucc_cost,0.0,1.0,120.04949440003838,None,oy13,2,2022-04-08_14h58.33.802,threat_forest,2021.2.3,59.77429225171653,True,37.0,0.26666666666666666,0.35833333333333334,-1.1277777777777778,-0.9138888888888889,0,0,1,0.42617529730960424,0.1521604938271604,0.2777777777777778,0.2777777777777778,0.3333333333333333,0.8333333333333334,-1.1666666666666665,-1.0555555555555556,1.9444444444444444,1.9444444444444444,1.0,2.0,-1.0,3.0,0,0,0
2.0,0.0,2.0,0.0,5.0,0.0,5.0,0.0,,,,left,1.2128234000410885,128.03572609997354,oy13,128.03572609997354,None,118.05007510003634,120.04949440003838,True,1.0,['p'],True,0.2777777777777778,0.3333333333333333,0.1666666666666666,1.0,2.0,0.8929352898779304,0.2777777777777777,unsucc_cost,0.0,0.0,127.23322369996458,None,oy13,2,2022-04-08_14h58.33.802,threat_forest,2021.2.3,59.77429225171653,True,37.0,0.26666666666666666,0.35833333333333334,-1.1277777777777778,-0.9138888888888889,0,0,1,0.1929510299489686,0.2777777777777777,1.0,0.2777777777777778,0.3333333333333333,0.8333333333333334,-1.1666666666666665,-1.0555555555555556,-0.05555555555555558,0.0,1.0,2.0,-1.0,1.0,1,0,0
3.0,0.0,3.0,0.0,0.0,0.0,0.0,0.0,133.62520280003082,137.13358909997623,None,left,0.7941438999259844,138.7731837000465,oy13,138.7731837000465,None,133.62520280003082,137.13358909997623,True,5.0,['r'],True,0.5,0.5,0.0,0.0,2.0,0.6309297535714574,0.0540215703294548,unsucc_cost,0.0,3.0,,,oy13,2,2022-04-08_14h58.33.802,threat_forest,2021.2.3,59.77429225171653,True,58.0,0.5357142857142857,0.4011904761904762,-0.326530612244898,-0.7271541950113378,1,1,1,-0.23049059999222002,0.0540215703294548,0.5,0.5,0.5,1.0,0.0,0.0,5.0,5.0,1.0,2.0,-1.0,5.0,0,1,1
3.0,0.0,3.0,0.0,1.0,0.0,1.0,0.0,,,,left,1.1191828000592068,143.14190100005362,oy13,139.5842942999443,141.58334989997093,143.14190100005362,None,False,3.0,['r'],False,0.4081632653061224,0.5714285714285714,0.2857142857142857,2.0,2.0,0.9885754083994552,0.0633701866529412,wait_cost,1.0,2.0,141.58334989997093,None,oy13,2,2022-04-08_14h58.33.802,threat_forest,2021.2.3,59.77429225171653,False,58.0,0.5357142857142857,0.4011904761904762,-0.326530612244898,-0.7271541950113378,1,1,0,0.11259877618385962,0.0633701866529412,0.4081632653061224,0.4081632653061224,0.5714285714285714,0.7142857142857143,-0.5714285714285715,-0.653061224489796,2.3469387755102042,2.3469387755102042,0.0,2.0,-1.0,3.0,0,1,1
3.0,0.0,3.0,0.0,2.0,0.0,2.0,0.0,,,,left,1.0583221999695525,149.93595820001792,oy13,149.93595820001792,None,144.28384289995302,146.28366980003193,True,2.0,['r'],True,0.5,0.5,0.0,0.0,2.0,0.6309297535714574,0.0546088098921367,unsucc_cost,0.0,0.0,146.28366980003193,None,oy13,2,2022-04-08_14h58.33.802,threat_forest,2021.2.3,59.77429225171653,True,58.0,0.5357142857142857,0.4011904761904762,-0.326530612244898,-0.7271541950113378,1,1,1,0.056684823907404,0.0546088098921367,0.5,0.5,0.5,1.0,0.0,0.0,2.0,2.0,1.0,2.0,-1.0,2.0,0,1,1
4.0,0.0,4.0,0.0,0.0,0.0,0.0,0.0,154.81653409998398,158.3172017999459,None,left,0.9932752000167966,161.35678909998387,oy13,154.81653409998398,158.3172017999459,161.35678909998387,None,False,4.0,['p'],False,0.25,0.25,0.0,0.0,2.0,0.5118595071429148,0.0217710183950354,wait_cost,1.0,3.0,,,oy13,2,2022-04-08_14h58.33.802,threat_forest,2021.2.3,59.77429225171653,False,17.0,0.26785714285714285,0.4017857142857143,-1.2346938775510203,-0.7806122448979591,0,0,0,-0.006747513336385442,0.0217710183950354,0.25,0.25,0.25,1.0,-1.0,-1.0,3.0,3.0,0.0,2.0,-1.0,4.0,0,0,0
4.0,0.0,4.0,0.0,1.0,0.0,1.0,0.0,,,,right,1.2052204000065103,165.58371859998442,oy13,154.81653409998398,158.3172017999459,165.58371859998442,None,True,3.0,['p'],False,0.25,0.25,0.0,0.0,2.0,0.5118595071429148,0.0631612346701049,succ_gain,1.0,5.0,164.36718289996497,None,oy13,2,2022-04-08_14h58.33.802,threat_forest,2021.2.3,59.77429225171653,True,17.0,0.26785714285714285,0.4017857142857143,-1.2346938775510203,-0.7806122448979591,0,0,1,0.18666245478733498,0.0631612346701049,0.25,0.25,0.25,1.0,-1.0,-1.0,2.0,2.0,0.0,2.0,-1.0,3.0,0,0,0
4.0,0.0,4.0,0.0,2.0,0.0,2.0,0.0,,,,left,0.6518852999433875,172.10211550001986,oy13,154.81653409998398,158.3172017999459,172.10211550001986,None,False,5.0,['p'],False,0.25,0.25,0.0,0.0,2.0,0.5118595071429148,0.060495146856459,wait_cost,1.0,4.0,168.8171703000553,None,oy13,2,2022-04-08_14h58.33.802,threat_forest,2021.2.3,59.77429225171653,False,17.0,0.26785714285714285,0.4017857142857143,-1.2346938775510203,-0.7806122448979591,0,0,0,-0.4278866528635085,0.060495146856459,0.25,0.25,0.25,1.0,-1.0,-1.0,4.0,4.0,0.0,2.0,1.0,5.0,0,0,0
4.0,0.0,4.0,0.0,3.0,0.0,3.0,0.0,,,,right,0.8079329000320286,176.4917446000036,oy13,176.4917446000036,None,172.78431699995417,174.7839942999417,False,4.0,['p'],True,0.2040816326530612,0.2857142857142857,0.2857142857142857,2.0,2.0,0.9335459102197724,-0.0203160545730458,wait_cost,0.0,3.0,174.7839942999417,None,oy13,2,2022-04-08_14h58.33.802,threat_forest,2021.2.3,59.77429225171653,False,17.0,0.26785714285714285,0.4017857142857143,-1.2346938775510203,-0.7806122448979591,0,0,0,-0.21327626842424446,-0.0203160545730458,0.2040816326530612,0.2040816326530612,0.2857142857142857,0.7142857142857143,-1.7142857142857144,-1.4693877551020407,2.5306122448979593,2.5306122448979593,1.0,2.0,-1.0,4.0,0,0,0
4.0,0.0,4.0,0.0,4.0,0.0,4.0,0.0,,,,right,1.1554568000137806,182.65663350000975,oy13,182.65663350000975,None,172.78431699995417,174.7839942999417,False,3.0,['p'],True,0.2040816326530612,0.2857142857142857,0.2857142857142857,2.0,2.0,0.9335459102197724,0.0813983756768013,wait_cost,0.0,2.0,179.31715699995402,None,oy13,2,2022-04-08_14h58.33.802,threat_forest,2021.2.3,59.77429225171653,False,17.0,0.26785714285714285,0.4017857142857143,-1.2346938775510203,-0.7806122448979591,0,0,0,0.14449576363252725,0.0813983756768013,0.2040816326530612,0.2040816326530612,0.2857142857142857,0.7142857142857143,-1.7142857142857144,-1.4693877551020407,1.5306122448979593,1.5306122448979593,1.0,2.0,-1.0,3.0,0,0,0
4.0,0.0,4.0,0.0,5.0,0.0,5.0,0.0,,,,left,1.3351673000724986,186.38637610001024,oy13,183.8343966000248,185.83342180005275,186.38637610001024,None,False,2.0,['p'],False,0.25,0.25,0.0,0.0,2.0,0.5118595071429148,0.0229591836734693,wait_cost,1.0,1.0,185.83342180005275,None,oy13,2,2022-04-08_14h58.33.802,threat_forest,2021.2.3,59.77429225171653,False,17.0,0.26785714285714285,0.4017857142857143,-1.2346938775510203,-0.7806122448979591,0,0,0,0.28905660240688336,0.0229591836734693,0.25,0.25,0.25,1.0,-1.0,-1.0,1.0,1.0,0.0,2.0,-1.0,2.0,0,0,0
4.0,0.0,4.0,0.0,6.0,0.0,6.0,0.0,,,,left,1.0077177000930533,192.9588865999831,oy13,192.9588865999831,None,187.7509709999431,189.75016669998877,True,1.0,['p'],True,0.2040816326530612,0.2857142857142857,0.2857142857142857,2.0,2.0,0.9335459102197724,0.2040816326530612,fight_cost,0.0,0.0,189.7501666999888,None,oy13,2,2022-04-08_14h58.33.802,threat_forest,2021.2.3,59.77429225171653,True,17.0,0.26785714285714285,0.4017857142857143,-1.2346938775510203,-0.7806122448979591,0,0,1,0.007688070993715997,0.2040816326530612,1.0,0.2040816326530612,0.2857142857142857,0.7142857142857143,-1.7142857142857144,-1.4693877551020407,-0.46938775510204067,0.0,1.0,2.0,-1.0,1.0,1,0,0
5.0,0.0,5.0,0.0,0.0,0.0,0.0,0.0,198.9957528000232,202.5010510999709,None,left,1.6380034999456257,203.92451419995632,oy13,203.92451419995632,None,198.9957528000232,202.50105109997094,True,5.0,['p'],True,0.6,0.6,0.0,0.0,2.0,0.6126016192893442,0.0562706701368849,unsucc_cost,0.0,3.0,,,oy13,2,2022-04-08_14h58.33.802,threat_forest,2021.2.3,59.77429225171653,True,62.0,0.6125,0.4401785714285714,0.012499999999999956,-0.6110969387755102,1,1,1,0.4934781221475361,0.0562706701368849,0.6,0.6,0.6,1.0,0.3999999999999999,0.3999999999999999,5.4,5.4,1.0,2.0,-1.0,5.0,0,1,1
5.0,0.0,5.0,0.0,1.0,0.0,1.0,0.0,,,,left,1.0061948999064043,210.23670190002304,oy13,210.23670190002304,None,198.9957528000232,202.50105109997094,True,3.0,['p'],True,0.6,0.6,0.0,0.0,2.0,0.6126016192893442,0.2104563208898306,unsucc_cost,0.0,1.0,207.5845042000292,None,oy13,2,2022-04-08_14h58.33.802,threat_forest,2021.2.3,59.77429225171653,True,62.0,0.6125,0.4401785714285714,0.012499999999999956,-0.6110969387755102,1,1,1,0.0061757903943803925,0.2104563208898306,0.6,0.6,0.6,1.0,0.3999999999999999,0.3999999999999999,3.4,3.4,1.0,2.0,-1.0,3.0,0,1,1
5.0,0.0,5.0,0.0,2.0,0.0,2.0,0.0,,,,left,0.9784731999970973,216.4193547000177,oy13,216.4193547000177,None,198.9957528000232,202.50105109997094,True,1.0,['p'],True,0.6,0.6,0.0,0.0,2.0,0.6126016192893442,0.3988647308921813,unsucc_cost,0.0,0.0,213.26767259999176,None,oy13,2,2022-04-08_14h58.33.802,threat_forest,2021.2.3,59.77429225171653,True,62.0,0.6125,0.4401785714285714,0.012499999999999956,-0.6110969387755102,1,1,1,-0.021761881384555194,0.3988647308921813,1.0,0.6,0.6,1.0,0.3999999999999999,0.3999999999999999,1.4,1.4,1.0,2.0,-1.0,1.0,1,1,1
6.0,0.0,6.0,0.0,0.0,0.0,0.0,0.0,222.15177140000745,225.65147130005064,None,left,2.1720948999281973,226.3781776999822,oy13,226.3781776999822,None,222.15177140000745,225.65147130005062,True,5.0,['p'],True,0.4081632653061224,0.5714285714285714,0.2857142857142857,2.0,2.0,0.9885754083994552,-0.0170150236195817,unsucc_cost,0.0,3.0,,,oy13,2,2022-04-08_14h58.33.802,threat_forest,2021.2.3,59.77429225171653,True,14.0,0.5357142857142857,0.5741071428571429,-0.326530612244898,-0.15701530612244902,0,0,1,0.7756920935335002,-0.0170150236195817,0.4081632653061224,0.4081632653061224,0.5714285714285714,0.7142857142857143,-0.5714285714285715,-0.653061224489796,4.346938775510204,4.346938775510204,1.0,2.0,-1.0,5.0,0,0,0
6.0,0.0,6.0,0.0,1.0,0.0,1.0,0.0,,,,right,1.0144669000292197,233.82439540000632,oy13,228.56839220004625,230.56844359997194,233.82439540000632,None,True,3.0,['p'],False,0.5,0.5,0.0,0.0,2.0,0.6309297535714574,0.1812561435782258,unsucc_cost,1.0,1.0,230.56844359997197,None,oy13,2,2022-04-08_14h58.33.802,threat_forest,2021.2.3,59.77429225171653,True,14.0,0.5357142857142857,0.5741071428571429,-0.326530612244898,-0.15701530612244902,1,0,1,0.014363252870458391,0.1812561435782258,0.5,0.5,0.5,1.0,0.0,0.0,3.0,3.0,0.0,2.0,-1.0,3.0,0,0,1
6.0,0.0,6.0,0.0,2.0,0.0,2.0,0.0,,,,right,0.6273211999796331,239.61865219997708,oy13,228.56839220004625,230.56844359997194,239.61865219997708,None,True,1.0,['p'],False,0.5,0.5,0.0,0.0,2.0,0.6309297535714574,0.285343093437332,unsucc_cost,1.0,0.0,236.86806809995323,None,oy13,2,2022-04-08_14h58.33.802,threat_forest,2021.2.3,59.77429225171653,True,14.0,0.5357142857142857,0.5741071428571429,-0.326530612244898,-0.15701530612244902,1,0,1,-0.4662965888508915,0.285343093437332,1.0,0.5,0.5,1.0,0.0,0.0,1.0,1.0,0.0,2.0,-1.0,1.0,1,0,1
7.0,0.0,7.0,0.0,0.0,0.0,0.0,0.0,243.9575117999921,247.4686239999719,None,left,1.712627200060524,248.67695939994883,oy13,248.67695939994883,None,243.9575117999921,247.4686239999719,True,4.0,['p'],True,0.5,0.5,0.0,0.0,1.0,0.6309297535714574,0.0993054550861626,succ_gain,0.0,5.0,,,oy13,2,2022-04-08_14h58.33.802,threat_forest,2021.2.3,59.77429225171653,True,30.0,0.5833333333333333,0.5595238095238095,-1.25,-0.7882653061224489,1,0,1,0.5380285658034185,0.0993054550861626,0.5,0.5,0.5,1.0,-0.5,-0.5,3.5,3.5,1.0,1.0,-1.0,4.0,0,0,1
7.0,0.0,7.0,0.0,1.0,0.0,1.0,0.0,,,,right,1.4112694000359625,255.4519578999607,oy13,255.4519578999607,None,243.9575117999921,247.4686239999719,False,5.0,['p'],True,0.5,0.5,0.0,0.0,1.0,0.6309297535714574,0.120817124271262,wait_cost,0.0,4.0,252.4183523999527,None,oy13,2,2022-04-08_14h58.33.802,threat_forest,2021.2.3,59.77429225171653,False,30.0,0.5833333333333333,0.5595238095238095,-1.25,-0.7882653061224489,1,0,0,0.34448958309120886,0.120817124271262,0.5,0.5,0.5,1.0,-0.5,-0.5,4.5,4.5,1.0,1.0,1.0,5.0,0,0,1
7.0,0.0,7.0,0.0,2.0,0.0,2.0,0.0,,,,left,1.0861943999771029,259.6021922000218,oy13,259.6021922000218,None,243.9575117999921,247.4686239999719,True,4.0,['p'],True,0.5,0.5,0.0,0.0,1.0,0.6309297535714574,0.1427228009259259,succ_gain,0.0,5.0,258.88539860001765,None,oy13,2,2022-04-08_14h58.33.802,threat_forest,2021.2.3,59.77429225171653,True,30.0,0.5833333333333333,0.5595238095238095,-1.25,-0.7882653061224489,1,0,1,0.08268021099594818,0.1427228009259259,0.5,0.5,0.5,1.0,-0.5,-0.5,3.5,3.5,1.0,1.0,-1.0,4.0,0,0,1
7.0,0.0,7.0,0.0,3.0,0.0,3.0,0.0,,,,left,1.04504909995012,265.42362000001594,oy13,260.7187193999998,262.7187381000258,265.42362000001594,None,False,5.0,['p'],False,0.2222222222222222,0.6666666666666666,0.6666666666666666,2.0,1.0,0.77250688571426,-0.2127593449931412,wait_cost,1.0,4.0,262.7187381000258,None,oy13,2,2022-04-08_14h58.33.802,threat_forest,2021.2.3,59.77429225171653,False,30.0,0.5833333333333333,0.5595238095238095,-1.25,-0.7882653061224489,0,0,0,0.04406386991118671,-0.2127593449931412,0.2222222222222222,0.2222222222222222,0.6666666666666666,0.33333333333333337,-2.0,-2.0,3.0,3.0,0.0,1.0,1.0,5.0,0,0,0
7.0,0.0,7.0,0.0,4.0,0.0,4.0,0.0,,,,right,1.486742600100115,269.0425130999647,oy13,269.0425130999647,None,266.48593660001643,268.48551040003076,False,4.0,['p'],True,0.5,0.5,0.0,0.0,1.0,0.6309297535714574,0.1597222222222222,wait_cost,0.0,3.0,268.4855104000308,None,oy13,2,2022-04-08_14h58.33.802,threat_forest,2021.2.3,59.77429225171653,False,30.0,0.5833333333333333,0.5595238095238095,-1.25,-0.7882653061224489,1,0,0,0.39658755236003895,0.1597222222222222,0.5,0.5,0.5,1.0,-0.5,-0.5,3.5,3.5,1.0,1.0,-1.0,4.0,0,0,1
7.0,0.0,7.0,0.0,5.0,0.0,5.0,0.0,,,,right,1.1069114999845624,274.4186439999612,oy13,274.4186439999612,None,266.48593660001643,268.48551040003076,False,3.0,['p'],True,0.5,0.5,0.0,0.0,1.0,0.6309297535714574,0.25,wait_cost,0.0,2.0,272.5520488000475,None,oy13,2,2022-04-08_14h58.33.802,threat_forest,2021.2.3,59.77429225171653,False,30.0,0.5833333333333333,0.5595238095238095,-1.25,-0.7882653061224489,1,0,0,0.10157370471725952,0.25,0.5,0.5,0.5,1.0,-0.5,-0.5,2.5,2.5,1.0,1.0,-1.0,3.0,0,0,1
7.0,0.0,7.0,0.0,6.0,0.0,6.0,0.0,,,,left,1.878508499939926,279.16940480005,oy13,279.16940480005,None,266.48593660001643,268.48551040003076,True,2.0,['p'],True,0.5,0.5,0.0,0.0,1.0,0.6309297535714574,0.1388888888888888,unsucc_cost,0.0,0.0,277.5521280999528,None,oy13,2,2022-04-08_14h58.33.802,threat_forest,2021.2.3,59.77429225171653,True,30.0,0.5833333333333333,0.5595238095238095,-1.25,-0.7882653061224489,1,0,1,0.6304781108765475,0.1388888888888888,0.5,0.5,0.5,1.0,-0.5,-0.5,1.5,1.5,1.0,1.0,-1.0,2.0,0,0,1
8.0,0.0,8.0,0.0,0.0,0.0,0.0,0.0,284.514606700046,288.0190572999418,None,left,1.517254599952139,291.7782990999985,oy13,284.514606700046,288.0190572999418,291.7782990999985,None,False,4.0,['r'],False,0.4081632653061224,0.5714285714285714,0.2857142857142857,2.0,1.0,0.9885754083994552,0.0257810571799274,wait_cost,1.0,3.0,,,oy13,2,2022-04-08_14h58.33.802,threat_forest,2021.2.3,59.77429225171653,False,35.0,0.5357142857142857,0.5595238095238095,-0.7806122448979592,-1.0153061224489797,0,0,0,0.41690251749864277,0.0257810571799274,0.4081632653061224,0.4081632653061224,0.5714285714285714,0.7142857142857143,-1.1428571428571428,-1.0612244897959184,2.9387755102040813,2.9387755102040813,0.0,1.0,-1.0,4.0,0,0,0
8.0,0.0,8.0,0.0,1.0,0.0,1.0,0.0,,,,left,1.6378383999690411,297.70745910005644,oy13,284.514606700046,288.0190572999418,297.70745910005644,None,False,3.0,['r'],False,0.4081632653061224,0.5714285714285714,0.2857142857142857,2.0,1.0,0.9885754083994552,0.0362058160775727,wait_cost,1.0,2.0,295.31885679997504,None,oy13,2,2022-04-08_14h58.33.802,threat_forest,2021.2.3,59.77429225171653,False,35.0,0.5357142857142857,0.5595238095238095,-0.7806122448979592,-1.0153061224489797,0,0,0,0.4933773236464066,0.0362058160775727,0.4081632653061224,0.4081632653061224,0.5714285714285714,0.7142857142857143,-1.1428571428571428,-1.0612244897959184,1.9387755102040816,1.9387755102040816,0.0,1.0,-1.0,3.0,0,0,0
8.0,0.0,8.0,0.0,2.0,0.0,2.0,0.0,,,,left,1.3153648000443354,302.7380253999727,oy13,284.514606700046,288.0190572999418,302.7380253999727,None,False,2.0,['r'],False,0.4081632653061224,0.5714285714285714,0.2857142857142857,2.0,1.0,0.9885754083994552,0.0317505844141454,wait_cost,1.0,1.0,301.36933140002657,None,oy13,2,2022-04-08_14h58.33.802,threat_forest,2021.2.3,59.77429225171653,False,35.0,0.5357142857142857,0.5595238095238095,-0.7806122448979592,-1.0153061224489797,0,0,0,0.2741140416398297,0.0317505844141454,0.4081632653061224,0.4081632653061224,0.5714285714285714,0.7142857142857143,-1.1428571428571428,-1.0612244897959184,0.9387755102040816,0.9387755102040816,0.0,1.0,-1.0,2.0,0,0,0
8.0,0.0,8.0,0.0,3.0,0.0,3.0,0.0,,,,right,1.0779207999585196,309.3698861999437,oy13,284.514606700046,288.0190572999418,309.3698861999437,None,True,1.0,['r'],False,0.4081632653061224,0.5714285714285714,0.2857142857142857,2.0,1.0,0.9885754083994552,0.1180805612370661,unsucc_cost,1.0,0.0,306.08622269995976,None,oy13,2,2022-04-08_14h58.33.802,threat_forest,2021.2.3,59.77429225171653,True,35.0,0.5357142857142857,0.5595238095238095,-0.7806122448979592,-1.0153061224489797,0,0,1,0.07503400036156081,0.1180805612370661,1.0,0.4081632653061224,0.5714285714285714,0.7142857142857143,-1.1428571428571428,-1.0612244897959184,-0.061224489795918435,0.0,0.0,1.0,-1.0,1.0,1,0,0
9.0,0.0,9.0,0.0,0.0,0.0,0.0,0.0,313.59771440003533,317.0941374000395,None,right,1.2028506000060588,320.8955845000455,oy13,320.8955845000455,None,313.59771440003533,317.0941374000395,False,4.0,['r'],True,0.21875,0.25,0.125,1.0,1.0,0.7908280489481783,0.0029603746186211,wait_cost,0.0,3.0,,,oy13,2,2022-04-08_14h58.33.802,threat_forest,2021.2.3,59.77429225171653,False,61.0,0.325,0.4303571428571429,-1.354375,-1.0674936224489797,0,0,0,0.1846942397592366,0.0029603746186211,0.21875,0.21875,0.25,0.875,-1.625,-1.46875,2.53125,2.53125,1.0,1.0,-1.0,4.0,0,0,0
9.0,0.0,9.0,0.0,1.0,0.0,1.0,0.0,,,,right,0.8232169999973848,326.07488980004564,oy13,322.12168710003607,324.13593340001535,326.07488980004564,None,True,3.0,['r'],False,0.32,0.4,0.2,1.0,1.0,0.9455672104350704,0.0263107318191394,unsucc_cost,1.0,1.0,324.13593340001535,None,oy13,2,2022-04-08_14h58.33.802,threat_forest,2021.2.3,59.77429225171653,True,61.0,0.325,0.4303571428571429,-1.354375,-1.0674936224489797,0,0,1,-0.19453544356111546,0.0263107318191394,0.32,0.32,0.4,0.8,-1.4,-1.24,1.76,1.76,0.0,1.0,-1.0,3.0,0,0,0
9.0,0.0,9.0,0.0,2.0,0.0,2.0,0.0,,,,right,0.6621363000012934,330.73832170001697,oy13,322.12168710003607,324.13593340001535,330.73832170001697,None,True,1.0,['r'],False,0.32,0.4,0.2,1.0,1.0,0.9455672104350704,0.02941247045,unsucc_cost,1.0,0.0,328.9197733999463,None,oy13,2,2022-04-08_14h58.33.802,threat_forest,2021.2.3,59.77429225171653,True,61.0,0.325,0.4303571428571429,-1.354375,-1.0674936224489797,0,0,1,-0.41228385299719694,0.02941247045,1.0,0.32,0.4,0.8,-1.4,-1.24,-0.24,0.0,0.0,1.0,-1.0,1.0,1,0,0
10.0,0.0,10.0,0.0,0.0,0.0,0.0,0.0,336.5785676999949,340.0865452999715,None,left,1.149649400031194,341.01358499994967,oy13,336.5785676999949,340.0865452999715,341.01358499994967,None,False,4.0,['p'],False,0.4081632653061224,0.5714285714285714,0.2857142857142857,2.0,1.0,0.9885754083994552,0.0257810571799274,wait_cost,1.0,3.0,,,oy13,2,2022-04-08_14h58.33.802,threat_forest,2021.2.3,59.77429225171653,False,27.0,0.5357142857142857,0.4303571428571429,-0.7806122448979592,-1.0674936224489797,1,0,0,0.1394570263549014,0.0257810571799274,0.4081632653061224,0.4081632653061224,0.5714285714285714,0.7142857142857143,-1.1428571428571428,-1.0612244897959184,2.9387755102040813,2.9387755102040813,0.0,1.0,-1.0,4.0,0,0,1
10.0,0.0,10.0,0.0,1.0,0.0,1.0,0.0,,,,right,1.9492538999766111,344.9770093000261,oy13,336.5785676999949,340.0865452999715,344.9770093000261,None,True,3.0,['p'],False,0.4081632653061224,0.5714285714285714,0.2857142857142857,2.0,1.0,0.9885754083994552,0.0362058160775727,succ_gain,1.0,4.0,344.1863709000172,None,oy13,2,2022-04-08_14h58.33.802,threat_forest,2021.2.3,59.77429225171653,True,27.0,0.5357142857142857,0.4303571428571429,-0.7806122448979592,-1.0674936224489797,1,0,1,0.6674466839630986,0.0362058160775727,0.4081632653061224,0.4081632653061224,0.5714285714285714,0.7142857142857143,-1.1428571428571428,-1.0612244897959184,1.9387755102040816,1.9387755102040816,0.0,1.0,-1.0,3.0,0,0,1
10.0,0.0,10.0,0.0,2.0,0.0,2.0,0.0,,,,right,1.3424991000210866,349.7244781999616,oy13,349.7244781999616,None,346.9535860000178,348.95277850003913,False,4.0,['p'],True,0.5,0.5,0.0,0.0,1.0,0.6309297535714574,0.0883643261683057,wait_cost,0.0,3.0,348.9527785000392,None,oy13,2,2022-04-08_14h58.33.802,threat_forest,2021.2.3,59.77429225171653,False,27.0,0.5357142857142857,0.4303571428571429,-0.7806122448979592,-1.0674936224489797,1,1,0,0.29453287702530356,0.0883643261683057,0.5,0.5,0.5,1.0,-0.5,-0.5,3.5,3.5,1.0,1.0,1.0,4.0,0,1,1
10.0,0.0,10.0,0.0,3.0,0.0,3.0,0.0,,,,right,1.5721976000349969,356.0280389999971,oy13,351.0867558999453,353.0865809000097,356.0280389999971,None,True,3.0,['p'],False,0.4081632653061224,0.5714285714285714,0.2857142857142857,2.0,1.0,0.9885754083994552,0.0577532267592585,succ_gain,1.0,4.0,353.0865809000097,None,oy13,2,2022-04-08_14h58.33.802,threat_forest,2021.2.3,59.77429225171653,True,27.0,0.5357142857142857,0.4303571428571429,-0.7806122448979592,-1.0674936224489797,1,0,1,0.45247438587527067,0.0577532267592585,0.4081632653061224,0.4081632653061224,0.5714285714285714,0.7142857142857143,-1.1428571428571428,-1.0612244897959184,1.9387755102040816,1.9387755102040816,0.0,1.0,-1.0,3.0,0,0,1
10.0,0.0,10.0,0.0,4.0,0.0,4.0,0.0,,,,left,1.1506253000115976,361.2771406000247,oy13,351.0867558999453,353.0865809000097,361.2771406000247,None,False,4.0,['p'],False,0.4081632653061224,0.5714285714285714,0.2857142857142857,2.0,1.0,0.9885754083994552,-0.0210180282025346,wait_cost,1.0,3.0,359.6201376999961,None,oy13,2,2022-04-08_14h58.33.802,threat_forest,2021.2.3,59.77429225171653,False,27.0,0.5357142857142857,0.4303571428571429,-0.7806122448979592,-1.0674936224489797,1,0,0,0.1403055337431159,-0.0210180282025346,0.4081632653061224,0.4081632653061224,0.5714285714285714,0.7142857142857143,-1.1428571428571428,-1.0612244897959184,2.9387755102040813,2.9387755102040813,0.0,1.0,1.0,4.0,0,0,1
10.0,0.0,10.0,0.0,5.0,0.0,5.0,0.0,,,,right,1.2826194999506697,365.87352200003807,oy13,365.87352200003807,None,362.4540318000363,364.4534989000531,False,3.0,['p'],True,0.5,0.5,0.0,0.0,1.0,0.6309297535714574,0.25,wait_cost,0.0,2.0,364.4534989000531,None,oy13,2,2022-04-08_14h58.33.802,threat_forest,2021.2.3,59.77429225171653,False,27.0,0.5357142857142857,0.4303571428571429,-0.7806122448979592,-1.0674936224489797,1,1,0,0.24890447107149802,0.25,0.5,0.5,0.5,1.0,-0.5,-0.5,2.5,2.5,1.0,1.0,-1.0,3.0,0,1,1
10.0,0.0,10.0,0.0,6.0,0.0,6.0,0.0,,,,left,1.0127508000005037,370.9869427999947,oy13,370.9869427999947,None,362.4540318000363,364.4534989000531,True,2.0,['p'],True,0.5,0.5,0.0,0.0,1.0,0.6309297535714574,0.0459183673469387,succ_gain,0.0,3.0,369.1866163000232,None,oy13,2,2022-04-08_14h58.33.802,threat_forest,2021.2.3,59.77429225171653,True,27.0,0.5357142857142857,0.4303571428571429,-0.7806122448979592,-1.0674936224489797,1,1,1,0.01267019302926095,0.0459183673469387,0.5,0.5,0.5,1.0,-0.5,-0.5,1.5,1.5,1.0,1.0,-1.0,2.0,0,1,1
10.0,0.0,10.0,0.0,7.0,0.0,7.0,0.0,,,,left,0.9820927999680862,377.1764834000496,oy13,372.020626100013,374.01986520003993,377.1764834000496,None,False,3.0,['p'],False,0.4081632653061224,0.5714285714285714,0.2857142857142857,2.0,1.0,0.9885754083994552,-0.2857142857142857,wait_cost,1.0,2.0,374.01986520003993,None,oy13,2,2022-04-08_14h58.33.802,threat_forest,2021.2.3,59.77429225171653,False,27.0,0.5357142857142857,0.4303571428571429,-0.7806122448979592,-1.0674936224489797,1,0,0,-0.01806947410677689,-0.2857142857142857,0.0,0.4081632653061224,0.5714285714285714,0.7142857142857143,-1.1428571428571428,-1.0612244897959184,1.9387755102040816,1.9387755102040816,0.0,1.0,1.0,3.0,0,0,1
11.0,0.0,11.0,0.0,0.0,0.0,0.0,0.0,380.8628684999421,384.3704546999652,None,left,1.4110894000623375,386.9721372999484,oy13,386.9721372999484,None,380.8628684999421,384.3704546999652,True,5.0,['r'],True,0.5,0.5,0.0,0.0,2.0,0.6309297535714574,0.0630973775,succ_gain,0.0,6.0,,,oy13,2,2022-04-08_14h58.33.802,threat_forest,2021.2.3,59.77429225171653,True,18.0,0.55,0.5428571428571429,-0.4800000000000001,-0.6303061224489797,1,0,1,0.3443620302273684,0.0630973775,0.5,0.5,0.5,1.0,0.0,0.0,5.0,5.0,1.0,2.0,-1.0,5.0,0,0,1
11.0,0.0,11.0,0.0,1.0,0.0,1.0,0.0,,,,left,1.433883300051093,392.53292310005054,oy13,388.4037911000196,390.40364989999216,392.53292310005054,None,False,6.0,['r'],False,0.36,0.6,0.4,2.0,2.0,0.9801625908629508,-0.1255866,wait_cost,1.0,5.0,390.40364989999216,None,oy13,2,2022-04-08_14h58.33.802,threat_forest,2021.2.3,59.77429225171653,False,18.0,0.55,0.5428571428571429,-0.4800000000000001,-0.6303061224489797,0,0,0,0.36038635814833003,-0.1255866,0.36,0.36,0.6,0.6,-0.8000000000000003,-0.9600000000000002,5.04,5.04,0.0,2.0,1.0,6.0,0,0,0
11.0,0.0,11.0,0.0,2.0,0.0,2.0,0.0,,,,right,1.5143421000102535,398.2405471999664,oy13,398.2405471999664,None,393.9877293000464,395.9871933000395,False,5.0,['r'],True,0.5,0.5,0.0,0.0,2.0,0.6309297535714574,0.1117124999999999,wait_cost,0.0,4.0,395.9871933000395,None,oy13,2,2022-04-08_14h58.33.802,threat_forest,2021.2.3,59.77429225171653,False,18.0,0.55,0.5428571428571429,-0.4800000000000001,-0.6303061224489797,1,0,0,0.41498108722529864,0.1117124999999999,0.5,0.5,0.5,1.0,0.0,0.0,5.0,5.0,1.0,2.0,-1.0,5.0,0,0,1
11.0,0.0,11.0,0.0,3.0,0.0,3.0,0.0,,,,left,1.2522257000673562,402.8268003000412,oy13,399.78748469997663,401.7872900000075,402.8268003000412,None,False,4.0,['r'],False,0.36,0.6,0.4,2.0,2.0,0.9801625908629508,-0.0169199999999999,wait_cost,1.0,3.0,401.7872900000075,None,oy13,2,2022-04-08_14h58.33.802,threat_forest,2021.2.3,59.77429225171653,False,18.0,0.55,0.5428571428571429,-0.4800000000000001,-0.6303061224489797,0,0,0,0.22492252805022508,-0.0169199999999999,0.36,0.36,0.6,0.6,-0.8000000000000003,-0.9600000000000002,3.04,3.04,0.0,2.0,-1.0,4.0,0,0,0
11.0,0.0,11.0,0.0,4.0,0.0,4.0,0.0,,,,left,0.6366605000803247,408.062300199992,oy13,408.062300199992,None,404.1044335999759,406.10444150003605,True,3.0,['r'],True,0.5,0.5,0.0,0.0,2.0,0.6309297535714574,0.25,succ_gain,0.0,5.0,406.1044415000361,None,oy13,2,2022-04-08_14h58.33.802,threat_forest,2021.2.3,59.77429225171653,True,18.0,0.55,0.5428571428571429,-0.4800000000000001,-0.6303061224489797,1,0,1,-0.4515187323941881,0.25,0.5,0.5,0.5,1.0,0.0,0.0,3.0,3.0,1.0,2.0,-1.0,3.0,0,0,1
11.0,0.0,11.0,0.0,5.0,0.0,5.0,0.0,,,,right,0.9049051000038162,411.9423098999541,oy13,411.9423098999541,None,404.1044335999759,406.10444150003605,False,5.0,['r'],True,0.5,0.5,0.0,0.0,2.0,0.6309297535714574,0.0,wait_cost,0.0,4.0,410.7206988000544,None,oy13,2,2022-04-08_14h58.33.802,threat_forest,2021.2.3,59.77429225171653,False,18.0,0.55,0.5428571428571429,-0.4800000000000001,-0.6303061224489797,1,0,0,-0.09992520265483791,0.0,0.0,0.5,0.5,1.0,0.0,0.0,5.0,5.0,1.0,2.0,1.0,5.0,0,0,1
11.0,0.0,11.0,0.0,6.0,0.0,6.0,0.0,,,,left,0.8013268000213429,418.5806026000064,oy13,412.87114980001934,414.8712471999461,418.5806026000064,None,False,4.0,['r'],False,0.36,0.6,0.4,2.0,2.0,0.9801625908629508,-0.228,wait_cost,1.0,3.0,414.8712471999461,None,oy13,2,2022-04-08_14h58.33.802,threat_forest,2021.2.3,59.77429225171653,False,18.0,0.55,0.5428571428571429,-0.4800000000000001,-0.6303061224489797,0,0,0,-0.22148642507995356,-0.228,0.0,0.36,0.6,0.6,-0.8000000000000003,-0.9600000000000002,3.04,3.04,0.0,2.0,-1.0,4.0,0,0,0
11.0,0.0,11.0,0.0,7.0,0.0,7.0,0.0,,,,left,1.0982245000777766,422.85681499994826,oy13,412.87114980001934,414.8712471999461,422.85681499994826,None,False,3.0,['r'],False,0.36,0.6,0.4,2.0,2.0,0.9801625908629508,-0.4,wait_cost,1.0,2.0,421.40466230001766,None,oy13,2,2022-04-08_14h58.33.802,threat_forest,2021.2.3,59.77429225171653,False,18.0,0.55,0.5428571428571429,-0.4800000000000001,-0.6303061224489797,0,0,0,0.09369478491789911,-0.4,0.0,0.36,0.6,0.6,-0.8000000000000003,-0.9600000000000002,2.04,2.04,0.0,2.0,-1.0,3.0,0,0,0
12.0,0.0,12.0,0.0,0.0,0.0,0.0,0.0,426.9835946999956,430.4806342000375,None,right,1.00492249999661,433.99851039994974,oy13,433.99851039994974,None,426.9835946999956,430.48063420003746,False,4.0,['r'],True,0.2592592592592592,0.3333333333333333,0.2222222222222222,2.0,2.0,0.9327883776363324,0.0060894858457368,wait_cost,0.0,3.0,,,oy13,2,2022-04-08_14h58.33.802,threat_forest,2021.2.3,59.77429225171653,False,31.0,0.41666666666666663,0.48333333333333334,-0.9675925925925928,-0.7237962962962965,0,0,0,0.00491042410633461,0.0060894858457368,0.2592592592592592,0.2592592592592592,0.3333333333333333,0.7777777777777778,-1.3333333333333335,-1.1851851851851856,2.8148148148148144,2.8148148148148144,1.0,2.0,-1.0,4.0,0,0,0
12.0,0.0,12.0,0.0,1.0,0.0,1.0,0.0,,,,right,1.9061785000376403,440.1441797999432,oy13,440.1441797999432,None,426.9835946999956,430.48063420003746,False,3.0,['r'],True,0.2592592592592592,0.3333333333333333,0.2222222222222222,2.0,2.0,0.9327883776363324,0.0348746299545656,wait_cost,0.0,2.0,437.0216140999692,None,oy13,2,2022-04-08_14h58.33.802,threat_forest,2021.2.3,59.77429225171653,False,31.0,0.41666666666666663,0.48333333333333334,-0.9675925925925928,-0.7237962962962965,0,0,0,0.6451004524931598,0.0348746299545656,0.2592592592592592,0.2592592592592592,0.3333333333333333,0.7777777777777778,-1.3333333333333335,-1.1851851851851856,1.8148148148148144,1.8148148148148144,1.0,2.0,-1.0,3.0,0,0,0
12.0,0.0,12.0,0.0,2.0,0.0,2.0,0.0,,,,right,1.5886746000032872,445.69313829997554,oy13,445.69313829997554,None,426.9835946999956,430.48063420003746,False,2.0,['r'],True,0.2592592592592592,0.3333333333333333,0.2222222222222222,2.0,2.0,0.9327883776363324,-0.0142932796568574,wait_cost,0.0,1.0,444.07142900000326,None,oy13,2,2022-04-08_14h58.33.802,threat_forest,2021.2.3,59.77429225171653,False,31.0,0.41666666666666663,0.48333333333333334,-0.9675925925925928,-0.7237962962962965,0,0,0,0.46290008370345465,-0.0142932796568574,0.2592592592592592,0.2592592592592592,0.3333333333333333,0.7777777777777778,-1.3333333333333335,-1.1851851851851856,0.8148148148148144,0.8148148148148144,1.0,2.0,-1.0,2.0,0,0,0
12.0,0.0,12.0,0.0,3.0,0.0,3.0,0.0,,,,right,0.788706099963747,452.32906529994216,oy13,447.304781200015,449.30504470004234,452.32906529994216,None,True,1.0,['r'],False,0.375,0.5,0.25,1.0,2.0,0.9850568223215076,0.1720538355195473,unsucc_cost,1.0,0.0,449.3050447000424,None,oy13,2,2022-04-08_14h58.33.802,threat_forest,2021.2.3,59.77429225171653,True,31.0,0.41666666666666663,0.48333333333333334,-0.9675925925925928,-0.7237962962962965,0,0,1,-0.2373615244078382,0.1720538355195473,1.0,0.375,0.5,0.75,-0.75,-0.75,0.25,0.25,0.0,2.0,-1.0,1.0,1,0,0
13.0,0.0,13.0,0.0,0.0,0.0,0.0,0.0,457.6614809000166,461.1712427999592,None,left,1.3549670999636874,462.08209449995775,oy13,457.6614809000166,461.17124279995915,462.08209449995775,None,False,4.0,['r'],False,0.3333333333333333,0.3333333333333333,0.0,0.0,1.0,0.5793801642856949,0.0341963083625462,wait_cost,1.0,3.0,,,oy13,2,2022-04-08_14h58.33.802,threat_forest,2021.2.3,59.77429225171653,False,66.0,0.5,0.4583333333333333,-1.5,-1.2337962962962963,1,0,0,0.30377717356728545,0.0341963083625462,0.3333333333333333,0.3333333333333333,0.3333333333333333,1.0,-1.0000000000000002,-1.0000000000000002,3.0,3.0,0.0,1.0,-1.0,4.0,0,0,1
13.0,0.0,13.0,0.0,1.0,0.0,1.0,0.0,,,,right,0.9206318000797182,467.7473329999484,oy13,457.6614809000166,461.17124279995915,467.7473329999484,None,True,3.0,['r'],False,0.3333333333333333,0.3333333333333333,0.0,0.0,1.0,0.5793801642856949,0.0403131826957271,unsucc_cost,1.0,1.0,465.4550409000367,None,oy13,2,2022-04-08_14h58.33.802,threat_forest,2021.2.3,59.77429225171653,True,66.0,0.5,0.4583333333333333,-1.5,-1.2337962962962963,1,0,1,-0.08269510541943988,0.0403131826957271,0.3333333333333333,0.3333333333333333,0.3333333333333333,1.0,-1.0000000000000002,-1.0000000000000002,1.9999999999999998,1.9999999999999998,0.0,1.0,-1.0,3.0,0,0,1
