miniblock.thisRepN,miniblock.thisTrialN,miniblock.thisN,miniblock.thisIndex,day.thisRepN,day.thisTrialN,day.thisN,day.thisIndex,forest.started,fixation_forest.started,fixation_forest.stopped,key_resp.keys,key_resp.rt,key_resp.started,Subject_ID,weather_left.started,weather_left.stopped,weather_right.started,weather_right.stopped,foraging T/F,in_LP,p/r heuristic,good_weather.T/F,p_succ_correct,p_succ_uncorrected,r_threat,n_oponents,gain_if_succ,weather_entropy,OP_value_difference,action_outcome,forest_side_L=0_R=1,out_LP,fixation_day.started,fixation_day.stopped,participant,session,date,expName,psychopyVersion,frameRate,foraging T/F NaNs,fora_NR,forest_mean_p,mvt_cutoff_p,forest_mean_ev,mvt_cutoff_ev,mvt_policy_eg,mvt_policy_p,fora_response,logRT,optimal policy values,multi-heuristic policy,** $\mathit{p}$ success,* $\mathit{p}$ gain,* $\mathit{r}$ predator,expected gain naive,expected gain correct,expected state no bounds,expected state with bounds,weather type,gain magnitude,win stay lose shift,continuous energy state,** binary energy state,** wait when safe,$\mathit{p}$ success based MVT,marginal value,$\mathit{OP}$ values + cap
0.0,0.0,0.0,0.0,0.0,0.0,0.0,0.0,23.675078300060704,27.17791319999378,,left,0.6872826999751851,30.920875699957836,fj4,30.920875699957836,,23.675078300060704,27.17791319999378,True,5.0,['r'],True,0.5,0.5,0.0,0.0,1.0,0.6309297535714574,0.07495910506875,unsucc_cost,0.0,3.0,,,fj4,1,2022-05-05_11h29.50.201,threat_forest,2021.2.3,60.05692195058074,True,0.0,0.55,0.55,-0.9100000000000001,-0.9100000000000001,1,0,1.0,-0.37500957216630165,0.07495910506875,0.5,0.5,0.5,0.0,0.5,0.5,5.5,5.5,1.0,1.0,,5.0,0,1,0,1,0.07495910506875
0.0,0.0,0.0,0.0,1.0,0.0,1.0,0.0,,,,left,0.3814218000043183,35.32057870004792,fj4,35.32057870004792,,23.675078300060704,27.17791319999378,True,3.0,['r'],True,0.5,0.5,0.0,0.0,1.0,0.6309297535714574,0.103973876875,unsucc_cost,0.0,1.0,33.65517170005478,,fj4,1,2022-05-05_11h29.50.201,threat_forest,2021.2.3,60.05692195058074,True,0.0,0.55,0.55,-0.9100000000000001,-0.9100000000000001,1,0,1.0,-0.9638494295984052,0.103973876875,0.5,0.5,0.5,0.0,0.5,0.5,3.5,3.5,1.0,1.0,-1.0,3.0,0,1,0,1,0.103973876875
0.0,0.0,0.0,0.0,2.0,0.0,2.0,0.0,,,,left,0.6589403999969363,41.38149020005949,fj4,41.38149020005949,,23.675078300060704,27.17791319999378,True,1.0,['r'],True,0.5,0.5,0.0,0.0,1.0,0.6309297535714574,0.1165484374999999,succ_gain,0.0,2.0,37.73478810000233,,fj4,1,2022-05-05_11h29.50.201,threat_forest,2021.2.3,60.05692195058074,True,0.0,0.55,0.55,-0.9100000000000001,-0.9100000000000001,1,0,1.0,-0.41712218863492617,0.1165484374999999,1.0,0.5,0.5,0.0,0.5,0.5,1.5,1.5,1.0,1.0,-1.0,1.0,1,1,0,1,0.625
0.0,0.0,0.0,0.0,3.0,0.0,3.0,0.0,,,,left,2.64061879995279,46.4444437000202,fj4,42.06421970005613,44.078709200024605,46.4444437000202,,False,2.0,['r'],False,0.36,0.6,0.4,2.0,1.0,0.9801625908629508,-0.0082544999999999,wait_cost,1.0,1.0,44.078709200024605,,fj4,1,2022-05-05_11h29.50.201,threat_forest,2021.2.3,60.05692195058074,False,0.0,0.55,0.55,-0.9100000000000001,-0.9100000000000001,0,0,0.0,0.9710132836137728,-0.0082544999999999,0.36,0.36,0.6,0.4,-0.40000000000000036,-0.3200000000000003,1.6799999999999997,1.6799999999999997,0.0,1.0,1.0,2.0,0,1,0,0,-0.0082544999999999
0.0,0.0,0.0,0.0,4.0,0.0,4.0,0.0,,,,left,1.3436598000116646,54.55256450001616,fj4,54.55256450001616,,49.10766890004743,51.12225730007049,True,1.0,['r'],True,0.5,0.5,0.0,0.0,1.0,0.6309297535714574,0.2324999999999999,unsucc_cost,0.0,0.0,51.12225730007049,,fj4,1,2022-05-05_11h29.50.201,threat_forest,2021.2.3,60.05692195058074,True,0.0,0.55,0.55,-0.9100000000000001,-0.9100000000000001,1,0,1.0,0.2953970850680991,0.2324999999999999,1.0,0.5,0.5,0.0,0.5,0.5,1.5,1.5,1.0,1.0,-1.0,1.0,1,1,0,1,0.625
1.0,0.0,1.0,0.0,0.0,0.0,0.0,0.0,59.06664370000362,62.56279970007017,,left,0.925290000042878,64.89322710002307,fj4,64.89322710002307,,59.06664370000362,62.56279970007017,True,4.0,['r'],True,0.5714285714285714,0.5714285714285714,0.0,0.0,2.0,0.6216097450797566,0.0806960090466623,unsucc_cost,0.0,2.0,,,fj4,1,2022-05-05_11h29.50.201,threat_forest,2021.2.3,60.05692195058074,True,19.0,0.5982142857142857,0.5741071428571429,-0.044642857142857206,-0.4773214285714287,1,0,1.0,-0.07764807704495047,0.0806960090466623,0.5714285714285714,0.5714285714285714,0.5714285714285714,0.0,1.2857142857142856,1.2857142857142856,5.285714285714286,5.285714285714286,1.0,2.0,-1.0,4.0,0,1,0,1,0.0806960090466623
1.0,0.0,1.0,0.0,1.0,0.0,1.0,0.0,,,,right,1.9887795000104236,71.18937849998474,fj4,65.84216450003441,67.85648760001641,71.18937849998474,,True,2.0,['r'],False,0.46875,0.625,0.25,2.0,2.0,0.9634951148421658,-0.0053720830436505,unsucc_cost,1.0,0.0,67.85648760001641,,fj4,1,2022-05-05_11h29.50.201,threat_forest,2021.2.3,60.05692195058074,True,19.0,0.5982142857142857,0.5741071428571429,-0.044642857142857206,-0.4773214285714287,1,0,1.0,0.6875211340031757,-0.0053720830436505,0.46875,0.46875,0.625,0.25,0.75,0.625,2.625,2.625,0.0,2.0,-1.0,2.0,0,1,0,1,-0.0053720830436505
2.0,0.0,2.0,0.0,0.0,0.0,0.0,0.0,78.3086093000602,81.79838970000856,,right,1.2708175000734627,84.10845369996969,fj4,78.3086093000602,81.79838970000856,84.10845369996969,,True,4.0,['p'],False,0.375,0.5,0.25,1.0,1.0,0.9850568223215076,0.0365041143210029,succ_gain,1.0,5.0,,,fj4,1,2022-05-05_11h29.50.201,threat_forest,2021.2.3,60.05692195058074,True,3.0,0.35,0.47410714285714284,-1.4225000000000003,-0.7335714285714288,0,0,1.0,0.23966039422922014,0.0365041143210029,0.375,0.375,0.5,0.25,-0.25,-0.125,3.875,3.875,0.0,1.0,-1.0,4.0,0,1,0,0,0.0365041143210029
2.0,0.0,2.0,0.0,1.0,0.0,1.0,0.0,,,,right,1.3105655999388546,89.70318569999654,fj4,78.3086093000602,81.79838970000856,89.70318569999654,,True,5.0,['p'],False,0.375,0.5,0.25,1.0,1.0,0.9850568223215076,0.0614399095687865,unsucc_cost,1.0,3.0,87.42158650001511,,fj4,1,2022-05-05_11h29.50.201,threat_forest,2021.2.3,60.05692195058074,True,3.0,0.35,0.47410714285714284,-1.4225000000000003,-0.7335714285714288,0,0,1.0,0.2704587997119118,0.0614399095687865,0.375,0.375,0.5,0.25,-0.25,-0.125,4.875,4.875,0.0,1.0,1.0,5.0,0,1,0,0,0.0614399095687865
2.0,0.0,2.0,0.0,2.0,0.0,2.0,0.0,,,,right,1.6464611999690533,95.64999369997533,fj4,95.64999369997533,,91.03515450004488,93.0496373999631,False,3.0,['p'],True,0.16,0.2,0.2,2.0,1.0,0.8198746470064713,-0.0265462120898438,wait_cost,0.0,2.0,93.0496373999631,,fj4,1,2022-05-05_11h29.50.201,threat_forest,2021.2.3,60.05692195058074,False,3.0,0.35,0.47410714285714284,-1.4225000000000003,-0.7335714285714288,0,0,0.0,0.4986282573996519,-0.0265462120898438,0.16,0.16,0.2,0.2,-1.0,-0.7200000000000004,2.2799999999999994,2.2799999999999994,1.0,1.0,-1.0,3.0,0,1,0,0,-0.0265462120898438
2.0,0.0,2.0,0.0,3.0,0.0,3.0,0.0,,,,left,1.635444000014104,102.25841790006962,fj4,97.31274259998465,99.32716630003416,102.25841790006962,,False,2.0,['p'],False,0.375,0.5,0.25,1.0,1.0,0.9850568223215076,0.0506547607421876,wait_cost,1.0,1.0,99.32716630003416,,fj4,1,2022-05-05_11h29.50.201,threat_forest,2021.2.3,60.05692195058074,False,3.0,0.35,0.47410714285714284,-1.4225000000000003,-0.7335714285714288,0,0,0.0,0.49191432712522504,0.0506547607421876,0.375,0.375,0.5,0.25,-0.25,-0.125,1.875,1.875,0.0,1.0,-1.0,2.0,0,1,0,0,0.0506547607421876
2.0,0.0,2.0,0.0,4.0,0.0,4.0,0.0,,,,right,0.9985860999440774,108.46886739996262,fj4,97.31274259998465,99.32716630003416,108.46886739996262,,True,1.0,['p'],False,0.375,0.5,0.25,1.0,1.0,0.9850568223215076,0.12046875,succ_gain,1.0,2.0,105.93768770003226,,fj4,1,2022-05-05_11h29.50.201,threat_forest,2021.2.3,60.05692195058074,True,3.0,0.35,0.47410714285714284,-1.4225000000000003,-0.7335714285714288,0,0,1.0,-0.0014149005557890495,0.12046875,1.0,0.375,0.5,0.25,-0.25,-0.125,0.875,1.0,0.0,1.0,-1.0,1.0,1,1,0,0,0.625
2.0,0.0,2.0,0.0,5.0,0.0,5.0,0.0,,,,right,0.8294141999213025,114.49703359999694,fj4,97.31274259998465,99.32716630003416,114.49703359999694,,True,2.0,['p'],False,0.375,0.5,0.25,1.0,1.0,0.9850568223215076,0.1075,succ_gain,1.0,3.0,111.4991612000158,,fj4,1,2022-05-05_11h29.50.201,threat_forest,2021.2.3,60.05692195058074,True,3.0,0.35,0.47410714285714284,-1.4225000000000003,-0.7335714285714288,0,0,1.0,-0.1870356106010745,0.1075,0.375,0.375,0.5,0.25,-0.25,-0.125,1.875,1.875,0.0,1.0,1.0,2.0,0,1,0,0,0.1075
2.0,0.0,2.0,0.0,6.0,0.0,6.0,0.0,,,,right,1.4373272999655455,118.43153519998305,fj4,118.43153519998305,,115.34583100001328,117.36037430004215,False,3.0,['p'],True,0.16,0.2,0.2,2.0,1.0,0.8198746470064713,-0.6688000000000001,wait_cost,0.0,2.0,117.36037430004215,,fj4,1,2022-05-05_11h29.50.201,threat_forest,2021.2.3,60.05692195058074,False,3.0,0.35,0.47410714285714284,-1.4225000000000003,-0.7335714285714288,0,0,0.0,0.3627853473176791,-0.6688000000000001,0.0,0.16,0.2,0.2,-1.0,-0.7200000000000004,2.2799999999999994,2.2799999999999994,1.0,1.0,1.0,3.0,0,0,0,0,-0.84
2.0,0.0,2.0,0.0,7.0,0.0,7.0,0.0,,,,right,1.7045364000368863,124.23762560007162,fj4,124.23762560007162,,115.34583100001328,117.36037430004215,False,2.0,['p'],True,0.16,0.2,0.2,2.0,1.0,0.8198746470064713,-0.8400000000000001,wait_cost,0.0,1.0,121.90609299996868,,fj4,1,2022-05-05_11h29.50.201,threat_forest,2021.2.3,60.05692195058074,False,3.0,0.35,0.47410714285714284,-1.4225000000000003,-0.7335714285714288,0,0,0.0,0.5332931676255807,-0.8400000000000001,0.0,0.16,0.2,0.2,-1.0,-0.7200000000000004,1.2799999999999996,1.2799999999999996,1.0,1.0,-1.0,2.0,0,0,0,0,-0.84
3.0,0.0,3.0,0.0,0.0,0.0,0.0,0.0,129.48851010005455,132.99566630006302,,left,0.9350997000001372,133.91218240000308,fj4,133.91218240000308,,129.48851010005455,132.99566630006302,True,4.0,['p'],True,0.4444444444444445,0.6666666666666666,0.3333333333333333,1.0,2.0,0.9656336071428248,0.0696585132666405,figh_cost,0.0,1.0,,,fj4,1,2022-05-05_11h29.50.201,threat_forest,2021.2.3,60.05692195058074,True,29.0,0.47619047619047616,0.41309523809523807,-0.8594104308390023,-1.1409552154195013,1,1,1.0,-0.06710212436194324,0.0696585132666405,0.4444444444444445,0.4444444444444445,0.6666666666666666,0.3333333333333333,0.6666666666666665,0.4444444444444444,4.444444444444445,4.444444444444445,1.0,2.0,-1.0,4.0,0,1,1,1,0.0696585132666405
3.0,0.0,3.0,0.0,1.0,0.0,1.0,0.0,,,,right,1.88802760001272,138.50914890004788,fj4,134.87746320001315,136.89208000001963,138.50914890004788,,True,1.0,['p'],False,0.2448979591836734,0.2857142857142857,0.1428571428571428,1.0,2.0,0.8400769154957735,0.0714299722683335,unsucc_cost,1.0,0.0,136.89208000001963,,fj4,1,2022-05-05_11h29.50.201,threat_forest,2021.2.3,60.05692195058074,True,29.0,0.47619047619047616,0.41309523809523807,-0.8594104308390023,-1.1409552154195013,0,0,1.0,0.6355326862672627,0.0714299722683335,1.0,0.2448979591836734,0.2857142857142857,0.1428571428571428,-0.2857142857142856,-0.16326530612244894,0.8367346938775511,1.0,0.0,2.0,-1.0,1.0,1,1,0,0,0.625
4.0,0.0,4.0,0.0,0.0,0.0,0.0,0.0,144.32248069997877,147.83183909999207,,right,1.563963899970986,149.0147246000124,fj4,149.0147246000124,,144.32248069997877,147.83183909999207,False,4.0,['r'],True,0.2222222222222222,0.6666666666666666,0.6666666666666666,2.0,2.0,0.77250688571426,-0.0033451223961741,wait_cost,0.0,3.0,,,fj4,1,2022-05-05_11h29.50.201,threat_forest,2021.2.3,60.05692195058074,False,34.0,0.4583333333333333,0.46726190476190477,-1.3888888888888888,-1.1241496598639455,0,0,0.0,0.4472235599967457,-0.0033451223961741,0.2222222222222222,0.2222222222222222,0.6666666666666666,0.6666666666666666,-0.3333333333333335,-0.7777777777777779,3.2222222222222223,3.2222222222222223,1.0,2.0,-1.0,4.0,0,1,0,0,-0.0033451223961741
4.0,0.0,4.0,0.0,1.0,0.0,1.0,0.0,,,,right,1.1069024000316858,153.9097563000396,fj4,150.59605309995823,152.61065240006428,153.9097563000396,,True,3.0,['r'],False,0.25,0.25,0.0,0.0,2.0,0.5118595071429148,0.0633364704901298,unsucc_cost,1.0,1.0,152.61065240006428,,fj4,1,2022-05-05_11h29.50.201,threat_forest,2021.2.3,60.05692195058074,True,34.0,0.4583333333333333,0.46726190476190477,-1.3888888888888888,-1.1241496598639455,1,0,1.0,0.10156548365326082,0.0633364704901298,0.25,0.25,0.25,0.0,0.0,0.0,3.0,3.0,0.0,2.0,-1.0,3.0,0,1,0,1,0.0633364704901298
4.0,0.0,4.0,0.0,2.0,0.0,2.0,0.0,,,,right,2.239364299923181,159.10491270001512,fj4,150.59605309995823,152.61065240006428,159.10491270001512,,True,1.0,['r'],False,0.25,0.25,0.0,0.0,2.0,0.5118595071429148,0.0691086254983281,unsucc_cost,1.0,0.0,157.05652880005073,,fj4,1,2022-05-05_11h29.50.201,threat_forest,2021.2.3,60.05692195058074,True,34.0,0.4583333333333333,0.46726190476190477,-1.3888888888888888,-1.1241496598639455,1,0,1.0,0.8061920309124673,0.0691086254983281,1.0,0.25,0.25,0.0,0.0,0.0,1.0,1.0,0.0,2.0,-1.0,1.0,1,1,0,1,0.625
5.0,0.0,5.0,0.0,0.0,0.0,0.0,0.0,164.87463800003752,168.3792739000637,,left,1.8706096999812871,172.04394300002605,fj4,172.04394300002605,,164.87463800003752,168.3792739000637,True,4.0,['r'],True,0.2040816326530612,0.2857142857142857,0.2857142857142857,2.0,1.0,0.9335459102197724,0.0023337396678889,succ_gain,0.0,5.0,,,fj4,1,2022-05-05_11h29.50.201,threat_forest,2021.2.3,60.05692195058074,True,32.0,0.26785714285714285,0.3630952380952381,-1.461734693877551,-1.42531179138322,0,0,1.0,0.6262644204968433,0.0023337396678889,0.2040816326530612,0.2040816326530612,0.2857142857142857,0.2857142857142857,-1.0,-0.6734693877551021,3.326530612244898,3.326530612244898,1.0,1.0,-1.0,4.0,0,1,0,0,0.0023337396678889
5.0,0.0,5.0,0.0,1.0,0.0,1.0,0.0,,,,right,1.2792256000684574,179.35277710005175,fj4,179.35277710005175,,164.87463800003752,168.3792739000637,False,5.0,['r'],True,0.2040816326530612,0.2857142857142857,0.2857142857142857,2.0,1.0,0.9335459102197724,0.0005939157599406,wait_cost,0.0,4.0,175.95552299998235,,fj4,1,2022-05-05_11h29.50.201,threat_forest,2021.2.3,60.05692195058074,False,32.0,0.26785714285714285,0.3630952380952381,-1.461734693877551,-1.42531179138322,0,0,0.0,0.24625489489869198,0.0005939157599406,0.2040816326530612,0.2040816326530612,0.2857142857142857,0.2857142857142857,-1.0,-0.6734693877551021,4.326530612244898,4.326530612244898,1.0,1.0,1.0,5.0,0,1,0,0,0.0005939157599406
5.0,0.0,5.0,0.0,2.0,0.0,2.0,0.0,,,,right,1.948655000072904,183.59876600001007,fj4,183.59876600001007,,164.87463800003752,168.3792739000637,False,4.0,['r'],True,0.2040816326530612,0.2857142857142857,0.2857142857142857,2.0,1.0,0.9335459102197724,-0.0021630960258077,wait_cost,0.0,3.0,182.6659107999876,,fj4,1,2022-05-05_11h29.50.201,threat_forest,2021.2.3,60.05692195058074,False,32.0,0.26785714285714285,0.3630952380952381,-1.461734693877551,-1.42531179138322,0,0,0.0,0.6671393910407769,-0.0021630960258077,0.2040816326530612,0.2040816326530612,0.2857142857142857,0.2857142857142857,-1.0,-0.6734693877551021,3.326530612244898,3.326530612244898,1.0,1.0,-1.0,4.0,0,1,0,0,-0.0021630960258077
5.0,0.0,5.0,0.0,3.0,0.0,3.0,0.0,,,,left,0.9442505999468268,190.2426107999636,fj4,190.2426107999636,,164.87463800003752,168.3792739000637,True,3.0,['r'],True,0.2040816326530612,0.2857142857142857,0.2857142857142857,2.0,1.0,0.9335459102197724,0.0251313792775544,unsucc_cost,0.0,1.0,187.59463529998905,,fj4,1,2022-05-05_11h29.50.201,threat_forest,2021.2.3,60.05692195058074,True,32.0,0.26785714285714285,0.3630952380952381,-1.461734693877551,-1.42531179138322,0,0,1.0,-0.05736368202114485,0.0251313792775544,0.2040816326530612,0.2040816326530612,0.2857142857142857,0.2857142857142857,-1.0,-0.6734693877551021,2.326530612244898,2.326530612244898,1.0,1.0,-1.0,3.0,0,1,0,0,0.0251313792775544
5.0,0.0,5.0,0.0,4.0,0.0,4.0,0.0,,,,left,1.8170412000035867,194.70504030003207,fj4,194.70504030003207,,164.87463800003752,168.3792739000637,True,1.0,['r'],True,0.2040816326530612,0.2857142857142857,0.2857142857142857,2.0,1.0,0.9335459102197724,0.0486776343190338,figh_cost,0.0,0.0,193.2227277000202,,fj4,1,2022-05-05_11h29.50.201,threat_forest,2021.2.3,60.05692195058074,True,32.0,0.26785714285714285,0.3630952380952381,-1.461734693877551,-1.42531179138322,0,0,1.0,0.5972094638975202,0.0486776343190338,1.0,0.2040816326530612,0.2857142857142857,0.2857142857142857,-1.0,-0.6734693877551021,0.3265306122448979,1.0,1.0,1.0,-1.0,1.0,1,1,0,0,0.625
6.0,0.0,6.0,0.0,0.0,0.0,0.0,0.0,200.72157599998167,204.2291711999569,,right,0.997157400008291,205.91137650003657,fj4,200.72157599998167,204.2291711999569,205.91137650003657,,True,4.0,['r'],False,0.36,0.6,0.4,2.0,2.0,0.9801625908629508,-0.0020350304999999,succ_gain,1.0,6.0,,,fj4,1,2022-05-05_11h29.50.201,threat_forest,2021.2.3,60.05692195058074,True,18.0,0.55,0.4089285714285714,-0.4800000000000001,-0.9708673469387756,1,0,1.0,-0.002846647851850112,-0.0020350304999999,0.36,0.36,0.6,0.4,0.19999999999999973,0.039999999999999813,4.04,4.04,0.0,2.0,-1.0,4.0,0,1,0,1,-0.0020350304999999
6.0,0.0,6.0,0.0,1.0,0.0,1.0,0.0,,,,left,1.3762726000277326,212.28867839998568,fj4,200.72157599998167,204.2291711999569,212.28867839998568,,False,6.0,['r'],False,0.36,0.6,0.4,2.0,2.0,0.9801625908629508,-0.1255866,wait_cost,1.0,5.0,208.94160400005055,,fj4,1,2022-05-05_11h29.50.201,threat_forest,2021.2.3,60.05692195058074,False,18.0,0.55,0.4089285714285714,-0.4800000000000001,-0.9708673469387756,1,0,0.0,0.3193788303751319,-0.1255866,0.36,0.36,0.6,0.4,0.19999999999999973,0.039999999999999813,6.04,6.04,0.0,2.0,1.0,6.0,0,1,0,1,-0.1255866
6.0,0.0,6.0,0.0,2.0,0.0,2.0,0.0,,,,left,1.4469049000181258,218.2664171999786,fj4,200.72157599998167,204.2291711999569,218.2664171999786,,False,5.0,['r'],False,0.36,0.6,0.4,2.0,2.0,0.9801625908629508,-0.050683,wait_cost,1.0,4.0,215.7017095000483,,fj4,1,2022-05-05_11h29.50.201,threat_forest,2021.2.3,60.05692195058074,False,18.0,0.55,0.4089285714285714,-0.4800000000000001,-0.9708673469387756,1,0,0.0,0.3694267233182481,-0.050683,0.36,0.36,0.6,0.4,0.19999999999999973,0.039999999999999813,5.04,5.04,0.0,2.0,-1.0,5.0,0,1,0,1,-0.050683
6.0,0.0,6.0,0.0,3.0,0.0,3.0,0.0,,,,left,0.9700356000103056,224.47719840006903,fj4,224.47719840006903,,219.73171129997357,221.7460619000485,True,4.0,['r'],True,0.5,0.5,0.0,0.0,2.0,0.6309297535714574,0.1425,succ_gain,0.0,6.0,221.7460619000485,,fj4,1,2022-05-05_11h29.50.201,threat_forest,2021.2.3,60.05692195058074,True,18.0,0.55,0.4089285714285714,-0.4800000000000001,-0.9708673469387756,1,1,1.0,-0.030422507116623084,0.1425,0.5,0.5,0.5,0.0,1.0,1.0,5.0,5.0,1.0,2.0,-1.0,4.0,0,1,1,1,0.1425
6.0,0.0,6.0,0.0,4.0,0.0,4.0,0.0,,,,right,1.1326807000441477,229.25610330002385,fj4,229.25610330002385,,219.73171129997357,221.7460619000485,False,6.0,['r'],True,0.5,0.5,0.0,0.0,2.0,0.6309297535714574,0.0,wait_cost,0.0,5.0,227.4907799999928,,fj4,1,2022-05-05_11h29.50.201,threat_forest,2021.2.3,60.05692195058074,False,18.0,0.55,0.4089285714285714,-0.4800000000000001,-0.9708673469387756,1,1,0.0,0.12458712418482117,0.0,0.0,0.5,0.5,0.0,1.0,1.0,7.0,7.0,1.0,2.0,1.0,6.0,0,0,1,1,-0.84
6.0,0.0,6.0,0.0,5.0,0.0,5.0,0.0,,,,right,1.3737595999846235,232.9692553000059,fj4,232.9692553000059,,219.73171129997357,221.7460619000485,False,5.0,['r'],True,0.5,0.5,0.0,0.0,2.0,0.6309297535714574,0.0,wait_cost,0.0,4.0,232.43606940004972,,fj4,1,2022-05-05_11h29.50.201,threat_forest,2021.2.3,60.05692195058074,False,18.0,0.55,0.4089285714285714,-0.4800000000000001,-0.9708673469387756,1,1,0.0,0.3175512148711485,0.0,0.0,0.5,0.5,0.0,1.0,1.0,6.0,6.0,1.0,2.0,-1.0,5.0,0,0,1,1,-0.84
6.0,0.0,6.0,0.0,6.0,0.0,6.0,0.0,,,,right,1.2464211999904364,237.4494703999953,fj4,234.36800849996507,236.3824006000068,237.4494703999953,,True,4.0,['r'],False,0.36,0.6,0.4,2.0,2.0,0.9801625908629508,-0.228,figh_cost,1.0,1.0,236.3824006000068,,fj4,1,2022-05-05_11h29.50.201,threat_forest,2021.2.3,60.05692195058074,True,18.0,0.55,0.4089285714285714,-0.4800000000000001,-0.9708673469387756,1,0,1.0,0.22027640496790213,-0.228,0.0,0.36,0.6,0.4,0.19999999999999973,0.039999999999999813,4.04,4.04,0.0,2.0,-1.0,4.0,0,0,0,1,-0.84
6.0,0.0,6.0,0.0,7.0,0.0,7.0,0.0,,,,right,2.97536919999402,241.54457040003035,fj4,234.36800849996507,236.3824006000068,241.54457040003035,,True,1.0,['r'],False,0.36,0.6,0.4,2.0,2.0,0.9801625908629508,0.36,unsucc_cost,1.0,0.0,240.7283700000262,,fj4,1,2022-05-05_11h29.50.201,threat_forest,2021.2.3,60.05692195058074,True,18.0,0.55,0.4089285714285714,-0.4800000000000001,-0.9708673469387756,1,0,1.0,1.0903681321360472,0.36,1.0,0.36,0.6,0.4,0.19999999999999973,0.039999999999999813,1.0399999999999998,1.0399999999999998,0.0,2.0,-1.0,1.0,1,1,0,1,0.625
7.0,0.0,7.0,0.0,0.0,0.0,0.0,0.0,247.43355539999905,250.93481120001525,,right,1.9840055999811737,254.26846110005863,fj4,247.43355539999905,250.93481120001525,254.26846110005863,,True,4.0,['r'],False,0.345679012345679,0.4444444444444444,0.2222222222222222,2.0,2.0,0.9685033186841367,0.0005482667043862,unsucc_cost,1.0,2.0,,,fj4,1,2022-05-05_11h29.50.201,threat_forest,2021.2.3,60.05692195058074,True,52.0,0.43650793650793646,0.4932539682539683,-0.5626102292768962,-0.5213051146384482,0,0,1.0,0.6851178314298537,0.0005482667043862,0.345679012345679,0.345679012345679,0.4444444444444444,0.2222222222222222,0.11111111111111105,0.16049382716049376,4.160493827160494,4.160493827160494,0.0,2.0,-1.0,4.0,0,1,0,0,0.0005482667043862
7.0,0.0,7.0,0.0,1.0,0.0,1.0,0.0,,,,,,260.2271795000416,fj4,247.43355539999905,250.93481120001525,260.2271795000416,,True,2.0,['r'],False,0.345679012345679,0.4444444444444444,0.2222222222222222,2.0,2.0,0.9685033186841367,-0.008006046958214,wait_cost,1.0,1.0,258.29529100004584,,fj4,1,2022-05-05_11h29.50.201,threat_forest,2021.2.3,60.05692195058074,,52.0,0.43650793650793646,0.4932539682539683,-0.5626102292768962,-0.5213051146384482,0,0,,,-0.008006046958214,0.345679012345679,0.345679012345679,0.4444444444444444,0.2222222222222222,0.11111111111111105,0.16049382716049376,2.1604938271604937,2.1604938271604937,0.0,2.0,-1.0,2.0,0,1,0,0,-0.008006046958214
7.0,0.0,7.0,0.0,2.0,0.0,2.0,0.0,,,,left,1.1018699000123888,268.11976869998034,fj4,268.11976869998034,,263.2410871000029,265.25541890005115,True,1.0,['r'],True,0.4285714285714285,0.4285714285714285,0.0,0.0,2.0,0.6216097450797565,0.2143087570706274,unsucc_cost,0.0,0.0,265.25541890005115,,fj4,1,2022-05-05_11h29.50.201,threat_forest,2021.2.3,60.05692195058074,True,52.0,0.43650793650793646,0.4932539682539683,-0.5626102292768962,-0.5213051146384482,1,0,1.0,0.09700864569633794,0.2143087570706274,1.0,0.4285714285714285,0.4285714285714285,0.0,0.714285714285714,0.714285714285714,1.714285714285714,1.714285714285714,1.0,2.0,-1.0,1.0,1,1,0,1,0.625
8.0,0.0,8.0,0.0,0.0,0.0,0.0,0.0,273.2401858000085,276.7447156000417,,right,1.0707629999378696,278.8263732000487,fj4,273.2401858000085,276.7447156000417,278.8263732000487,,True,4.0,['p'],False,0.4444444444444445,0.6666666666666666,0.3333333333333333,1.0,1.0,0.9656336071428248,0.0476968551938484,unsucc_cost,1.0,2.0,,,fj4,1,2022-05-05_11h29.50.201,threat_forest,2021.2.3,60.05692195058074,True,5.0,0.4444444444444444,0.44047619047619047,-1.259259259259259,-0.9109347442680776,0,1,1.0,0.06837147840426495,0.0476968551938484,0.4444444444444445,0.4444444444444445,0.6666666666666666,0.3333333333333333,0.0,0.0,4.0,4.0,0.0,1.0,-1.0,4.0,0,1,1,0,0.0476968551938484
8.0,0.0,8.0,0.0,1.0,0.0,1.0,0.0,,,,left,2.791999200009741,285.4369118000613,fj4,273.2401858000085,276.7447156000417,285.4369118000613,,False,2.0,['p'],False,0.4444444444444445,0.6666666666666666,0.3333333333333333,1.0,1.0,0.9656336071428248,0.034059711281816,wait_cost,1.0,1.0,281.93981989996973,,fj4,1,2022-05-05_11h29.50.201,threat_forest,2021.2.3,60.05692195058074,False,5.0,0.4444444444444444,0.44047619047619047,-1.259259259259259,-0.9109347442680776,0,1,0.0,1.0267578983706225,0.034059711281816,0.4444444444444445,0.4444444444444445,0.6666666666666666,0.3333333333333333,0.0,0.0,2.0,2.0,0.0,1.0,-1.0,2.0,0,1,1,0,0.034059711281816
8.0,0.0,8.0,0.0,2.0,0.0,2.0,0.0,,,,right,1.110972399939783,293.09639119997155,fj4,273.2401858000085,276.7447156000417,293.09639119997155,,True,1.0,['p'],False,0.4444444444444445,0.6666666666666666,0.3333333333333333,1.0,1.0,0.9656336071428248,0.0694949099607377,figh_cost,1.0,0.0,290.2654201000696,,fj4,1,2022-05-05_11h29.50.201,threat_forest,2021.2.3,60.05692195058074,True,5.0,0.4444444444444444,0.44047619047619047,-1.259259259259259,-0.9109347442680776,0,1,1.0,0.10523566781046276,0.0694949099607377,1.0,0.4444444444444445,0.6666666666666666,0.3333333333333333,0.0,0.0,1.0,1.0,0.0,1.0,-1.0,1.0,1,1,1,0,0.625
9.0,0.0,9.0,0.0,0.0,0.0,0.0,0.0,299.8642463999568,303.36981970001943,,right,2.054569200030528,304.4388557999628,fj4,304.4388557999628,,299.8642463999568,303.36981970001943,False,5.0,['p'],True,0.1875,0.25,0.25,2.0,1.0,0.895754137500101,-0.0556173947611532,wait_cost,0.0,4.0,,,fj4,1,2022-05-05_11h29.50.201,threat_forest,2021.2.3,60.05692195058074,False,57.0,0.4583333333333333,0.45138888888888884,-1.34375,-1.3015046296296295,0,0,0.0,0.7200661909500645,-0.0556173947611532,0.1875,0.1875,0.25,0.25,-1.0,-0.6875,4.3125,4.3125,1.0,1.0,-1.0,5.0,0,1,0,0,-0.0556173947611532
9.0,0.0,9.0,0.0,1.0,0.0,1.0,0.0,,,,right,1.7332919999025762,309.9807523000054,fj4,309.9807523000054,,299.8642463999568,303.36981970001943,False,4.0,['p'],True,0.1875,0.25,0.25,2.0,1.0,0.895754137500101,-0.0404897820049361,wait_cost,0.0,3.0,308.5317342999624,,fj4,1,2022-05-05_11h29.50.201,threat_forest,2021.2.3,60.05692195058074,False,57.0,0.4583333333333333,0.45138888888888884,-1.34375,-1.3015046296296295,0,0,0.0,0.5500224904248944,-0.0404897820049361,0.1875,0.1875,0.25,0.25,-1.0,-0.6875,3.3125,3.3125,1.0,1.0,-1.0,4.0,0,1,0,0,-0.0404897820049361
9.0,0.0,9.0,0.0,2.0,0.0,2.0,0.0,,,,right,0.775932400021702,315.4617331000045,fj4,311.74613790004514,313.7601945999777,315.4617331000045,,True,3.0,['p'],False,0.4444444444444445,0.6666666666666666,0.3333333333333333,1.0,1.0,0.9656336071428248,0.0666724099085578,figh_cost,1.0,0.0,313.7601945999777,,fj4,1,2022-05-05_11h29.50.201,threat_forest,2021.2.3,60.05692195058074,True,57.0,0.4583333333333333,0.45138888888888884,-1.34375,-1.3015046296296295,1,0,1.0,-0.25368987596760395,0.0666724099085578,0.4444444444444445,0.4444444444444445,0.6666666666666666,0.3333333333333333,0.0,0.0,3.0,3.0,0.0,1.0,-1.0,3.0,0,1,0,1,0.0666724099085578
10.0,0.0,10.0,0.0,0.0,0.0,0.0,0.0,320.8650562000694,324.3669441000093,,left,0.7136385999619961,325.6853383000707,fj4,325.6853383000707,,320.8650562000694,324.3669441000093,True,4.0,['r'],True,0.28125,0.375,0.25,2.0,2.0,0.9634951148421658,-0.0007636143604934,unsucc_cost,0.0,2.0,,,fj4,1,2022-05-05_11h29.50.201,threat_forest,2021.2.3,60.05692195058074,True,40.0,0.35416666666666663,0.40625,-0.8958333333333335,-1.1197916666666667,0,0,1.0,-0.3373786073042556,-0.0007636143604934,0.28125,0.28125,0.375,0.25,-0.25,-0.125,3.875,3.875,1.0,2.0,-1.0,4.0,0,1,0,0,-0.0007636143604934
10.0,0.0,10.0,0.0,1.0,0.0,1.0,0.0,,,,left,1.560728499898687,329.34595139999874,fj4,329.34595139999874,,320.8650562000694,324.3669441000093,True,2.0,['r'],True,0.28125,0.375,0.25,2.0,2.0,0.9634951148421658,-0.0027392430560578,succ_gain,0.0,4.0,328.42977589997463,,fj4,1,2022-05-05_11h29.50.201,threat_forest,2021.2.3,60.05692195058074,True,40.0,0.35416666666666663,0.40625,-0.8958333333333335,-1.1197916666666667,0,0,1.0,0.44515269937144053,-0.0027392430560578,0.28125,0.28125,0.375,0.25,-0.25,-0.125,1.875,1.875,1.0,2.0,-1.0,2.0,0,1,0,0,-0.0027392430560578
10.0,0.0,10.0,0.0,2.0,0.0,2.0,0.0,,,,right,1.6193529000738636,336.32279150001705,fj4,336.32279150001705,,320.8650562000694,324.3669441000093,False,4.0,['r'],True,0.28125,0.375,0.25,2.0,2.0,0.9634951148421658,0.0029155825391227,wait_cost,0.0,3.0,332.94224959996063,,fj4,1,2022-05-05_11h29.50.201,threat_forest,2021.2.3,60.05692195058074,False,40.0,0.35416666666666663,0.40625,-0.8958333333333335,-1.1197916666666667,0,0,0.0,0.48202662504627825,0.0029155825391227,0.28125,0.28125,0.375,0.25,-0.25,-0.125,3.875,3.875,1.0,2.0,1.0,4.0,0,1,0,0,0.0029155825391227
10.0,0.0,10.0,0.0,3.0,0.0,3.0,0.0,,,,right,1.3694517000112685,340.6215220000595,fj4,337.9712755000219,339.9856363000581,340.6215220000595,,True,3.0,['r'],False,0.3333333333333333,0.3333333333333333,0.0,0.0,2.0,0.5793801642856949,0.1117113843376252,succ_gain,1.0,5.0,339.9856363000581,,fj4,1,2022-05-05_11h29.50.201,threat_forest,2021.2.3,60.05692195058074,True,40.0,0.35416666666666663,0.40625,-0.8958333333333335,-1.1197916666666667,1,0,1.0,0.3144104407611698,0.1117113843376252,0.3333333333333333,0.3333333333333333,0.3333333333333333,0.0,0.33333333333333315,0.33333333333333315,3.333333333333333,3.333333333333333,0.0,2.0,-1.0,3.0,0,1,0,1,0.1117113843376252
10.0,0.0,10.0,0.0,4.0,0.0,4.0,0.0,,,,left,2.01417710003443,346.81302150001284,fj4,337.9712755000219,339.9856363000581,346.81302150001284,,False,5.0,['r'],False,0.3333333333333333,0.3333333333333333,0.0,0.0,2.0,0.5793801642856949,-0.3455041956018519,wait_cost,1.0,4.0,344.03185020003,,fj4,1,2022-05-05_11h29.50.201,threat_forest,2021.2.3,60.05692195058074,False,40.0,0.35416666666666663,0.40625,-0.8958333333333335,-1.1197916666666667,1,0,0.0,0.700210724906245,-0.3455041956018519,0.0,0.3333333333333333,0.3333333333333333,0.0,0.33333333333333315,0.33333333333333315,5.333333333333333,5.333333333333333,0.0,2.0,1.0,5.0,0,0,0,1,-0.84
10.0,0.0,10.0,0.0,5.0,0.0,5.0,0.0,,,,right,1.1408579000271857,354.15841639996506,fj4,354.15841639996506,,348.84435629996005,350.85884090000764,False,4.0,['r'],True,0.28125,0.375,0.25,2.0,2.0,0.9634951148421658,-0.4917805989583333,wait_cost,0.0,3.0,350.85884090000764,,fj4,1,2022-05-05_11h29.50.201,threat_forest,2021.2.3,60.05692195058074,False,40.0,0.35416666666666663,0.40625,-0.8958333333333335,-1.1197916666666667,0,0,0.0,0.13178052327073267,-0.4917805989583333,0.0,0.28125,0.375,0.25,-0.25,-0.125,3.875,3.875,1.0,2.0,-1.0,4.0,0,0,0,0,-0.84
10.0,0.0,10.0,0.0,6.0,0.0,6.0,0.0,,,,left,1.892971399938688,360.5666402999777,fj4,355.3216368999565,357.33612440002616,360.5666402999777,,False,3.0,['r'],False,0.3333333333333333,0.3333333333333333,0.0,0.0,2.0,0.5793801642856949,-0.4618055555555556,wait_cost,1.0,2.0,357.33612440002616,,fj4,1,2022-05-05_11h29.50.201,threat_forest,2021.2.3,60.05692195058074,False,40.0,0.35416666666666663,0.40625,-0.8958333333333335,-1.1197916666666667,1,0,0.0,0.6381477637869514,-0.4618055555555556,0.0,0.3333333333333333,0.3333333333333333,0.0,0.33333333333333315,0.33333333333333315,3.333333333333333,3.333333333333333,0.0,2.0,-1.0,3.0,0,0,0,1,-0.84
10.0,0.0,10.0,0.0,7.0,0.0,7.0,0.0,,,,right,0.7289817999117076,368.0829158000415,fj4,368.0829158000415,,362.4817166000139,364.4960296000354,False,2.0,['r'],True,0.28125,0.375,0.25,2.0,2.0,0.9634951148421658,-0.71875,wait_cost,0.0,1.0,364.4960296000354,,fj4,1,2022-05-05_11h29.50.201,threat_forest,2021.2.3,60.05692195058074,False,40.0,0.35416666666666663,0.40625,-0.8958333333333335,-1.1197916666666667,0,0,0.0,-0.3161065131126919,-0.71875,0.0,0.28125,0.375,0.25,-0.25,-0.125,1.875,1.875,1.0,2.0,-1.0,2.0,0,0,0,0,-0.84
11.0,0.0,11.0,0.0,0.0,0.0,0.0,0.0,371.692663099966,375.1849600999849,,left,1.071760099963285,378.6848465000512,fj4,378.6848465000512,,371.692663099966,375.1849600999849,True,5.0,['r'],True,0.625,0.625,0.0,0.0,2.0,0.6021808102656677,0.0512514556375116,succ_gain,0.0,6.0,,,fj4,1,2022-05-05_11h29.50.201,threat_forest,2021.2.3,60.05692195058074,True,60.0,0.6458333333333333,0.49999999999999994,0.17592592592592587,-0.35995370370370383,1,1,1.0,0.06930225025680344,0.0512514556375116,0.625,0.625,0.625,0.0,1.5,1.5,6.5,6.5,1.0,2.0,-1.0,5.0,0,1,1,1,0.0512514556375116
11.0,0.0,11.0,0.0,1.0,0.0,1.0,0.0,,,,left,1.431398899992928,383.08205099997576,fj4,379.7857140999986,381.7966215000488,383.08205099997576,,False,6.0,['r'],False,0.5185185185185185,0.6666666666666666,0.2222222222222222,2.0,2.0,0.9327883776363328,-0.0383052857519836,wait_cost,1.0,5.0,381.7966215000488,,fj4,1,2022-05-05_11h29.50.201,threat_forest,2021.2.3,60.05692195058074,False,60.0,0.6458333333333333,0.49999999999999994,0.17592592592592587,-0.35995370370370383,1,1,0.0,0.3586522178387114,-0.0383052857519836,0.5185185185185185,0.5185185185185185,0.6666666666666666,0.2222222222222222,0.9999999999999999,0.8518518518518517,6.851851851851852,6.851851851851852,0.0,2.0,1.0,6.0,0,1,1,1,-0.0383052857519836
11.0,0.0,11.0,0.0,2.0,0.0,2.0,0.0,,,,left,1.4940181999700144,387.7414057999849,fj4,379.7857140999986,381.7966215000488,387.7414057999849,,False,5.0,['r'],False,0.5185185185185185,0.6666666666666666,0.2222222222222222,2.0,2.0,0.9327883776363328,-0.0020736371183338,wait_cost,1.0,4.0,386.5588604999939,,fj4,1,2022-05-05_11h29.50.201,threat_forest,2021.2.3,60.05692195058074,False,60.0,0.6458333333333333,0.49999999999999994,0.17592592592592587,-0.35995370370370383,1,1,0.0,0.4014692686779341,-0.0020736371183338,0.5185185185185185,0.5185185185185185,0.6666666666666666,0.2222222222222222,0.9999999999999999,0.8518518518518517,5.851851851851852,5.851851851851852,0.0,2.0,-1.0,5.0,0,1,1,1,-0.0020736371183338
11.0,0.0,11.0,0.0,3.0,0.0,3.0,0.0,,,,left,2.4403410999802877,392.5702100000344,fj4,379.7857140999986,381.7966215000488,392.5702100000344,,False,4.0,['r'],False,0.5185185185185185,0.6666666666666666,0.2222222222222222,2.0,2.0,0.9327883776363328,0.0162575988488727,wait_cost,1.0,3.0,391.2710473999614,,fj4,1,2022-05-05_11h29.50.201,threat_forest,2021.2.3,60.05692195058074,False,60.0,0.6458333333333333,0.49999999999999994,0.17592592592592587,-0.35995370370370383,1,1,0.0,0.8921378246085782,0.0162575988488727,0.5185185185185185,0.5185185185185185,0.6666666666666666,0.2222222222222222,0.9999999999999999,0.8518518518518517,4.851851851851852,4.851851851851852,0.0,2.0,-1.0,4.0,0,1,1,1,0.0162575988488727
11.0,0.0,11.0,0.0,4.0,0.0,4.0,0.0,,,,left,2.2901307001011446,398.7978564000223,fj4,379.7857140999986,381.7966215000488,398.7978564000223,,False,3.0,['r'],False,0.5185185185185185,0.6666666666666666,0.2222222222222222,2.0,2.0,0.9327883776363328,0.0683727709190671,wait_cost,1.0,2.0,397.04896409995854,,fj4,1,2022-05-05_11h29.50.201,threat_forest,2021.2.3,60.05692195058074,False,60.0,0.6458333333333333,0.49999999999999994,0.17592592592592587,-0.35995370370370383,1,1,0.0,0.8286088902174493,0.0683727709190671,0.5185185185185185,0.5185185185185185,0.6666666666666666,0.2222222222222222,0.9999999999999999,0.8518518518518517,3.8518518518518516,3.8518518518518516,0.0,2.0,-1.0,3.0,0,1,1,1,0.0683727709190671
11.0,0.0,11.0,0.0,5.0,0.0,5.0,0.0,,,,left,2.1338584000477567,404.25930160004646,fj4,379.7857140999986,381.7966215000488,404.25930160004646,,False,2.0,['r'],False,0.5185185185185185,0.6666666666666666,0.2222222222222222,2.0,2.0,0.9327883776363328,-0.0532407407407407,wait_cost,1.0,1.0,403.1099605000345,,fj4,1,2022-05-05_11h29.50.201,threat_forest,2021.2.3,60.05692195058074,False,60.0,0.6458333333333333,0.49999999999999994,0.17592592592592587,-0.35995370370370383,1,1,0.0,0.7579317964361081,-0.0532407407407407,0.5185185185185185,0.5185185185185185,0.6666666666666666,0.2222222222222222,0.9999999999999999,0.8518518518518517,2.8518518518518516,2.8518518518518516,0.0,2.0,-1.0,2.0,0,1,1,1,-0.0532407407407407
11.0,0.0,11.0,0.0,6.0,0.0,6.0,0.0,,,,right,0.9330112000461668,409.93778519995976,fj4,379.7857140999986,381.7966215000488,409.93778519995976,,True,1.0,['r'],False,0.5185185185185185,0.6666666666666666,0.2222222222222222,2.0,2.0,0.9327883776363328,0.5185185185185185,succ_gain,1.0,3.0,408.43880949995946,,fj4,1,2022-05-05_11h29.50.201,threat_forest,2021.2.3,60.05692195058074,True,60.0,0.6458333333333333,0.49999999999999994,0.17592592592592587,-0.35995370370370383,1,1,1.0,-0.06933807387011717,0.5185185185185185,1.0,0.5185185185185185,0.6666666666666666,0.2222222222222222,0.9999999999999999,0.8518518518518517,1.8518518518518516,1.8518518518518516,0.0,2.0,-1.0,1.0,1,1,1,1,0.625
11.0,0.0,11.0,0.0,7.0,0.0,7.0,0.0,,,,left,1.924797400017269,415.2336009000428,fj4,415.2336009000428,,410.903201200068,412.9174683999736,True,3.0,['r'],True,0.625,0.625,0.0,0.0,2.0,0.6021808102656677,0.0,succ_gain,0.0,5.0,412.9174683999736,,fj4,1,2022-05-05_11h29.50.201,threat_forest,2021.2.3,60.05692195058074,True,60.0,0.6458333333333333,0.49999999999999994,0.17592592592592587,-0.35995370370370383,1,1,1.0,0.6548207154566444,0.0,0.0,0.625,0.625,0.0,1.5,1.5,4.5,4.5,1.0,2.0,1.0,3.0,0,0,1,1,-0.84
12.0,0.0,12.0,0.0,0.0,0.0,0.0,0.0,421.8138703999575,425.310098499991,,right,2.227218799991533,426.7883151000133,fj4,426.7883151000133,,421.8138703999575,425.310098499991,False,5.0,['p'],True,0.32,0.4,0.2,1.0,1.0,0.9455672104350704,0.029786704162101,wait_cost,0.0,4.0,,,fj4,1,2022-05-05_11h29.50.201,threat_forest,2021.2.3,60.05692195058074,False,48.0,0.3111111111111111,0.4784722222222222,-1.3792592592592592,-0.6016666666666667,0,0,0.0,0.8007536322104901,0.029786704162101,0.32,0.32,0.4,0.2,-0.3999999999999999,-0.24,4.76,4.76,1.0,1.0,1.0,5.0,0,1,0,0,0.029786704162101
12.0,0.0,12.0,0.0,1.0,0.0,1.0,0.0,,,,left,1.0061595999868589,432.71610750001855,fj4,432.71610750001855,,421.8138703999575,425.310098499991,True,4.0,['p'],True,0.32,0.4,0.2,1.0,1.0,0.9455672104350704,0.0393429374403599,unsucc_cost,0.0,2.0,431.05059070000425,,fj4,1,2022-05-05_11h29.50.201,threat_forest,2021.2.3,60.05692195058074,True,48.0,0.3111111111111111,0.4784722222222222,-1.3792592592592592,-0.6016666666666667,0,0,1.0,0.006140707192538052,0.0393429374403599,0.32,0.32,0.4,0.2,-0.3999999999999999,-0.24,3.76,3.76,1.0,1.0,-1.0,4.0,0,1,0,0,0.0393429374403599
12.0,0.0,12.0,0.0,2.0,0.0,2.0,0.0,,,,right,2.081731599988416,439.1600066999672,fj4,439.1600066999672,,421.8138703999575,425.310098499991,False,2.0,['p'],True,0.32,0.4,0.2,1.0,1.0,0.9455672104350704,0.0231674818752166,wait_cost,0.0,1.0,435.7634322000668,,fj4,1,2022-05-05_11h29.50.201,threat_forest,2021.2.3,60.05692195058074,False,48.0,0.3111111111111111,0.4784722222222222,-1.3792592592592592,-0.6016666666666667,0,0,0.0,0.73320004737174,0.0231674818752166,0.32,0.32,0.4,0.2,-0.3999999999999999,-0.24,1.76,1.76,1.0,1.0,-1.0,2.0,0,1,0,0,0.0231674818752166
12.0,0.0,12.0,0.0,3.0,0.0,3.0,0.0,,,,right,1.2472250000573697,446.7209316999652,fj4,441.27484800003,443.2891903000418,446.7209316999652,,True,1.0,['p'],False,0.1975308641975308,0.2222222222222222,0.1111111111111111,1.0,1.0,0.7461067557824965,0.0209731064269448,unsucc_cost,1.0,0.0,443.2891903000418,,fj4,1,2022-05-05_11h29.50.201,threat_forest,2021.2.3,60.05692195058074,True,48.0,0.3111111111111111,0.4784722222222222,-1.3792592592592592,-0.6016666666666667,0,0,1.0,0.22092108350710854,0.0209731064269448,1.0,0.1975308641975308,0.2222222222222222,0.1111111111111111,-0.6666666666666667,-0.5185185185185184,0.4814814814814816,1.0,0.0,1.0,-1.0,1.0,1,1,0,0,0.625
13.0,0.0,13.0,0.0,0.0,0.0,0.0,0.0,452.37125690002,455.87736949999817,,left,1.1949435999849811,458.8249572999776,fj4,458.8249572999776,,452.37125690002,455.87736949999817,True,5.0,['r'],True,0.6,0.6,0.0,0.0,2.0,0.6126016192893442,0.0610993227861605,succ_gain,0.0,6.0,,,fj4,1,2022-05-05_11h29.50.201,threat_forest,2021.2.3,60.05692195058074,True,47.0,0.6333333333333333,0.4722222222222222,-0.07777777777777783,-0.7285185185185186,1,1,1.0,0.17809898760438858,0.0610993227861605,0.6,0.6,0.6,0.0,1.4,1.4,6.4,6.4,1.0,2.0,-1.0,5.0,0,1,1,1,0.0610993227861605
13.0,0.0,13.0,0.0,1.0,0.0,1.0,0.0,,,,left,1.9378356999950483,462.9394524999661,fj4,460.0405258999672,462.0549125999678,462.9394524999661,,False,6.0,['r'],False,0.4444444444444445,0.6666666666666666,0.3333333333333333,2.0,2.0,0.9656336071428248,-0.0843219852156683,wait_cost,1.0,5.0,462.0549125999678,,fj4,1,2022-05-05_11h29.50.201,threat_forest,2021.2.3,60.05692195058074,False,47.0,0.6333333333333333,0.4722222222222222,-0.07777777777777783,-0.7285185185185186,1,0,0.0,0.6615717317503761,-0.0843219852156683,0.4444444444444445,0.4444444444444445,0.6666666666666666,0.3333333333333333,0.6666666666666665,0.4444444444444444,6.444444444444445,6.444444444444445,0.0,2.0,1.0,6.0,0,1,0,1,-0.0843219852156683
13.0,0.0,13.0,0.0,2.0,0.0,2.0,0.0,,,,right,2.372542400029488,468.2328968000365,fj4,468.2328968000365,,464.9030891000293,466.9170342000434,False,5.0,['r'],True,0.6,0.6,0.0,0.0,2.0,0.6126016192893442,0.1044295061728395,wait_cost,0.0,4.0,466.9170342000434,,fj4,1,2022-05-05_11h29.50.201,threat_forest,2021.2.3,60.05692195058074,False,47.0,0.6333333333333333,0.4722222222222222,-0.07777777777777783,-0.7285185185185186,1,1,0.0,0.8639621227983072,0.1044295061728395,0.6,0.6,0.6,0.0,1.4,1.4,6.4,6.4,1.0,2.0,-1.0,5.0,0,1,1,1,0.1044295061728395
13.0,0.0,13.0,0.0,3.0,0.0,3.0,0.0,,,,left,1.1775549000594765,473.7609988000477,fj4,473.7609988000477,,464.9030891000293,466.9170342000434,True,4.0,['r'],True,0.6,0.6,0.0,0.0,2.0,0.6126016192893442,0.1394444444444444,succ_gain,0.0,6.0,472.6451030999888,,fj4,1,2022-05-05_11h29.50.201,threat_forest,2021.2.3,60.05692195058074,True,47.0,0.6333333333333333,0.4722222222222222,-0.07777777777777783,-0.7285185185185186,1,1,1.0,0.16344017007589148,0.1394444444444444,0.6,0.6,0.6,0.0,1.4,1.4,5.4,5.4,1.0,2.0,-1.0,4.0,0,1,1,1,0.1394444444444444
13.0,0.0,13.0,0.0,4.0,0.0,4.0,0.0,,,,left,1.006876299972646,480.47339840000495,fj4,474.9599394999677,476.9742973999819,480.47339840000495,,False,6.0,['r'],False,0.4444444444444445,0.6666666666666666,0.3333333333333333,2.0,2.0,0.9656336071428248,-0.105,wait_cost,1.0,5.0,476.9742973999819,,fj4,1,2022-05-05_11h29.50.201,threat_forest,2021.2.3,60.05692195058074,False,47.0,0.6333333333333333,0.4722222222222222,-0.07777777777777783,-0.7285185185185186,1,0,0.0,0.006852766044626783,-0.105,0.0,0.4444444444444445,0.6666666666666666,0.3333333333333333,0.6666666666666665,0.4444444444444444,6.444444444444445,6.444444444444445,0.0,2.0,1.0,6.0,0,0,0,1,-0.84
13.0,0.0,13.0,0.0,5.0,0.0,5.0,0.0,,,,left,0.6311230999417603,484.118074900005,fj4,474.9599394999677,476.9742973999819,484.118074900005,,False,5.0,['r'],False,0.4444444444444445,0.6666666666666666,0.3333333333333333,2.0,2.0,0.9656336071428248,-0.1462962962962963,wait_cost,1.0,4.0,483.5181920999894,,fj4,1,2022-05-05_11h29.50.201,threat_forest,2021.2.3,60.05692195058074,False,47.0,0.6333333333333333,0.4722222222222222,-0.07777777777777783,-0.7285185185185186,1,0,0.0,-0.4602543483969964,-0.1462962962962963,0.0,0.4444444444444445,0.6666666666666666,0.3333333333333333,0.6666666666666665,0.4444444444444444,5.444444444444445,5.444444444444445,0.0,2.0,-1.0,5.0,0,0,0,1,-0.84
13.0,0.0,13.0,0.0,6.0,0.0,6.0,0.0,,,,right,1.067829400068149,488.2807060000487,fj4,488.2807060000487,,484.7674157000147,486.7818823000416,False,4.0,['r'],True,0.6,0.6,0.0,0.0,2.0,0.6126016192893442,0.0,wait_cost,0.0,3.0,486.7818823000416,,fj4,1,2022-05-05_11h29.50.201,threat_forest,2021.2.3,60.05692195058074,False,47.0,0.6333333333333333,0.4722222222222222,-0.07777777777777783,-0.7285185185185186,1,1,0.0,0.06562799001466224,0.0,0.0,0.6,0.6,0.0,1.4,1.4,5.4,5.4,1.0,2.0,-1.0,4.0,0,0,1,1,-0.84
13.0,0.0,13.0,0.0,7.0,0.0,7.0,0.0,,,,left,0.7632855999981984,492.2604565999936,fj4,489.3797468000557,491.3941796000581,492.2604565999936,,False,3.0,['r'],False,0.4444444444444445,0.6666666666666666,0.3333333333333333,2.0,2.0,0.9656336071428248,-0.3333333333333333,wait_cost,1.0,2.0,491.3941796000581,,fj4,1,2022-05-05_11h29.50.201,threat_forest,2021.2.3,60.05692195058074,False,47.0,0.6333333333333333,0.4722222222222222,-0.07777777777777783,-0.7285185185185186,1,0,0.0,-0.27012300581066734,-0.3333333333333333,0.0,0.4444444444444445,0.6666666666666666,0.3333333333333333,0.6666666666666665,0.4444444444444444,3.4444444444444446,3.4444444444444446,0.0,2.0,-1.0,3.0,0,0,0,1,-0.84
14.0,0.0,14.0,0.0,0.0,0.0,0.0,0.0,498.23422480002046,501.7344585000537,,left,1.7984870999353006,503.63562910002656,fj4,498.23422480002046,501.7344585000537,503.63562910002656,,False,4.0,['p'],False,0.18,0.2,0.1,1.0,2.0,0.7058405977926203,-0.0041239600981238,wait_cost,1.0,3.0,,,fj4,1,2022-05-05_11h29.50.201,threat_forest,2021.2.3,60.05692195058074,False,41.0,0.43333333333333335,0.5333333333333333,-0.9677777777777778,-0.5227777777777778,0,0,0.0,0.5869458114479739,-0.0041239600981238,0.18,0.18,0.2,0.1,-0.5000000000000002,-0.3800000000000001,3.62,3.62,0.0,2.0,-1.0,4.0,0,1,0,0,-0.0041239600981238
14.0,0.0,14.0,0.0,1.0,0.0,1.0,0.0,,,,left,0.5232613999396563,510.61010339995846,fj4,510.61010339995846,,505.4653278000187,507.4791576999705,True,3.0,['p'],True,0.4444444444444445,0.6666666666666666,0.3333333333333333,1.0,2.0,0.9656336071428248,0.0923110486049816,unsucc_cost,0.0,1.0,507.4791576999705,,fj4,1,2022-05-05_11h29.50.201,threat_forest,2021.2.3,60.05692195058074,True,41.0,0.43333333333333335,0.5333333333333333,-0.9677777777777778,-0.5227777777777778,0,0,1.0,-0.6476741310999381,0.0923110486049816,0.4444444444444445,0.4444444444444445,0.6666666666666666,0.3333333333333333,0.6666666666666665,0.4444444444444444,3.4444444444444446,3.4444444444444446,1.0,2.0,-1.0,3.0,0,1,0,0,0.0923110486049816
14.0,0.0,14.0,0.0,2.0,0.0,2.0,0.0,,,,left,1.165031100041233,515.9218238999601,fj4,515.9218238999601,,505.4653278000187,507.4791576999705,True,1.0,['p'],True,0.4444444444444445,0.6666666666666666,0.3333333333333333,1.0,2.0,0.9656336071428248,0.1899213781097054,succ_gain,0.0,3.0,513.1738763999892,,fj4,1,2022-05-05_11h29.50.201,threat_forest,2021.2.3,60.05692195058074,True,41.0,0.43333333333333335,0.5333333333333333,-0.9677777777777778,-0.5227777777777778,0,0,1.0,0.15274778197571343,0.1899213781097054,1.0,0.4444444444444445,0.6666666666666666,0.3333333333333333,0.6666666666666665,0.4444444444444444,1.4444444444444444,1.4444444444444444,1.0,2.0,-1.0,1.0,1,1,0,0,0.625
14.0,0.0,14.0,0.0,3.0,0.0,3.0,0.0,,,,left,1.929262400022708,520.6522397999652,fj4,517.1065866999561,519.1183431000682,520.6522397999652,,False,3.0,['p'],False,0.18,0.2,0.1,1.0,2.0,0.7058405977926203,-0.0950796404938273,wait_cost,1.0,2.0,519.1183431000682,,fj4,1,2022-05-05_11h29.50.201,threat_forest,2021.2.3,60.05692195058074,False,41.0,0.43333333333333335,0.5333333333333333,-0.9677777777777778,-0.5227777777777778,0,0,0.0,0.6571377537148385,-0.0950796404938273,0.18,0.18,0.2,0.1,-0.5000000000000002,-0.3800000000000001,2.62,2.62,0.0,2.0,1.0,3.0,0,1,0,0,-0.0950796404938273
14.0,0.0,14.0,0.0,4.0,0.0,4.0,0.0,,,,left,1.2363984999246895,527.3634129000129,fj4,517.1065866999561,519.1183431000682,527.3634129000129,,False,2.0,['p'],False,0.18,0.2,0.1,1.0,2.0,0.7058405977926203,-0.1322222222222222,wait_cost,1.0,1.0,524.6131230000174,,fj4,1,2022-05-05_11h29.50.201,threat_forest,2021.2.3,60.05692195058074,False,41.0,0.43333333333333335,0.5333333333333333,-0.9677777777777778,-0.5227777777777778,0,0,0.0,0.21220271801456533,-0.1322222222222222,0.18,0.18,0.2,0.1,-0.5000000000000002,-0.3800000000000001,1.6199999999999999,1.6199999999999999,0.0,2.0,-1.0,2.0,0,1,0,0,-0.1322222222222222
14.0,0.0,14.0,0.0,5.0,0.0,5.0,0.0,,,,right,1.1623706000391394,533.7050565000391,fj4,517.1065866999561,519.1183431000682,533.7050565000391,,True,1.0,['p'],False,0.18,0.2,0.1,1.0,2.0,0.7058405977926203,0.1799999999999999,succ_gain,1.0,3.0,530.6408093000064,,fj4,1,2022-05-05_11h29.50.201,threat_forest,2021.2.3,60.05692195058074,True,41.0,0.43333333333333335,0.5333333333333333,-0.9677777777777778,-0.5227777777777778,0,0,1.0,0.15046154048946808,0.1799999999999999,1.0,0.18,0.2,0.1,-0.5000000000000002,-0.3800000000000001,0.6199999999999999,1.0,0.0,2.0,-1.0,1.0,1,1,0,0,0.625
14.0,0.0,14.0,0.0,6.0,0.0,6.0,0.0,,,,left,0.9204927999526262,540.5486720000627,fj4,517.1065866999561,519.1183431000682,540.5486720000627,,False,3.0,['p'],False,0.18,0.2,0.1,1.0,2.0,0.7058405977926203,-0.5952000000000002,wait_cost,1.0,2.0,536.9016664000228,,fj4,1,2022-05-05_11h29.50.201,threat_forest,2021.2.3,60.05692195058074,False,41.0,0.43333333333333335,0.5333333333333333,-0.9677777777777778,-0.5227777777777778,0,0,0.0,-0.0828461002270196,-0.5952000000000002,0.0,0.18,0.2,0.1,-0.5000000000000002,-0.3800000000000001,2.62,2.62,0.0,2.0,1.0,3.0,0,0,0,0,-0.84
14.0,0.0,14.0,0.0,7.0,0.0,7.0,0.0,,,,right,1.1537009000312537,546.7428527000593,fj4,546.7428527000593,,541.4977975999936,543.5121131000342,False,2.0,['p'],True,0.4444444444444445,0.6666666666666666,0.3333333333333333,1.0,2.0,0.9656336071428248,-0.5555555555555556,wait_cost,0.0,1.0,543.5121131000342,,fj4,1,2022-05-05_11h29.50.201,threat_forest,2021.2.3,60.05692195058074,False,41.0,0.43333333333333335,0.5333333333333333,-0.9677777777777778,-0.5227777777777778,0,0,0.0,0.14297494907670513,-0.5555555555555556,0.0,0.4444444444444445,0.6666666666666666,0.3333333333333333,0.6666666666666665,0.4444444444444444,2.4444444444444446,2.4444444444444446,1.0,2.0,-1.0,2.0,0,0,0,0,-0.84
15.0,0.0,15.0,0.0,0.0,0.0,0.0,0.0,553.4103414999554,556.9162227000343,,left,2.0157156999921426,559.398256000015,fj4,553.4103414999554,556.9162227000343,559.398256000015,,False,5.0,['r'],False,0.2040816326530612,0.2857142857142857,0.2857142857142857,2.0,2.0,0.9335459102197724,-0.0078150263394839,wait_cost,1.0,4.0,,,fj4,1,2022-05-05_11h29.50.201,threat_forest,2021.2.3,60.05692195058074,False,17.0,0.26785714285714285,0.35059523809523807,-1.2346938775510203,-1.1012358276643992,0,0,0.0,0.7009743184353148,-0.0078150263394839,0.2040816326530612,0.2040816326530612,0.2857142857142857,0.2857142857142857,-0.7142857142857144,-0.46938775510204067,4.530612244897959,4.530612244897959,0.0,2.0,-1.0,5.0,0,1,0,0,-0.0078150263394839
15.0,0.0,15.0,0.0,1.0,0.0,1.0,0.0,,,,left,2.053629699978046,565.991898200009,fj4,553.4103414999554,556.9162227000343,565.991898200009,,False,4.0,['r'],False,0.2040816326530612,0.2857142857142857,0.2857142857142857,2.0,2.0,0.9335459102197724,0.00642434352113,wait_cost,1.0,3.0,563.4601682999637,,fj4,1,2022-05-05_11h29.50.201,threat_forest,2021.2.3,60.05692195058074,False,17.0,0.26785714285714285,0.35059523809523807,-1.2346938775510203,-1.1012358276643992,0,0,0.0,0.7196088128670033,0.00642434352113,0.2040816326530612,0.2040816326530612,0.2857142857142857,0.2857142857142857,-0.7142857142857144,-0.46938775510204067,3.5306122448979593,3.5306122448979593,0.0,2.0,-1.0,4.0,0,1,0,0,0.00642434352113
15.0,0.0,15.0,0.0,2.0,0.0,2.0,0.0,,,,right,0.9079410000704228,572.0191487000557,fj4,553.4103414999554,556.9162227000343,572.0191487000557,,True,3.0,['r'],False,0.2040816326530612,0.2857142857142857,0.2857142857142857,2.0,2.0,0.9335459102197724,0.050517261391048,unsucc_cost,1.0,1.0,570.087676599971,,fj4,1,2022-05-05_11h29.50.201,threat_forest,2021.2.3,60.05692195058074,True,17.0,0.26785714285714285,0.35059523809523807,-1.2346938775510203,-1.1012358276643992,0,0,1.0,-0.09657588038800885,0.050517261391048,0.2040816326530612,0.2040816326530612,0.2857142857142857,0.2857142857142857,-0.7142857142857144,-0.46938775510204067,2.5306122448979593,2.5306122448979593,0.0,2.0,-1.0,3.0,0,1,0,0,0.050517261391048
15.0,0.0,15.0,0.0,3.0,0.0,3.0,0.0,,,,left,0.5423023999901488,578.0641246000305,fj4,578.0641246000305,,572.9516475000419,574.9662556999829,True,1.0,['r'],True,0.25,0.25,0.0,0.0,2.0,0.5118595071429148,0.0925249245106205,unsucc_cost,0.0,0.0,574.9662556999829,,fj4,1,2022-05-05_11h29.50.201,threat_forest,2021.2.3,60.05692195058074,True,17.0,0.26785714285714285,0.35059523809523807,-1.2346938775510203,-1.1012358276643992,1,0,1.0,-0.6119314995683911,0.0925249245106205,1.0,0.25,0.25,0.0,0.0,0.0,1.0,1.0,1.0,2.0,-1.0,1.0,1,1,0,1,0.625
16.0,0.0,16.0,0.0,0.0,0.0,0.0,0.0,582.3864872000413,585.8892380000325,,right,1.3027628998970613,587.9241743000457,fj4,582.3864872000413,585.8892380000325,587.9241743000457,,True,4.0,['p'],False,0.2962962962962963,0.3333333333333333,0.1111111111111111,1.0,1.0,0.8325252476189534,0.0071317107376875,unsucc_cost,1.0,2.0,,,fj4,1,2022-05-05_11h29.50.201,threat_forest,2021.2.3,60.05692195058074,True,4.0,0.4666666666666667,0.3672619047619048,-0.9911111111111113,-1.112902494331066,0,0,1.0,0.26448731680925486,0.0071317107376875,0.2962962962962963,0.2962962962962963,0.3333333333333333,0.1111111111111111,-0.3333333333333335,-0.22222222222222232,3.7777777777777777,3.7777777777777777,0.0,1.0,-1.0,4.0,0,1,0,0,0.0071317107376875
16.0,0.0,16.0,0.0,1.0,0.0,1.0,0.0,,,,left,1.0393974999897182,593.6324554999592,fj4,593.6324554999592,,589.2531665000133,591.2675099000335,True,2.0,['p'],True,0.48,0.6,0.2,1.0,1.0,0.9455672104350704,0.0404052247006255,unsucc_cost,0.0,0.0,591.2675099000335,,fj4,1,2022-05-05_11h29.50.201,threat_forest,2021.2.3,60.05692195058074,True,4.0,0.4666666666666667,0.3672619047619048,-0.9911111111111113,-1.112902494331066,1,1,1.0,0.03864121834563105,0.0404052247006255,0.48,0.48,0.6,0.2,0.19999999999999984,0.23999999999999977,2.2399999999999998,2.2399999999999998,1.0,1.0,-1.0,2.0,0,1,1,1,0.0404052247006255
17.0,0.0,17.0,0.0,0.0,0.0,0.0,0.0,598.0885308999568,601.5911994000198,,left,2.0702238999074325,604.8228573000524,fj4,604.8228573000524,,598.0885308999568,601.5911994000198,True,5.0,['p'],True,0.4444444444444445,0.6666666666666666,0.3333333333333333,1.0,1.0,0.9656336071428248,0.0492535467687539,figh_cost,0.0,2.0,,,fj4,1,2022-05-05_11h29.50.201,threat_forest,2021.2.3,60.05692195058074,True,39.0,0.43333333333333335,0.45,-1.2000000000000002,-1.0955555555555558,1,0,1.0,0.7276567656344408,0.0492535467687539,0.4444444444444445,0.4444444444444445,0.6666666666666666,0.3333333333333333,0.0,0.0,5.0,5.0,1.0,1.0,-1.0,5.0,0,1,0,1,0.0492535467687539
17.0,0.0,17.0,0.0,1.0,0.0,1.0,0.0,,,,,,610.6354701999808,fj4,606.9197948999936,608.9345532000298,610.6354701999808,,True,2.0,['p'],False,0.2,0.2,0.0,0.0,1.0,0.4554859150035951,-0.0124906357431964,wait_cost,1.0,1.0,608.9345532000298,,fj4,1,2022-05-05_11h29.50.201,threat_forest,2021.2.3,60.05692195058074,,39.0,0.43333333333333335,0.45,-1.2000000000000002,-1.0955555555555558,0,0,,,-0.0124906357431964,0.2,0.2,0.2,0.0,-0.40000000000000013,-0.40000000000000013,1.5999999999999999,1.5999999999999999,0.0,1.0,-1.0,2.0,0,1,0,0,-0.0124906357431964
17.0,0.0,17.0,0.0,2.0,0.0,2.0,0.0,,,,,,618.8586219999706,fj4,618.8586219999706,,613.647034100024,615.6614180000033,True,1.0,['p'],True,0.4444444444444445,0.6666666666666666,0.3333333333333333,1.0,1.0,0.9656336071428248,0.0696819590509576,wait_cost,0.0,0.0,615.6614180000033,,fj4,1,2022-05-05_11h29.50.201,threat_forest,2021.2.3,60.05692195058074,,39.0,0.43333333333333335,0.45,-1.2000000000000002,-1.0955555555555558,1,0,,,0.0696819590509576,1.0,0.4444444444444445,0.6666666666666666,0.3333333333333333,0.0,0.0,1.0,1.0,1.0,1.0,-1.0,1.0,1,1,0,1,0.625
0.0,0.0,0.0,0.0,0.0,0.0,0.0,0.0,19.40315340005327,22.898346800007857,,right,2.153527799993753,23.769264600006863,fj4,23.769264600006863,,19.40315340005327,22.898346800007857,False,4.0,['r'],True,0.2777777777777778,0.3333333333333333,0.1666666666666666,1.0,2.0,0.8929352898779304,0.0253296004142655,wait_cost,0.0,3.0,,,fj4,2,2022-05-05_11h40.31.749,threat_forest,2021.2.3,59.99512838641763,False,54.0,0.2777777777777778,0.35555555555555557,-1.1882716049382718,-1.194135802469136,1,0,0.0,0.767107334643357,0.0253296004142655,0.2777777777777778,0.2777777777777778,0.3333333333333333,0.1666666666666666,-0.16666666666666652,-0.05555555555555558,3.9444444444444446,3.9444444444444446,1.0,2.0,-1.0,4.0,0,1,0,1,0.0253296004142655
0.0,0.0,0.0,0.0,1.0,0.0,1.0,0.0,,,,left,1.2749026999808848,30.49677389999852,fj4,30.49677389999852,,19.40315340005327,22.898346800007857,True,3.0,['r'],True,0.2777777777777778,0.3333333333333333,0.1666666666666666,1.0,2.0,0.8929352898779304,0.0571396934166679,succ_gain,0.0,5.0,27.96514390001539,,fj4,2,2022-05-05_11h40.31.749,threat_forest,2021.2.3,59.99512838641763,True,54.0,0.2777777777777778,0.35555555555555557,-1.1882716049382718,-1.194135802469136,1,0,1.0,0.2428698619578653,0.0571396934166679,0.2777777777777778,0.2777777777777778,0.3333333333333333,0.1666666666666666,-0.16666666666666652,-0.05555555555555558,2.9444444444444446,2.9444444444444446,1.0,2.0,-1.0,3.0,0,1,0,1,0.0571396934166679
0.0,0.0,0.0,0.0,2.0,0.0,2.0,0.0,,,,left,1.2518853000365198,34.56348060001619,fj4,31.79525160009507,33.809563099988736,34.56348060001619,,False,5.0,['r'],False,0.1975308641975308,0.2222222222222222,0.1111111111111111,1.0,2.0,0.7461067557824965,0.0020436001209005,wait_cost,1.0,4.0,33.809563099988736,,fj4,2,2022-05-05_11h40.31.749,threat_forest,2021.2.3,59.99512838641763,False,54.0,0.2777777777777778,0.35555555555555557,-1.1882716049382718,-1.194135802469136,0,0,0.0,0.2246506550917827,0.0020436001209005,0.1975308641975308,0.1975308641975308,0.2222222222222222,0.1111111111111111,-0.4444444444444444,-0.32098765432098775,4.679012345679013,4.679012345679013,0.0,2.0,1.0,5.0,0,1,0,0,0.0020436001209005
0.0,0.0,0.0,0.0,3.0,0.0,3.0,0.0,,,,left,1.847918500076048,39.95593190006912,fj4,39.95593190006912,,35.84155140002258,37.85580830008257,True,4.0,['r'],True,0.2777777777777778,0.3333333333333333,0.1666666666666666,1.0,2.0,0.8929352898779304,0.0504138649288755,fight_cost,0.0,1.0,37.85580830008257,,fj4,2,2022-05-05_11h40.31.749,threat_forest,2021.2.3,59.99512838641763,True,54.0,0.2777777777777778,0.35555555555555557,-1.1882716049382718,-1.194135802469136,1,0,1.0,0.6140598705565341,0.0504138649288755,0.2777777777777778,0.2777777777777778,0.3333333333333333,0.1666666666666666,-0.16666666666666652,-0.05555555555555558,3.9444444444444446,3.9444444444444446,1.0,2.0,-1.0,4.0,0,1,0,1,0.0504138649288755
0.0,0.0,0.0,0.0,4.0,0.0,4.0,0.0,,,,left,0.9035677000647412,47.44729839998763,fj4,47.44729839998763,,35.84155140002258,37.85580830008257,True,1.0,['r'],True,0.2777777777777778,0.3333333333333333,0.1666666666666666,1.0,2.0,0.8929352898779304,0.1071726447526628,unsucc_cost,0.0,0.0,43.85027210006956,,fj4,2,2022-05-05_11h40.31.749,threat_forest,2021.2.3,59.99512838641763,True,54.0,0.2777777777777778,0.35555555555555557,-1.1882716049382718,-1.194135802469136,1,0,1.0,-0.10140424086080614,0.1071726447526628,1.0,0.2777777777777778,0.3333333333333333,0.1666666666666666,-0.16666666666666652,-0.05555555555555558,0.9444444444444444,1.0,1.0,2.0,-1.0,1.0,1,1,0,1,0.625
1.0,0.0,1.0,0.0,0.0,0.0,0.0,0.0,52.98581980005838,56.48846000002232,,right,1.4742025999585169,58.9236116000684,fj4,58.9236116000684,,52.98581980005838,56.48846000002232,False,4.0,['r'],True,0.24,0.4,0.4,2.0,1.0,0.9801625908629508,0.0009688829723073,wait_cost,0.0,3.0,,,fj4,2,2022-05-05_11h40.31.749,threat_forest,2021.2.3,59.99512838641763,False,28.0,0.3666666666666667,0.32222222222222224,-1.3400000000000003,-1.264135802469136,0,0,0.0,0.3881172334117871,0.0009688829723073,0.24,0.24,0.4,0.4,-1.0,-0.6800000000000002,3.32,3.32,1.0,1.0,-1.0,4.0,0,1,0,0,0.0009688829723073
1.0,0.0,1.0,0.0,1.0,0.0,1.0,0.0,,,,right,2.941875800024718,64.04839890007861,fj4,60.41855260008015,62.43333240004722,64.04839890007861,,True,3.0,['r'],False,0.3333333333333333,0.3333333333333333,0.0,0.0,1.0,0.5793801642856949,0.0381892809876543,unsucc_cost,1.0,1.0,62.43333240004722,,fj4,2,2022-05-05_11h40.31.749,threat_forest,2021.2.3,59.99512838641763,True,28.0,0.3666666666666667,0.32222222222222224,-1.3400000000000003,-1.264135802469136,1,1,1.0,1.0790474051170502,0.0381892809876543,0.3333333333333333,0.3333333333333333,0.3333333333333333,0.0,-2.220446049250313e-16,-2.220446049250313e-16,3.0,3.0,0.0,1.0,-1.0,3.0,0,1,1,1,0.0381892809876543
1.0,0.0,1.0,0.0,2.0,0.0,2.0,0.0,,,,right,1.2728347000665965,70.15927470009774,fj4,60.41855260008015,62.43333240004722,70.15927470009774,,True,1.0,['r'],False,0.3333333333333333,0.3333333333333333,0.0,0.0,1.0,0.5793801642856949,0.0343271604938271,unsucc_cost,1.0,0.0,69.02671110001393,,fj4,2,2022-05-05_11h40.31.749,threat_forest,2021.2.3,59.99512838641763,True,28.0,0.3666666666666667,0.32222222222222224,-1.3400000000000003,-1.264135802469136,1,1,1.0,0.24124646044998418,0.0343271604938271,1.0,0.3333333333333333,0.3333333333333333,0.0,-2.220446049250313e-16,-2.220446049250313e-16,0.9999999999999998,1.0,0.0,1.0,-1.0,1.0,1,1,1,1,0.625
2.0,0.0,2.0,0.0,0.0,0.0,0.0,0.0,75.56707250000909,79.06844960001763,,right,1.124320499948226,81.78229110001121,fj4,75.56707250000909,79.06844960001763,81.78229110001121,,True,5.0,['r'],False,0.5555555555555556,0.6666666666666666,0.1666666666666666,1.0,2.0,0.8929352898779306,0.0304669022621303,unsucc_cost,1.0,3.0,,,fj4,2,2022-05-05_11h40.31.749,threat_forest,2021.2.3,59.99512838641763,True,51.0,0.5555555555555556,0.46111111111111114,-0.2376543209876542,-0.7888271604938273,1,1,1.0,0.11717885312885132,0.0304669022621303,0.5555555555555556,0.5555555555555556,0.6666666666666666,0.1666666666666666,1.1666666666666667,1.0555555555555558,6.055555555555555,6.055555555555555,0.0,2.0,-1.0,5.0,0,1,1,1,0.0304669022621303
2.0,0.0,2.0,0.0,1.0,0.0,1.0,0.0,,,,,,86.08070240006782,fj4,86.08070240006782,,82.93075480009429,84.94519440003205,True,3.0,['r'],True,0.3950617283950617,0.4444444444444444,0.1111111111111111,1.0,2.0,0.8733423231021583,0.0825315026664987,wait_cost,0.0,2.0,84.94519440003205,,fj4,2,2022-05-05_11h40.31.749,threat_forest,2021.2.3,59.99512838641763,,51.0,0.5555555555555556,0.46111111111111114,-0.2376543209876542,-0.7888271604938273,1,0,,,0.0825315026664987,0.3950617283950617,0.3950617283950617,0.4444444444444444,0.1111111111111111,0.4444444444444444,0.4691358024691359,3.469135802469136,3.469135802469136,1.0,2.0,-1.0,3.0,0,1,0,1,0.0825315026664987
2.0,0.0,2.0,0.0,2.0,0.0,2.0,0.0,,,,left,1.1857750000199303,93.38769060000776,fj4,93.38769060000776,,82.93075480009429,84.94519440003205,True,2.0,['r'],True,0.3950617283950617,0.4444444444444444,0.1111111111111111,1.0,2.0,0.8733423231021583,-0.0295634017500299,unsucc_cost,0.0,0.0,91.10610319999978,,fj4,2,2022-05-05_11h40.31.749,threat_forest,2021.2.3,59.99512838641763,True,51.0,0.5555555555555556,0.46111111111111114,-0.2376543209876542,-0.7888271604938273,1,0,1.0,0.17039656927240188,-0.0295634017500299,0.3950617283950617,0.3950617283950617,0.4444444444444444,0.1111111111111111,0.4444444444444444,0.4691358024691359,2.469135802469136,2.469135802469136,1.0,2.0,-1.0,2.0,0,1,0,1,-0.0295634017500299
3.0,0.0,3.0,0.0,0.0,0.0,0.0,0.0,98.68462830001954,102.19575100007933,,left,1.2623661999823526,104.01155689998996,fj4,98.68462830001954,102.19575100007933,104.01155689998996,,False,5.0,['p'],False,0.2222222222222222,0.6666666666666666,0.6666666666666666,2.0,1.0,0.77250688571426,-0.0890555304009964,wait_cost,1.0,4.0,,,fj4,2,2022-05-05_11h40.31.749,threat_forest,2021.2.3,59.99512838641763,False,30.0,0.5833333333333333,0.5694444444444444,-1.25,-0.7438271604938271,0,0,0.0,0.23298789633908037,-0.0890555304009964,0.2222222222222222,0.2222222222222222,0.6666666666666666,0.6666666666666666,-1.0,-1.0,4.0,4.0,0.0,1.0,-1.0,5.0,0,1,0,0,-0.0890555304009964
3.0,0.0,3.0,0.0,1.0,0.0,1.0,0.0,,,,left,1.5111055999295786,111.08777980005834,fj4,98.68462830001954,102.19575100007933,111.08777980005834,,False,4.0,['p'],False,0.2222222222222222,0.6666666666666666,0.6666666666666666,2.0,1.0,0.77250688571426,-0.0642371530159275,wait_cost,1.0,3.0,107.30770900007336,,fj4,2,2022-05-05_11h40.31.749,threat_forest,2021.2.3,59.99512838641763,False,30.0,0.5833333333333333,0.5694444444444444,-1.25,-0.7438271604938271,0,0,0.0,0.4128415682937103,-0.0642371530159275,0.2222222222222222,0.2222222222222222,0.6666666666666666,0.6666666666666666,-1.0,-1.0,3.0,3.0,0.0,1.0,-1.0,4.0,0,1,0,0,-0.0642371530159275
3.0,0.0,3.0,0.0,2.0,0.0,2.0,0.0,,,,left,0.5763299000682309,117.73195200006012,fj4,117.73195200006012,,112.62005690007936,114.63413550006226,True,3.0,['p'],True,0.5,0.5,0.0,0.0,1.0,0.6309297535714574,0.1134527177640604,unsucc_cost,0.0,1.0,114.63413550006226,,fj4,2,2022-05-05_11h40.31.749,threat_forest,2021.2.3,59.99512838641763,True,30.0,0.5833333333333333,0.5694444444444444,-1.25,-0.7438271604938271,1,0,1.0,-0.5510750390670058,0.1134527177640604,0.5,0.5,0.5,0.0,0.5,0.5,3.5,3.5,1.0,1.0,-1.0,3.0,0,1,0,1,0.1134527177640604
3.0,0.0,3.0,0.0,3.0,0.0,3.0,0.0,,,,left,0.6984916999936104,121.19495480007026,fj4,121.19495480007026,,112.62005690007936,114.63413550006226,True,1.0,['p'],True,0.5,0.5,0.0,0.0,1.0,0.6309297535714574,0.1083140432098765,succ_gain,0.0,2.0,120.3454390000552,,fj4,2,2022-05-05_11h40.31.749,threat_forest,2021.2.3,59.99512838641763,True,30.0,0.5833333333333333,0.5694444444444444,-1.25,-0.7438271604938271,1,0,1.0,-0.3588319829704504,0.1083140432098765,1.0,0.5,0.5,0.0,0.5,0.5,1.5,1.5,1.0,1.0,-1.0,1.0,1,1,0,1,0.625
3.0,0.0,3.0,0.0,4.0,0.0,4.0,0.0,,,,left,2.599303299910389,126.09032850002404,fj4,126.09032850002404,,112.62005690007936,114.63413550006226,True,2.0,['p'],True,0.5,0.5,0.0,0.0,1.0,0.6309297535714574,0.1222993827160493,unsucc_cost,0.0,0.0,123.92540900001768,,fj4,2,2022-05-05_11h40.31.749,threat_forest,2021.2.3,59.99512838641763,True,30.0,0.5833333333333333,0.5694444444444444,-1.25,-0.7438271604938271,1,0,1.0,0.9552434475463919,0.1222993827160493,0.5,0.5,0.5,0.0,0.5,0.5,2.5,2.5,1.0,1.0,1.0,2.0,0,1,0,1,0.1222993827160493
4.0,0.0,4.0,0.0,0.0,0.0,0.0,0.0,134.14054050005507,137.64600170007907,,right,1.6990937000373378,140.1943607000867,fj4,140.1943607000867,,134.14054050005507,137.64600170007907,False,4.0,['p'],True,0.25,0.5,0.5,2.0,1.0,0.9463946303571862,0.0015300455080301,wait_cost,0.0,3.0,,,fj4,2,2022-05-05_11h40.31.749,threat_forest,2021.2.3,59.99512838641763,False,43.0,0.41666666666666663,0.49999999999999994,-1.375,-1.3125,0,0,0.0,0.5300949912793471,0.0015300455080301,0.25,0.25,0.5,0.5,-1.0,-0.75,3.25,3.25,1.0,1.0,-1.0,4.0,0,1,0,0,0.0015300455080301
4.0,0.0,4.0,0.0,1.0,0.0,1.0,0.0,,,,right,1.97056759998668,147.4870954999933,fj4,147.4870954999933,,134.14054050005507,137.64600170007907,False,3.0,['p'],True,0.25,0.5,0.5,2.0,1.0,0.9463946303571862,0.0077793451003086,wait_cost,0.0,2.0,143.94003789999988,,fj4,2,2022-05-05_11h40.31.749,threat_forest,2021.2.3,59.99512838641763,False,43.0,0.41666666666666663,0.49999999999999994,-1.375,-1.3125,0,0,0.0,0.6783216230714262,0.0077793451003086,0.25,0.25,0.5,0.5,-1.0,-0.75,2.25,2.25,1.0,1.0,-1.0,3.0,0,1,0,0,0.0077793451003086
4.0,0.0,4.0,0.0,2.0,0.0,2.0,0.0,,,,right,2.163957600016147,152.6990027000429,fj4,152.6990027000429,,134.14054050005507,137.64600170007907,False,2.0,['p'],True,0.25,0.5,0.5,2.0,1.0,0.9463946303571862,0.0095154562114198,wait_cost,0.0,1.0,151.4997007000493,,fj4,2,2022-05-05_11h40.31.749,threat_forest,2021.2.3,59.99512838641763,False,43.0,0.41666666666666663,0.49999999999999994,-1.375,-1.3125,0,0,0.0,0.7719387674540885,0.0095154562114198,0.25,0.25,0.5,0.5,-1.0,-0.75,1.25,1.25,1.0,1.0,-1.0,2.0,0,1,0,0,0.0095154562114198
4.0,0.0,4.0,0.0,3.0,0.0,3.0,0.0,,,,right,1.1502058000769466,157.57807630009484,fj4,154.8802020000294,156.8946443999885,157.57807630009484,,True,1.0,['p'],False,0.3333333333333333,0.3333333333333333,0.0,0.0,1.0,0.5793801642856949,0.0413532021604937,unsucc_cost,1.0,0.0,156.8946443999885,,fj4,2,2022-05-05_11h40.31.749,threat_forest,2021.2.3,59.99512838641763,True,43.0,0.41666666666666663,0.49999999999999994,-1.375,-1.3125,1,0,1.0,0.13994088295298776,0.0413532021604937,1.0,0.3333333333333333,0.3333333333333333,0.0,-2.220446049250313e-16,-2.220446049250313e-16,0.9999999999999998,1.0,0.0,1.0,-1.0,1.0,1,1,0,1,0.625
5.0,0.0,5.0,0.0,0.0,0.0,0.0,0.0,164.51580090005882,168.01235510001425,,right,1.0935347999911755,171.53163139999378,fj4,164.51580090005882,168.01235510001425,171.53163139999378,,True,4.0,['p'],False,0.4166666666666667,0.5,0.1666666666666666,1.0,1.0,0.9358932809493992,0.0414014973705713,unsucc_cost,1.0,2.0,,,fj4,2,2022-05-05_11h40.31.749,threat_forest,2021.2.3,59.99512838641763,True,16.0,0.4,0.4083333333333333,-1.1033333333333333,-1.2391666666666667,1,1,1.0,0.08941538503723939,0.0414014973705713,0.4166666666666667,0.4166666666666667,0.5,0.1666666666666666,2.220446049250313e-16,0.08333333333333348,4.083333333333334,4.083333333333334,0.0,1.0,-1.0,4.0,0,1,1,1,0.0414014973705713
5.0,0.0,5.0,0.0,1.0,0.0,1.0,0.0,,,,right,1.8530104999663308,178.06127970002126,fj4,178.06127970002126,,172.6469643000746,174.66135800001211,False,2.0,['p'],True,0.27,0.3,0.1,1.0,1.0,0.7963326591781347,-0.000610685306858,wait_cost,0.0,1.0,174.66135800001211,,fj4,2,2022-05-05_11h40.31.749,threat_forest,2021.2.3,59.99512838641763,False,16.0,0.4,0.4083333333333333,-1.1033333333333333,-1.2391666666666667,0,0,0.0,0.6168116137557764,-0.000610685306858,0.27,0.27,0.3,0.1,-0.3999999999999999,-0.29000000000000004,1.71,1.71,1.0,1.0,-1.0,2.0,0,1,0,0,-0.000610685306858
5.0,0.0,5.0,0.0,2.0,0.0,2.0,0.0,,,,left,1.3819707999937236,184.2028912000824,fj4,184.2028912000824,,172.6469643000746,174.66135800001211,True,1.0,['p'],True,0.27,0.3,0.1,1.0,1.0,0.7963326591781347,0.0415481562499999,unsucc_cost,0.0,0.0,181.9545798000181,,fj4,2,2022-05-05_11h40.31.749,threat_forest,2021.2.3,59.99512838641763,True,16.0,0.4,0.4083333333333333,-1.1033333333333333,-1.2391666666666667,0,0,1.0,0.3235105963188781,0.0415481562499999,1.0,0.27,0.3,0.1,-0.3999999999999999,-0.29000000000000004,0.71,1.0,1.0,1.0,-1.0,1.0,1,1,0,0,0.625
6.0,0.0,6.0,0.0,0.0,0.0,0.0,0.0,190.42329430009704,193.92671160004105,,left,1.4264020000118762,197.5259365000529,fj4,197.5259365000529,,190.42329430009704,193.92671160004105,True,4.0,['r'],True,0.28125,0.375,0.25,2.0,2.0,0.9634951148421658,-0.0007636143604934,fight_cost,0.0,1.0,,,fj4,2,2022-05-05_11h40.31.749,threat_forest,2021.2.3,59.99512838641763,True,10.0,0.35416666666666663,0.3770833333333333,-0.8958333333333335,-0.9995833333333334,0,0,1.0,0.35515518970537613,-0.0007636143604934,0.28125,0.28125,0.375,0.25,-0.25,-0.125,3.875,3.875,1.0,2.0,-1.0,4.0,0,1,0,0,-0.0007636143604934
6.0,0.0,6.0,0.0,1.0,0.0,1.0,0.0,,,,left,0.6935199000872672,204.11777370003983,fj4,204.11777370003983,,190.42329430009704,193.92671160004105,True,1.0,['r'],True,0.28125,0.375,0.25,2.0,2.0,0.9634951148421658,0.077291489061382,succ_gain,0.0,3.0,200.98682900005952,,fj4,2,2022-05-05_11h40.31.749,threat_forest,2021.2.3,59.99512838641763,True,10.0,0.35416666666666663,0.3770833333333333,-0.8958333333333335,-0.9995833333333334,0,0,1.0,-0.36597534448787855,0.077291489061382,1.0,0.28125,0.375,0.25,-0.25,-0.125,0.875,1.0,1.0,2.0,-1.0,1.0,1,1,0,0,0.625
6.0,0.0,6.0,0.0,2.0,0.0,2.0,0.0,,,,,,208.06393370009027,fj4,204.83367459999863,206.84793430007997,208.06393370009027,,True,3.0,['r'],False,0.3333333333333333,0.3333333333333333,0.0,0.0,2.0,0.5793801642856949,0.1435199078218436,wait_cost,1.0,2.0,206.84793430007997,,fj4,2,2022-05-05_11h40.31.749,threat_forest,2021.2.3,59.99512838641763,,10.0,0.35416666666666663,0.3770833333333333,-0.8958333333333335,-0.9995833333333334,1,0,,,0.1435199078218436,0.3333333333333333,0.3333333333333333,0.3333333333333333,0.0,0.33333333333333315,0.33333333333333315,3.333333333333333,3.333333333333333,0.0,2.0,1.0,3.0,0,1,0,1,0.1435199078218436
6.0,0.0,6.0,0.0,3.0,0.0,3.0,0.0,,,,right,0.5326358999591321,216.8888915000716,fj4,204.83367459999863,206.84793430007997,216.8888915000716,,True,2.0,['r'],False,0.3333333333333333,0.3333333333333333,0.0,0.0,2.0,0.5793801642856949,0.0278132403338395,unsucc_cost,1.0,0.0,213.09218090004288,,fj4,2,2022-05-05_11h40.31.749,threat_forest,2021.2.3,59.99512838641763,True,10.0,0.35416666666666663,0.3770833333333333,-0.8958333333333335,-0.9995833333333334,1,0,1.0,-0.6299172027685347,0.0278132403338395,0.3333333333333333,0.3333333333333333,0.3333333333333333,0.0,0.33333333333333315,0.33333333333333315,2.333333333333333,2.333333333333333,0.0,2.0,-1.0,2.0,0,1,0,1,0.0278132403338395
7.0,0.0,7.0,0.0,0.0,0.0,0.0,0.0,222.8923693000106,226.39634460001253,,right,1.1298601999878883,228.278386500082,fj4,222.8923693000106,226.39634460001253,228.278386500082,,True,4.0,['p'],False,0.4444444444444445,0.6666666666666666,0.3333333333333333,1.0,1.0,0.9656336071428248,0.0532959044563323,fight_cost,1.0,1.0,,,fj4,2,2022-05-05_11h40.31.749,threat_forest,2021.2.3,59.99512838641763,True,23.0,0.43333333333333335,0.39375,-1.3600000000000003,-1.127916666666667,1,1,1.0,0.12209390824581398,0.0532959044563323,0.4444444444444445,0.4444444444444445,0.6666666666666666,0.3333333333333333,0.0,0.0,4.0,4.0,0.0,1.0,-1.0,4.0,0,1,1,1,0.0532959044563323
7.0,0.0,7.0,0.0,1.0,0.0,1.0,0.0,,,,left,2.43165919999592,233.6583571000956,fj4,233.6583571000956,,229.42733219999357,231.4416016000323,True,1.0,['p'],True,0.16,0.2,0.2,2.0,1.0,0.8198746470064713,0.0109181967139153,succ_gain,0.0,2.0,231.4416016000323,,fj4,2,2022-05-05_11h40.31.749,threat_forest,2021.2.3,59.99512838641763,True,23.0,0.43333333333333335,0.39375,-1.3600000000000003,-1.127916666666667,0,0,1.0,0.8885738227039484,0.0109181967139153,1.0,0.16,0.2,0.2,-1.0,-0.7200000000000004,0.2799999999999996,1.0,1.0,1.0,-1.0,1.0,1,1,0,0,0.625
7.0,0.0,7.0,0.0,2.0,0.0,2.0,0.0,,,,right,1.2740156999789178,238.78521560004447,fj4,238.78521560004447,,229.42733219999357,231.4416016000323,False,2.0,['p'],True,0.16,0.2,0.2,2.0,1.0,0.8198746470064713,-0.0144702234415484,wait_cost,0.0,1.0,238.13537640008144,,fj4,2,2022-05-05_11h40.31.749,threat_forest,2021.2.3,59.99512838641763,False,23.0,0.43333333333333335,0.39375,-1.3600000000000003,-1.127916666666667,0,0,0.0,0.24217388044838625,-0.0144702234415484,0.16,0.16,0.2,0.2,-1.0,-0.7200000000000004,1.2799999999999996,1.2799999999999996,1.0,1.0,1.0,2.0,0,1,0,0,-0.0144702234415484
7.0,0.0,7.0,0.0,3.0,0.0,3.0,0.0,,,,left,1.3803590999450537,243.3809670000337,fj4,243.3809670000337,,229.42733219999357,231.4416016000323,True,1.0,['p'],True,0.16,0.2,0.2,2.0,1.0,0.8198746470064713,0.0247586063100135,unsucc_cost,0.0,0.0,242.0983189000981,,fj4,2,2022-05-05_11h40.31.749,threat_forest,2021.2.3,59.99512838641763,True,23.0,0.43333333333333335,0.39375,-1.3600000000000003,-1.127916666666667,0,0,1.0,0.32234368266993874,0.0247586063100135,1.0,0.16,0.2,0.2,-1.0,-0.7200000000000004,0.2799999999999996,1.0,1.0,1.0,-1.0,1.0,1,1,0,0,0.625
8.0,0.0,8.0,0.0,0.0,0.0,0.0,0.0,248.5142150000902,252.02243560005445,,right,1.746448300080374,254.4538448000094,fj4,248.5142150000902,252.02243560005445,254.4538448000094,,True,4.0,['r'],False,0.5,0.5,0.0,0.0,1.0,0.6309297535714574,0.0805026556124999,unsucc_cost,1.0,2.0,,,fj4,2,2022-05-05_11h40.31.749,threat_forest,2021.2.3,59.99512838641763,True,24.0,0.55,0.4916666666666667,-0.9100000000000001,-1.1350000000000002,1,1,1.0,0.557584182811356,0.0805026556124999,0.5,0.5,0.5,0.0,0.5,0.5,4.5,4.5,0.0,1.0,-1.0,4.0,0,1,1,1,0.0805026556124999
8.0,0.0,8.0,0.0,1.0,0.0,1.0,0.0,,,,right,2.2675480999751016,260.46493470005225,fj4,260.46493470005225,,256.21886010002345,258.2333918000804,False,2.0,['r'],True,0.36,0.6,0.4,2.0,1.0,0.9801625908629508,0.0040319874499998,wait_cost,0.0,1.0,258.2333918000804,,fj4,2,2022-05-05_11h40.31.749,threat_forest,2021.2.3,59.99512838641763,False,24.0,0.55,0.4916666666666667,-0.9100000000000001,-1.1350000000000002,0,0,0.0,0.8186991155606019,0.0040319874499998,0.36,0.36,0.6,0.4,-0.40000000000000036,-0.3200000000000003,1.6799999999999997,1.6799999999999997,1.0,1.0,-1.0,2.0,0,1,0,0,0.0040319874499998
8.0,0.0,8.0,0.0,2.0,0.0,2.0,0.0,,,,left,1.3822441999800503,267.4086989000207,fj4,267.4086989000207,,256.21886010002345,258.2333918000804,True,1.0,['r'],True,0.36,0.6,0.4,2.0,1.0,0.9801625908629508,0.083914875,unsucc_cost,0.0,0.0,264.77723440004047,,fj4,2,2022-05-05_11h40.31.749,threat_forest,2021.2.3,59.99512838641763,True,24.0,0.55,0.4916666666666667,-0.9100000000000001,-1.1350000000000002,0,0,1.0,0.3237084101555158,0.083914875,1.0,0.36,0.6,0.4,-0.40000000000000036,-0.3200000000000003,0.6799999999999997,1.0,1.0,1.0,-1.0,1.0,1,1,0,0,0.625
9.0,0.0,9.0,0.0,0.0,0.0,0.0,0.0,273.5484155000886,277.04906730004586,,right,1.9853258000221103,279.6007424000418,fj4,279.6007424000418,,273.5484155000886,277.04906730004586,False,4.0,['p'],True,0.16,0.2,0.2,2.0,2.0,0.8198746470064713,0.0047596004754687,wait_cost,0.0,3.0,,,fj4,2,2022-05-05_11h40.31.749,threat_forest,2021.2.3,59.99512838641763,False,8.0,0.35,0.45,-1.5300000000000002,-1.2200000000000002,0,0,0.0,0.6857830316646424,0.0047596004754687,0.16,0.16,0.2,0.2,-0.8000000000000003,-0.5600000000000003,3.4399999999999995,3.4399999999999995,1.0,2.0,-1.0,4.0,0,1,0,0,0.0047596004754687
9.0,0.0,9.0,0.0,1.0,0.0,1.0,0.0,,,,right,1.51413629995659,284.40995070000645,fj4,281.6119644000428,283.62626530008856,284.40995070000645,,True,3.0,['p'],False,0.25,0.5,0.5,1.0,2.0,0.9463946303571862,0.0267718626953125,succ_gain,1.0,5.0,283.62626530008856,,fj4,2,2022-05-05_11h40.31.749,threat_forest,2021.2.3,59.99512838641763,True,8.0,0.35,0.45,-1.5300000000000002,-1.2200000000000002,0,0,1.0,0.41484517735453147,0.0267718626953125,0.25,0.25,0.5,0.5,-0.5,-0.5,2.5,2.5,0.0,2.0,-1.0,3.0,0,1,0,0,0.0267718626953125
9.0,0.0,9.0,0.0,2.0,0.0,2.0,0.0,,,,right,1.408258400042541,289.1880197999999,fj4,281.6119644000428,283.62626530008856,289.1880197999999,,True,5.0,['p'],False,0.25,0.5,0.5,1.0,2.0,0.9463946303571862,0.02289929765625,unsucc_cost,1.0,3.0,287.9555672000861,,fj4,2,2022-05-05_11h40.31.749,threat_forest,2021.2.3,59.99512838641763,True,8.0,0.35,0.45,-1.5300000000000002,-1.2200000000000002,0,0,1.0,0.34235376365509607,0.02289929765625,0.25,0.25,0.5,0.5,-0.5,-0.5,4.5,4.5,0.0,2.0,1.0,5.0,0,1,0,0,0.02289929765625
9.0,0.0,9.0,0.0,3.0,0.0,3.0,0.0,,,,right,2.056611099978909,295.7848458000226,fj4,295.7848458000226,,290.6199776000576,292.6345317000523,False,3.0,['p'],True,0.16,0.2,0.2,2.0,2.0,0.8198746470064713,-0.0286352800000001,wait_cost,0.0,2.0,292.6345317000523,,fj4,2,2022-05-05_11h40.31.749,threat_forest,2021.2.3,59.99512838641763,False,8.0,0.35,0.45,-1.5300000000000002,-1.2200000000000002,0,0,0.0,0.7210595310457424,-0.0286352800000001,0.16,0.16,0.2,0.2,-0.8000000000000003,-0.5600000000000003,2.4399999999999995,2.4399999999999995,1.0,2.0,-1.0,3.0,0,1,0,0,-0.0286352800000001
9.0,0.0,9.0,0.0,4.0,0.0,4.0,0.0,,,,right,1.6452298000222072,301.5266335000051,fj4,301.5266335000051,,290.6199776000576,292.6345317000523,False,2.0,['p'],True,0.16,0.2,0.2,2.0,2.0,0.8198746470064713,-0.045,wait_cost,0.0,1.0,299.87779699999373,,fj4,2,2022-05-05_11h40.31.749,threat_forest,2021.2.3,59.99512838641763,False,8.0,0.35,0.45,-1.5300000000000002,-1.2200000000000002,0,0,0.0,0.49788007052288097,-0.045,0.16,0.16,0.2,0.2,-0.8000000000000003,-0.5600000000000003,1.4399999999999997,1.4399999999999997,1.0,2.0,-1.0,2.0,0,1,0,0,-0.045
9.0,0.0,9.0,0.0,5.0,0.0,5.0,0.0,,,,right,1.2291703999508172,307.28809889999684,fj4,303.1917199000018,305.20643140003085,307.28809889999684,,True,1.0,['p'],False,0.25,0.5,0.5,1.0,2.0,0.9463946303571862,0.25,fight_cost,1.0,0.0,305.20643140003085,,fj4,2,2022-05-05_11h40.31.749,threat_forest,2021.2.3,59.99512838641763,True,8.0,0.35,0.45,-1.5300000000000002,-1.2200000000000002,0,0,1.0,0.20633947024133859,0.25,1.0,0.25,0.5,0.5,-0.5,-0.5,0.5,1.0,0.0,2.0,-1.0,1.0,1,1,0,0,0.625
10.0,0.0,10.0,0.0,0.0,0.0,0.0,0.0,312.78995650005527,316.2958523000125,,right,1.4897546999854967,318.41135170008056,fj4,312.78995650005527,316.2958523000125,318.41135170008056,,True,5.0,['p'],False,0.3333333333333333,0.5,0.3333333333333333,2.0,2.0,1.0,-0.0164991778692271,unsucc_cost,1.0,3.0,,,fj4,2,2022-05-05_11h40.31.749,threat_forest,2021.2.3,59.99512838641763,True,2.0,0.45,0.4,-0.7,-1.1150000000000002,1,0,1.0,0.39861147552199955,-0.0164991778692271,0.3333333333333333,0.3333333333333333,0.5,0.3333333333333333,0.0,0.0,5.0,5.0,0.0,2.0,-1.0,5.0,0,1,0,1,-0.0164991778692271
10.0,0.0,10.0,0.0,1.0,0.0,1.0,0.0,,,,left,1.333528499933891,323.8890100000426,fj4,323.8890100000426,,319.9261275000172,321.9405018000398,True,3.0,['p'],True,0.4,0.4,0.0,0.0,2.0,0.6126016192893442,0.1373607901234569,succ_gain,0.0,5.0,321.9405018000398,,fj4,2,2022-05-05_11h40.31.749,threat_forest,2021.2.3,59.99512838641763,True,2.0,0.45,0.4,-0.7,-1.1150000000000002,1,0,1.0,0.2878284366904314,0.1373607901234569,0.4,0.4,0.4,0.0,0.6000000000000001,0.6000000000000001,3.6,3.6,1.0,2.0,-1.0,3.0,0,1,0,1,0.1373607901234569
10.0,0.0,10.0,0.0,2.0,0.0,2.0,0.0,,,,right,1.4316166000207886,329.5337661000667,fj4,329.5337661000667,,319.9261275000172,321.9405018000398,False,5.0,['p'],True,0.4,0.4,0.0,0.0,2.0,0.6126016192893442,0.0913229629629629,wait_cost,0.0,4.0,327.2688571000472,,fj4,2,2022-05-05_11h40.31.749,threat_forest,2021.2.3,59.99512838641763,False,2.0,0.45,0.4,-0.7,-1.1150000000000002,1,0,0.0,0.3588042952747429,0.0913229629629629,0.4,0.4,0.4,0.0,0.6000000000000001,0.6000000000000001,5.6,5.6,1.0,2.0,1.0,5.0,0,1,0,1,0.0913229629629629
10.0,0.0,10.0,0.0,3.0,0.0,3.0,0.0,,,,left,2.558357000001706,335.1489475000417,fj4,330.982408800046,332.9967955000466,335.1489475000417,,False,4.0,['p'],False,0.3333333333333333,0.5,0.3333333333333333,2.0,2.0,1.0,-0.0109382716049383,wait_cost,1.0,3.0,332.9967955000466,,fj4,2,2022-05-05_11h40.31.749,threat_forest,2021.2.3,59.99512838641763,False,2.0,0.45,0.4,-0.7,-1.1150000000000002,1,0,0.0,0.9393652555773618,-0.0109382716049383,0.3333333333333333,0.3333333333333333,0.5,0.3333333333333333,0.0,0.0,4.0,4.0,0.0,2.0,-1.0,4.0,0,1,0,1,-0.0109382716049383
10.0,0.0,10.0,0.0,4.0,0.0,4.0,0.0,,,,,,343.1876925000688,fj4,343.1876925000688,,337.7260111999931,339.7404626000207,True,3.0,['p'],True,0.4,0.4,0.0,0.0,2.0,0.6126016192893442,0.2366666666666667,wait_cost,0.0,2.0,339.7404626000207,,fj4,2,2022-05-05_11h40.31.749,threat_forest,2021.2.3,59.99512838641763,,2.0,0.45,0.4,-0.7,-1.1150000000000002,1,0,,,0.2366666666666667,0.4,0.4,0.4,0.0,0.6000000000000001,0.6000000000000001,3.6,3.6,1.0,2.0,-1.0,3.0,0,1,0,1,0.2366666666666667
10.0,0.0,10.0,0.0,5.0,0.0,5.0,0.0,,,,,,349.5818527000956,fj4,349.5818527000956,,337.7260111999931,339.7404626000207,True,2.0,['p'],True,0.4,0.4,0.0,0.0,2.0,0.6126016192893442,0.0333333333333333,wait_cost,0.0,1.0,348.21588790009264,,fj4,2,2022-05-05_11h40.31.749,threat_forest,2021.2.3,59.99512838641763,,2.0,0.45,0.4,-0.7,-1.1150000000000002,1,0,,,0.0333333333333333,0.4,0.4,0.4,0.0,0.6000000000000001,0.6000000000000001,2.6,2.6,1.0,2.0,-1.0,2.0,0,1,0,1,0.0333333333333333
10.0,0.0,10.0,0.0,6.0,0.0,6.0,0.0,,,,left,1.085864800028503,357.3582190000452,fj4,357.3582190000452,,337.7260111999931,339.7404626000207,True,1.0,['p'],True,0.4,0.4,0.0,0.0,2.0,0.6126016192893442,0.4,unsucc_cost,0.0,0.0,354.6099799000658,,fj4,2,2022-05-05_11h40.31.749,threat_forest,2021.2.3,59.99512838641763,True,2.0,0.45,0.4,-0.7,-1.1150000000000002,1,0,1.0,0.0823767202336992,0.4,1.0,0.4,0.4,0.0,0.6000000000000001,0.6000000000000001,1.6,1.6,1.0,2.0,-1.0,1.0,1,1,0,1,0.625
11.0,0.0,11.0,0.0,0.0,0.0,0.0,0.0,362.6763128000312,366.1825029000174,,right,2.425129499984905,368.5142957000062,fj4,362.6763128000312,366.1825029000174,368.5142957000062,,True,4.0,['p'],False,0.5,0.5,0.0,0.0,1.0,0.6309297535714574,0.0773127614393294,succ_gain,1.0,5.0,,,fj4,2,2022-05-05_11h40.31.749,threat_forest,2021.2.3,59.99512838641763,True,35.0,0.5357142857142857,0.4928571428571429,-0.7806122448979592,-0.7403061224489795,1,1,1.0,0.8858849250192384,0.0773127614393294,0.5,0.5,0.5,0.0,0.5,0.5,4.5,4.5,0.0,1.0,-1.0,4.0,0,1,1,1,0.0773127614393294
11.0,0.0,11.0,0.0,1.0,0.0,1.0,0.0,,,,right,1.5352941999444738,374.2456662000623,fj4,374.2456662000623,,370.9616968000773,372.9761628000997,False,5.0,['p'],True,0.4081632653061224,0.5714285714285714,0.2857142857142857,2.0,1.0,0.9885754083994552,0.0146353887389425,wait_cost,0.0,4.0,372.9761628000997,,fj4,2,2022-05-05_11h40.31.749,threat_forest,2021.2.3,59.99512838641763,False,35.0,0.5357142857142857,0.4928571428571429,-0.7806122448979592,-0.7403061224489795,0,0,0.0,0.42872202387611047,0.0146353887389425,0.4081632653061224,0.4081632653061224,0.5714285714285714,0.2857142857142857,-0.1428571428571428,-0.061224489795918435,4.938775510204081,4.938775510204081,1.0,1.0,1.0,5.0,0,1,0,0,0.0146353887389425
11.0,0.0,11.0,0.0,2.0,0.0,2.0,0.0,,,,right,2.045662899967283,378.871100599994,fj4,378.871100599994,,370.9616968000773,372.9761628000997,False,4.0,['p'],True,0.4081632653061224,0.5714285714285714,0.2857142857142857,2.0,1.0,0.9885754083994552,0.0111203127993457,wait_cost,0.0,3.0,377.8215852000285,,fj4,2,2022-05-05_11h40.31.749,threat_forest,2021.2.3,59.99512838641763,False,35.0,0.5357142857142857,0.4928571428571429,-0.7806122448979592,-0.7403061224489795,0,0,0.0,0.7157218934306289,0.0111203127993457,0.4081632653061224,0.4081632653061224,0.5714285714285714,0.2857142857142857,-0.1428571428571428,-0.061224489795918435,3.9387755102040813,3.9387755102040813,1.0,1.0,-1.0,4.0,0,1,0,0,0.0111203127993457
11.0,0.0,11.0,0.0,3.0,0.0,3.0,0.0,,,,left,1.0544969000620767,386.36411090008914,fj4,386.36411090008914,,370.9616968000773,372.9761628000997,True,3.0,['p'],True,0.4081632653061224,0.5714285714285714,0.2857142857142857,2.0,1.0,0.9885754083994552,0.0577532267592585,fight_cost,0.0,0.0,382.9501607000129,,fj4,2,2022-05-05_11h40.31.749,threat_forest,2021.2.3,59.99512838641763,True,35.0,0.5357142857142857,0.4928571428571429,-0.7806122448979592,-0.7403061224489795,0,0,1.0,0.05306378120935251,0.0577532267592585,0.4081632653061224,0.4081632653061224,0.5714285714285714,0.2857142857142857,-0.1428571428571428,-0.061224489795918435,2.9387755102040813,2.9387755102040813,1.0,1.0,-1.0,3.0,0,1,0,0,0.0577532267592585
12.0,0.0,12.0,0.0,0.0,0.0,0.0,0.0,390.8698589000851,394.3667387000751,,,,396.7879818000365,fj4,390.8698589000851,394.3667387000751,396.7879818000365,,True,5.0,['r'],False,0.4444444444444445,0.6666666666666666,0.3333333333333333,1.0,2.0,0.9656336071428248,0.0253949986159629,wait_cost,1.0,4.0,,,fj4,2,2022-05-05_11h40.31.749,threat_forest,2021.2.3,59.99512838641763,,15.0,0.4833333333333333,0.5095238095238095,-0.8977777777777778,-0.8391950113378686,1,0,,,0.0253949986159629,0.4444444444444445,0.4444444444444445,0.6666666666666666,0.3333333333333333,0.6666666666666665,0.4444444444444444,5.444444444444445,5.444444444444445,0.0,2.0,-1.0,5.0,0,1,0,1,0.0253949986159629
12.0,0.0,12.0,0.0,1.0,0.0,1.0,0.0,,,,left,1.2397047999547794,405.4505114000058,fj4,405.4505114000058,,399.80138580000494,401.8158005999867,True,4.0,['r'],True,0.24,0.3,0.2,2.0,2.0,0.9003120349047065,0.023182399409304,unsucc_cost,0.0,2.0,401.8158005999867,,fj4,2,2022-05-05_11h40.31.749,threat_forest,2021.2.3,59.99512838641763,True,15.0,0.4833333333333333,0.5095238095238095,-0.8977777777777778,-0.8391950113378686,0,0,1.0,0.21487328672248446,0.023182399409304,0.24,0.24,0.3,0.2,-0.3999999999999999,-0.24,3.76,3.76,1.0,2.0,-1.0,4.0,0,1,0,0,0.023182399409304
12.0,0.0,12.0,0.0,2.0,0.0,2.0,0.0,,,,right,1.157298700069077,411.8067389000207,fj4,406.7288537999848,408.74266710004304,411.8067389000207,,True,2.0,['r'],False,0.4444444444444445,0.6666666666666666,0.3333333333333333,1.0,2.0,0.9656336071428248,0.0768585517248386,unsucc_cost,1.0,0.0,408.74266710004304,,fj4,2,2022-05-05_11h40.31.749,threat_forest,2021.2.3,59.99512838641763,True,15.0,0.4833333333333333,0.5095238095238095,-0.8977777777777778,-0.8391950113378686,1,0,1.0,0.14608858262670968,0.0768585517248386,0.4444444444444445,0.4444444444444445,0.6666666666666666,0.3333333333333333,0.6666666666666665,0.4444444444444444,2.4444444444444446,2.4444444444444446,0.0,2.0,-1.0,2.0,0,1,0,1,0.0768585517248386
13.0,0.0,13.0,0.0,0.0,0.0,0.0,0.0,418.1761627000524,421.6805592000019,,right,1.279919399996288,423.096741000074,fj4,418.1761627000524,421.6805592000019,423.096741000074,,True,4.0,['p'],False,0.375,0.5,0.25,1.0,1.0,0.9850568223215076,0.0300347076439857,succ_gain,1.0,5.0,,,fj4,2,2022-05-05_11h40.31.749,threat_forest,2021.2.3,59.99512838641763,True,50.0,0.35,0.41666666666666663,-1.2625000000000002,-1.080138888888889,0,0,1.0,0.24679710719601056,0.0300347076439857,0.375,0.375,0.5,0.25,-0.25,-0.125,3.875,3.875,0.0,1.0,-1.0,4.0,0,1,0,0,0.0300347076439857
13.0,0.0,13.0,0.0,1.0,0.0,1.0,0.0,,,,left,1.5185935000190511,426.97641930007376,fj4,418.1761627000524,421.6805592000019,426.97641930007376,,False,5.0,['p'],False,0.375,0.5,0.25,1.0,1.0,0.9850568223215076,0.0513720258712768,wait_cost,1.0,4.0,426.4095010000746,,fj4,2,2022-05-05_11h40.31.749,threat_forest,2021.2.3,59.99512838641763,False,50.0,0.35,0.41666666666666663,-1.2625000000000002,-1.080138888888889,0,0,0.0,0.41778457754224874,0.0513720258712768,0.375,0.375,0.5,0.25,-0.25,-0.125,4.875,4.875,0.0,1.0,1.0,5.0,0,1,0,0,0.0513720258712768
13.0,0.0,13.0,0.0,2.0,0.0,2.0,0.0,,,,right,2.174237300059758,432.7238711999962,fj4,432.7238711999962,,428.52458940004,430.5389347000746,False,4.0,['p'],True,0.2,0.2,0.0,0.0,1.0,0.4554859150035951,0.0001819946289063,wait_cost,0.0,3.0,430.5389347000746,,fj4,2,2022-05-05_11h40.31.749,threat_forest,2021.2.3,59.99512838641763,False,50.0,0.35,0.41666666666666663,-1.2625000000000002,-1.080138888888889,0,0,0.0,0.7766779364035326,0.0001819946289063,0.2,0.2,0.2,0.0,-0.40000000000000013,-0.40000000000000013,3.5999999999999996,3.5999999999999996,1.0,1.0,-1.0,4.0,0,1,0,0,0.0001819946289063
13.0,0.0,13.0,0.0,3.0,0.0,3.0,0.0,,,,right,2.329026099992916,438.5823699000757,fj4,438.5823699000757,,428.52458940004,430.5389347000746,False,3.0,['p'],True,0.2,0.2,0.0,0.0,1.0,0.4554859150035951,0.0417968749999999,wait_cost,0.0,2.0,436.9329611000139,,fj4,2,2022-05-05_11h40.31.749,threat_forest,2021.2.3,59.99512838641763,False,50.0,0.35,0.41666666666666663,-1.2625000000000002,-1.080138888888889,0,0,0.0,0.8454501973627758,0.0417968749999999,0.2,0.2,0.2,0.0,-0.40000000000000013,-0.40000000000000013,2.5999999999999996,2.5999999999999996,1.0,1.0,-1.0,3.0,0,1,0,0,0.0417968749999999
13.0,0.0,13.0,0.0,4.0,0.0,4.0,0.0,,,,left,2.6925348999211565,445.8919614000479,fj4,440.9297290000832,442.9440461000195,445.8919614000479,,False,2.0,['p'],False,0.375,0.5,0.25,1.0,1.0,0.9850568223215076,0.07591796875,wait_cost,1.0,1.0,442.9440461000195,,fj4,2,2022-05-05_11h40.31.749,threat_forest,2021.2.3,59.99512838641763,False,50.0,0.35,0.41666666666666663,-1.2625000000000002,-1.080138888888889,0,0,0.0,0.9904830918664098,0.07591796875,0.375,0.375,0.5,0.25,-0.25,-0.125,1.875,1.875,0.0,1.0,-1.0,2.0,0,1,0,0,0.07591796875
13.0,0.0,13.0,0.0,5.0,0.0,5.0,0.0,,,,right,1.046226799953729,452.9683505999856,fj4,440.9297290000832,442.9440461000195,452.9683505999856,,True,1.0,['p'],False,0.375,0.5,0.25,1.0,1.0,0.9850568223215076,0.12421875,fight_cost,1.0,0.0,450.6201893000398,,fj4,2,2022-05-05_11h40.31.749,threat_forest,2021.2.3,59.99512838641763,True,50.0,0.35,0.41666666666666663,-1.2625000000000002,-1.080138888888889,0,0,1.0,0.04519016809896802,0.12421875,1.0,0.375,0.5,0.25,-0.25,-0.125,0.875,1.0,0.0,1.0,-1.0,1.0,1,1,0,0,0.625
14.0,0.0,14.0,0.0,0.0,0.0,0.0,0.0,459.4709378000116,462.9753265000181,,left,1.708861600025557,463.87865160009824,fj4,459.4709378000116,462.9753265000181,463.87865160009824,,False,5.0,['p'],False,0.16,0.2,0.2,2.0,1.0,0.8198746470064713,-0.0074793948520252,wait_cost,1.0,4.0,,,fj4,2,2022-05-05_11h40.31.749,threat_forest,2021.2.3,59.99512838641763,False,71.0,0.35,0.35,-1.7350000000000003,-1.4987500000000002,0,0,0.0,0.5358274178380944,-0.0074793948520252,0.16,0.16,0.2,0.2,-1.0,-0.7200000000000004,4.279999999999999,4.279999999999999,0.0,1.0,-1.0,5.0,0,1,0,0,-0.0074793948520252
14.0,0.0,14.0,0.0,1.0,0.0,1.0,0.0,,,,left,2.357351699960418,470.8687505000271,fj4,459.4709378000116,462.9753265000181,470.8687505000271,,False,4.0,['p'],False,0.16,0.2,0.2,2.0,1.0,0.8198746470064713,-0.0029947769503126,wait_cost,1.0,3.0,467.6210726000136,,fj4,2,2022-05-05_11h40.31.749,threat_forest,2021.2.3,59.99512838641763,False,71.0,0.35,0.35,-1.7350000000000003,-1.4987500000000002,0,0,0.0,0.8575388279096826,-0.0029947769503126,0.16,0.16,0.2,0.2,-1.0,-0.7200000000000004,3.2799999999999994,3.2799999999999994,0.0,1.0,-1.0,4.0,0,1,0,0,-0.0029947769503126
14.0,0.0,14.0,0.0,2.0,0.0,2.0,0.0,,,,left,1.0629754000110552,477.7286842000904,fj4,459.4709378000116,462.9753265000181,477.7286842000904,,False,3.0,['p'],False,0.16,0.2,0.2,2.0,1.0,0.8198746470064713,-0.0032775458375002,wait_cost,1.0,2.0,475.2638147000689,,fj4,2,2022-05-05_11h40.31.749,threat_forest,2021.2.3,59.99512838641763,False,71.0,0.35,0.35,-1.7350000000000003,-1.4987500000000002,0,0,0.0,0.06107195705163008,-0.0032775458375002,0.16,0.16,0.2,0.2,-1.0,-0.7200000000000004,2.2799999999999994,2.2799999999999994,0.0,1.0,-1.0,3.0,0,1,0,0,-0.0032775458375002
14.0,0.0,14.0,0.0,3.0,0.0,3.0,0.0,,,,left,1.0180848999880254,483.4568040000741,fj4,483.4568040000741,,478.8110730000772,480.82539660006296,True,2.0,['p'],True,0.25,0.5,0.5,1.0,1.0,0.9463946303571862,0.0145074218749999,fight_cost,0.0,0.0,480.82539660006296,,fj4,2,2022-05-05_11h40.31.749,threat_forest,2021.2.3,59.99512838641763,True,71.0,0.35,0.35,-1.7350000000000003,-1.4987500000000002,0,0,1.0,0.017923313460298868,0.0145074218749999,0.25,0.25,0.5,0.5,-1.0,-0.75,1.25,1.25,1.0,1.0,-1.0,2.0,0,1,0,0,0.0145074218749999
15.0,0.0,15.0,0.0,0.0,0.0,0.0,0.0,488.90972690004855,492.4145738000516,,right,0.628792200004682,494.5964100999991,fj4,488.90972690004855,492.4145738000516,494.5964100999991,,True,4.0,['r'],False,0.6,0.6,0.0,0.0,2.0,0.6126016192893442,0.0913331728581944,unsucc_cost,1.0,2.0,,,fj4,2,2022-05-05_11h40.31.749,threat_forest,2021.2.3,59.99512838641763,True,62.0,0.6125,0.48125,0.012499999999999956,-0.8612500000000002,1,1,1.0,-0.4639544425167844,0.0913331728581944,0.6,0.6,0.6,0.0,1.4,1.4,5.4,5.4,0.0,2.0,-1.0,4.0,0,1,1,1,0.0913331728581944
15.0,0.0,15.0,0.0,1.0,0.0,1.0,0.0,,,,left,2.1562061000149697,499.2917383000022,fj4,488.90972690004855,492.4145738000516,499.2917383000022,,False,2.0,['r'],False,0.6,0.6,0.0,0.0,2.0,0.6126016192893442,0.081922610155642,wait_cost,1.0,1.0,497.2600161000155,,fj4,2,2022-05-05_11h40.31.749,threat_forest,2021.2.3,59.99512838641763,False,62.0,0.6125,0.48125,0.012499999999999956,-0.8612500000000002,1,1,0.0,0.7683502421769298,0.081922610155642,0.6,0.6,0.6,0.0,1.4,1.4,3.4,3.4,0.0,2.0,-1.0,2.0,0,1,1,1,0.081922610155642
15.0,0.0,15.0,0.0,2.0,0.0,2.0,0.0,,,,left,1.3647088999859989,506.7696414000821,fj4,506.7696414000821,,501.4730873000808,503.4874886000762,True,1.0,['r'],True,0.46875,0.625,0.25,2.0,2.0,0.9634951148421658,0.3116130710095167,unsucc_cost,0.0,0.0,503.4874886000762,,fj4,2,2022-05-05_11h40.31.749,threat_forest,2021.2.3,59.99512838641763,True,62.0,0.6125,0.48125,0.012499999999999956,-0.8612500000000002,1,0,1.0,0.3109411458102406,0.3116130710095167,1.0,0.46875,0.625,0.25,0.75,0.625,1.625,1.625,1.0,2.0,-1.0,1.0,1,1,0,1,0.625
16.0,0.0,16.0,0.0,0.0,0.0,0.0,0.0,512.7528363000602,516.2588588000508,,left,2.34799809998367,516.7760410000337,fj4,512.7528363000602,516.2588588000508,516.7760410000337,,False,4.0,['r'],False,0.3333333333333333,0.5,0.3333333333333333,2.0,1.0,1.0,0.0143529277549154,wait_cost,1.0,3.0,,,fj4,2,2022-05-05_11h40.31.749,threat_forest,2021.2.3,59.99512838641763,False,7.0,0.45,0.53125,-1.0666666666666667,-0.5270833333333333,0,0,0.0,0.8535630927592491,0.0143529277549154,0.3333333333333333,0.3333333333333333,0.5,0.3333333333333333,-0.5,-0.3333333333333335,3.6666666666666665,3.6666666666666665,0.0,1.0,-1.0,4.0,0,1,0,0,0.0143529277549154
16.0,0.0,16.0,0.0,1.0,0.0,1.0,0.0,,,,left,2.191352299996652,522.0038744000485,fj4,512.7528363000602,516.2588588000508,522.0038744000485,,False,3.0,['r'],False,0.3333333333333333,0.5,0.3333333333333333,2.0,1.0,1.0,0.0216859945130315,wait_cost,1.0,2.0,521.1709908000194,,fj4,2,2022-05-05_11h40.31.749,threat_forest,2021.2.3,59.99512838641763,False,7.0,0.45,0.53125,-1.0666666666666667,-0.5270833333333333,0,0,0.0,0.7845188418437254,0.0216859945130315,0.3333333333333333,0.3333333333333333,0.5,0.3333333333333333,-0.5,-0.3333333333333335,2.6666666666666665,2.6666666666666665,0.0,1.0,-1.0,3.0,0,1,0,0,0.0216859945130315
16.0,0.0,16.0,0.0,2.0,0.0,2.0,0.0,,,,right,1.0672482999507338,528.7476153000025,fj4,512.7528363000602,516.2588588000508,528.7476153000025,,True,2.0,['r'],False,0.3333333333333333,0.5,0.3333333333333333,2.0,1.0,1.0,0.020927160493827,succ_gain,1.0,3.0,526.23295710003,,fj4,2,2022-05-05_11h40.31.749,threat_forest,2021.2.3,59.99512838641763,True,7.0,0.45,0.53125,-1.0666666666666667,-0.5270833333333333,0,0,1.0,0.06508365372960949,0.020927160493827,0.3333333333333333,0.3333333333333333,0.5,0.3333333333333333,-0.5,-0.3333333333333335,1.6666666666666665,1.6666666666666665,0.0,1.0,-1.0,2.0,0,1,0,0,0.020927160493827
16.0,0.0,16.0,0.0,3.0,0.0,3.0,0.0,,,,,,532.9272218000842,fj4,532.9272218000842,,529.8465644000098,531.8610178000527,True,3.0,['r'],True,0.4,0.4,0.0,0.0,1.0,0.6126016192893442,0.1207037037037037,wait_cost,0.0,2.0,531.8610178000527,,fj4,2,2022-05-05_11h40.31.749,threat_forest,2021.2.3,59.99512838641763,,7.0,0.45,0.53125,-1.0666666666666667,-0.5270833333333333,0,0,,,0.1207037037037037,0.4,0.4,0.4,0.0,0.20000000000000007,0.20000000000000007,3.2,3.2,1.0,1.0,1.0,3.0,0,1,0,0,0.1207037037037037
16.0,0.0,16.0,0.0,4.0,0.0,4.0,0.0,,,,right,2.074534000013955,539.5541513999924,fj4,539.5541513999924,,529.8465644000098,531.8610178000527,False,2.0,['r'],True,0.4,0.4,0.0,0.0,1.0,0.6126016192893442,0.0745555555555556,wait_cost,0.0,1.0,537.9552572000539,,fj4,2,2022-05-05_11h40.31.749,threat_forest,2021.2.3,59.99512838641763,False,7.0,0.45,0.53125,-1.0666666666666667,-0.5270833333333333,0,0,0.0,0.7297365501546498,0.0745555555555556,0.4,0.4,0.4,0.0,0.20000000000000007,0.20000000000000007,2.2,2.2,1.0,1.0,-1.0,2.0,0,1,0,0,0.0745555555555556
16.0,0.0,16.0,0.0,5.0,0.0,5.0,0.0,,,,right,0.7733629000140354,546.7478522000602,fj4,541.6521828999976,543.6666444999864,546.7478522000602,,True,1.0,['r'],False,0.3333333333333333,0.5,0.3333333333333333,2.0,1.0,1.0,0.1277777777777777,unsucc_cost,1.0,0.0,543.6666444999864,,fj4,2,2022-05-05_11h40.31.749,threat_forest,2021.2.3,59.99512838641763,True,7.0,0.45,0.53125,-1.0666666666666667,-0.5270833333333333,0,0,1.0,-0.2570068709439752,0.1277777777777777,1.0,0.3333333333333333,0.5,0.3333333333333333,-0.5,-0.3333333333333335,0.6666666666666665,1.0,0.0,1.0,-1.0,1.0,1,1,0,0,0.625
17.0,0.0,17.0,0.0,0.0,0.0,0.0,0.0,551.9322526000906,555.4390106000938,,right,0.7805095000658184,558.5532223000191,fj4,551.9322526000906,555.4390106000938,558.5532223000191,,True,4.0,['r'],False,0.4444444444444445,0.6666666666666666,0.3333333333333333,1.0,1.0,0.9656336071428248,0.0440100594421581,unsucc_cost,1.0,2.0,,,fj4,2,2022-05-05_11h40.31.749,threat_forest,2021.2.3,59.99512838641763,True,56.0,0.4444444444444444,0.4472222222222222,-1.1666666666666667,-1.1166666666666667,1,0,1.0,-0.2478083673315797,0.0440100594421581,0.4444444444444445,0.4444444444444445,0.6666666666666666,0.3333333333333333,0.0,0.0,4.0,4.0,0.0,1.0,-1.0,4.0,0,1,0,1,0.0440100594421581
17.0,0.0,17.0,0.0,1.0,0.0,1.0,0.0,,,,left,1.625067500048317,564.8638385999948,fj4,551.9322526000906,555.4390106000938,564.8638385999948,,False,2.0,['r'],False,0.4444444444444445,0.6666666666666666,0.3333333333333333,1.0,1.0,0.9656336071428248,0.0323502514860539,wait_cost,1.0,1.0,561.366821100004,,fj4,2,2022-05-05_11h40.31.749,threat_forest,2021.2.3,59.99512838641763,False,56.0,0.4444444444444444,0.4472222222222222,-1.1666666666666667,-1.1166666666666667,1,0,0.0,0.48554935341027355,0.0323502514860539,0.4444444444444445,0.4444444444444445,0.6666666666666666,0.3333333333333333,0.0,0.0,2.0,2.0,0.0,1.0,-1.0,2.0,0,1,0,1,0.0323502514860539
17.0,0.0,17.0,0.0,2.0,0.0,2.0,0.0,,,,left,1.5354906000429764,569.3264958000509,fj4,569.3264958000509,,566.5122957000276,568.5268454999896,True,1.0,['r'],True,0.2222222222222222,0.2222222222222222,0.0,0.0,1.0,0.4821593609696809,0.0356906975562667,unsucc_cost,0.0,0.0,568.5268454999896,,fj4,2,2022-05-05_11h40.31.749,threat_forest,2021.2.3,59.99512838641763,True,56.0,0.4444444444444444,0.4472222222222222,-1.1666666666666667,-1.1166666666666667,0,0,1.0,0.4288499391235555,0.0356906975562667,1.0,0.2222222222222222,0.2222222222222222,0.0,-0.3333333333333335,-0.3333333333333335,0.6666666666666665,1.0,1.0,1.0,-1.0,1.0,1,1,0,0,0.625
0.0,0.0,0.0,0.0,0.0,0.0,0.0,0.0,78.06087609997485,81.56546299997717,,left,0.5893680999288335,84.86123999999836,fj4,84.86123999999836,,78.06087609997485,81.56546299997717,True,5.0,['p'],True,0.6,0.6,0.0,0.0,1.0,0.6126016192893442,0.0813598898339241,succ_gain,0.0,6.0,,,fj4,3,2022-05-05_11h50.31.052,threat_forest,2021.2.3,59.978827508180274,True,38.0,0.6125,0.5284722222222222,-0.5218750000000001,-0.8442708333333334,1,1,1.0,-0.5287043331007699,0.0813598898339241,0.6,0.6,0.6,0.0,0.7999999999999999,0.7999999999999999,5.8,5.8,1.0,1.0,-1.0,5.0,0,1,1,1,0.0813598898339241
0.0,0.0,0.0,0.0,1.0,0.0,1.0,0.0,,,,right,1.730507500004023,89.42522840003949,fj4,89.42522840003949,,78.06087609997485,81.56546299997717,False,6.0,['p'],True,0.6,0.6,0.0,0.0,1.0,0.6126016192893442,-0.0143872573728561,wait_cost,0.0,5.0,87.49330360000022,,fj4,3,2022-05-05_11h50.31.052,threat_forest,2021.2.3,59.978827508180274,False,38.0,0.6125,0.5284722222222222,-0.5218750000000001,-0.8442708333333334,1,1,0.0,0.5484147180937072,-0.0143872573728561,0.6,0.6,0.6,0.0,0.7999999999999999,0.7999999999999999,6.8,6.8,1.0,1.0,1.0,6.0,0,1,1,1,-0.0143872573728561
0.0,0.0,0.0,0.0,2.0,0.0,2.0,0.0,,,,,,93.74218780000228,fj4,91.173458400066,93.1878581000492,93.74218780000228,,True,5.0,['p'],False,0.46875,0.625,0.25,2.0,1.0,0.9634951148421658,-0.0027008940696716,wait_cost,1.0,4.0,93.1878581000492,,fj4,3,2022-05-05_11h50.31.052,threat_forest,2021.2.3,59.978827508180274,,38.0,0.6125,0.5284722222222222,-0.5218750000000001,-0.8442708333333334,1,0,,,-0.0027008940696716,0.46875,0.46875,0.625,0.25,0.125,0.15625,5.15625,5.15625,0.0,1.0,-1.0,5.0,0,1,0,1,-0.0027008940696716
