miniblock.thisRepN,miniblock.thisTrialN,miniblock.thisN,miniblock.thisIndex,day.thisRepN,day.thisTrialN,day.thisN,day.thisIndex,forest.started,fixation_forest.started,fixation_forest.stopped,key_resp.keys,key_resp.rt,key_resp.started,Subject_ID,weather_left.started,weather_left.stopped,weather_right.started,weather_right.stopped,foraging T/F,in_LP,p/r heuristic,good_weather.T/F,p_succ_correct,p_succ_uncorrected,r_threat,n_oponents,gain_if_succ,weather_entropy,OP_value_difference,action_outcome,forest_side_L=0_R=1,out_LP,fixation_day.started,fixation_day.stopped,participant,session,date,expName,psychopyVersion,frameRate,foraging T/F NaNs,fora_NR,forest_mean_p,mvt_cutoff_p,forest_mean_ev,mvt_cutoff_ev,mvt_policy_eg,mvt_policy_p,fora_response,logRT,optimal policy,$\mathit{p}$ success cor + cap,$\mathit{p}$ success cor,$\mathit{p}$ success,risk threat encounter,expected gain naive,expected gain correct,expected state no bounds,expected state with bounds,weather type,gain magnitude,win stay lose shift,continuous energy state,binary energy state,$\mathit{p}$ success based MVT,expected gain based MVT
0.0,0.0,0.0,0.0,0.0,0.0,0.0,0.0,29.32623040000908,32.83160359994508,None,right,1.2613427999895066,35.49442160013132,xp7,29.32623040000908,32.83160359994508,35.49442160013132,None,True,4.0,['r'],False,0.2222222222222222,0.6666666666666666,0.6666666666666666,2.0,2.0,0.77250688571426,-0.0225879671967348,unsucc_cost,1.0,2.0,,,xp7,1,2023-04-13_15h18.15.054,threat_forest,2021.2.3,60.03500040616538,True,68.0,0.5,0.5,-1.2222222222222223,-1.2222222222222223,0,0,1,0.23217686777045068,-0.0225879671967348,0.2222222222222222,0.2222222222222222,0.6666666666666666,0.33333333333333337,-1.3333333333333335,-1.777777777777778,2.2222222222222223,2.2222222222222223,0.0,2.0,,4.0,0,0,0
0.0,0.0,0.0,0.0,1.0,0.0,1.0,0.0,,,,right,0.8958749000448734,42.32327469997108,xp7,29.32623040000908,32.83160359994508,42.32327469997108,None,True,2.0,['r'],False,0.2222222222222222,0.6666666666666666,0.6666666666666666,2.0,2.0,0.77250688571426,-0.012283760097546,succ_gain,1.0,4.0,38.7927737000864,None,xp7,1,2023-04-13_15h18.15.054,threat_forest,2021.2.3,60.03500040616538,True,68.0,0.5,0.5,-1.2222222222222223,-1.2222222222222223,0,0,1,-0.10995449624068634,-0.012283760097546,0.2222222222222222,0.2222222222222222,0.6666666666666666,0.33333333333333337,-1.3333333333333335,-1.777777777777778,0.2222222222222221,0.2222222222222221,0.0,2.0,-1.0,2.0,0,0,0
0.0,0.0,0.0,0.0,2.0,0.0,2.0,0.0,,,,left,0.9973297000396996,48.55050819995813,xp7,29.32623040000908,32.83160359994508,48.55050819995813,None,False,4.0,['r'],False,0.2222222222222222,0.6666666666666666,0.6666666666666666,2.0,2.0,0.77250688571426,-0.043652834933699,wait_cost,1.0,3.0,45.25337669998408,None,xp7,1,2023-04-13_15h18.15.054,threat_forest,2021.2.3,60.03500040616538,False,68.0,0.5,0.5,-1.2222222222222223,-1.2222222222222223,0,0,0,-0.0026738715708372837,-0.043652834933699,0.2222222222222222,0.2222222222222222,0.6666666666666666,0.33333333333333337,-1.3333333333333335,-1.777777777777778,2.2222222222222223,2.2222222222222223,0.0,2.0,1.0,4.0,0,0,0
0.0,0.0,0.0,0.0,3.0,0.0,3.0,0.0,,,,left,1.1789800999686122,53.19622640009038,xp7,53.19622640009038,None,49.56622559996322,51.580688500078395,True,3.0,['r'],True,0.3333333333333333,0.3333333333333333,0.0,0.0,2.0,0.5793801642856949,0.1040809327846364,unsucc_cost,0.0,1.0,51.5806885000784,None,xp7,1,2023-04-13_15h18.15.054,threat_forest,2021.2.3,60.03500040616538,True,68.0,0.5,0.5,-1.2222222222222223,-1.2222222222222223,1,0,1,0.16464974267539215,0.1040809327846364,0.3333333333333333,0.3333333333333333,0.3333333333333333,1.0,-0.6666666666666669,-0.6666666666666669,2.333333333333333,2.333333333333333,1.0,2.0,-1.0,3.0,0,0,1
0.0,0.0,0.0,0.0,4.0,0.0,4.0,0.0,,,,right,1.5614585999865085,59.157245400128886,xp7,54.39497100003064,56.40953680011444,59.157245400128886,None,True,1.0,['r'],False,0.2222222222222222,0.6666666666666666,0.6666666666666666,2.0,2.0,0.77250688571426,0.0915637860082303,figh_cost,1.0,0.0,56.40953680011444,None,xp7,1,2023-04-13_15h18.15.054,threat_forest,2021.2.3,60.03500040616538,True,68.0,0.5,0.5,-1.2222222222222223,-1.2222222222222223,0,0,1,0.4456203844125812,0.0915637860082303,1.0,0.2222222222222222,0.6666666666666666,0.33333333333333337,-1.3333333333333335,-1.777777777777778,-0.7777777777777779,0.0,0.0,2.0,-1.0,1.0,1,0,0
1.0,0.0,1.0,0.0,0.0,0.0,0.0,0.0,65.927009700099,69.43080850015394,None,left,0.9582919999957084,72.86169990012422,xp7,72.86169990012422,None,65.927009700099,69.43080850015394,True,5.0,['r'],True,0.5,0.5,0.0,0.0,1.0,0.6309297535714574,0.0772781267414693,unsucc_cost,0.0,3.0,,,xp7,1,2023-04-13_15h18.15.054,threat_forest,2021.2.3,60.03500040616538,True,30.0,0.5833333333333333,0.5416666666666666,-1.25,-1.2361111111111112,1,0,1,-0.04260274578820092,0.0772781267414693,0.5,0.5,0.5,1.0,-0.5,-0.5,4.5,4.5,1.0,1.0,-1.0,5.0,0,0,1
1.0,0.0,1.0,0.0,1.0,0.0,1.0,0.0,,,,left,0.8972976999357343,78.78889660001732,xp7,78.78889660001732,None,65.927009700099,69.43080850015394,True,3.0,['r'],True,0.5,0.5,0.0,0.0,1.0,0.6309297535714574,0.1098696443115568,succ_gain,0.0,4.0,75.85807509999722,None,xp7,1,2023-04-13_15h18.15.054,threat_forest,2021.2.3,60.03500040616538,True,30.0,0.5833333333333333,0.5416666666666666,-1.25,-1.2361111111111112,1,0,1,-0.10836758799832298,0.1098696443115568,0.5,0.5,0.5,1.0,-0.5,-0.5,2.5,2.5,1.0,1.0,-1.0,3.0,0,0,1
1.0,0.0,1.0,0.0,2.0,0.0,2.0,0.0,,,,right,1.8708700998686252,82.4022844999563,xp7,79.70481880009174,81.71931800013408,82.4022844999563,None,True,4.0,['r'],False,0.2222222222222222,0.6666666666666666,0.6666666666666666,2.0,1.0,0.77250688571426,-0.0770792252514861,figh_cost,1.0,1.0,81.71931800013408,None,xp7,1,2023-04-13_15h18.15.054,threat_forest,2021.2.3,60.03500040616538,True,30.0,0.5833333333333333,0.5416666666666666,-1.25,-1.2361111111111112,0,0,1,0.6264036166981799,-0.0770792252514861,0.2222222222222222,0.2222222222222222,0.6666666666666666,0.33333333333333337,-2.0,-2.0,2.0,2.0,0.0,1.0,1.0,4.0,0,0,0
1.0,0.0,1.0,0.0,3.0,0.0,3.0,0.0,,,,left,1.1734552001580596,87.71390000008978,xp7,79.70481880009174,81.71931800013408,87.71390000008978,None,False,1.0,['r'],False,0.2222222222222222,0.6666666666666666,0.6666666666666666,2.0,1.0,0.77250688571426,0.0481395747599451,wait_cost,1.0,0.0,86.31504829996265,None,xp7,1,2023-04-13_15h18.15.054,threat_forest,2021.2.3,60.03500040616538,False,30.0,0.5833333333333333,0.5416666666666666,-1.25,-1.2361111111111112,0,0,0,0.15995255931950153,0.0481395747599451,1.0,0.2222222222222222,0.6666666666666666,0.33333333333333337,-2.0,-2.0,-1.0,0.0,0.0,1.0,-1.0,1.0,1,0,0
2.0,0.0,2.0,0.0,0.0,0.0,0.0,0.0,92.43964860006236,95.93935600016266,None,right,1.511283400002867,96.62658470007592,xp7,92.43964860006236,95.93935600016266,96.62658470007592,None,True,5.0,['p'],False,0.16,0.2,0.2,2.0,1.0,0.8198746470064713,-0.0074793948520252,unsucc_cost,1.0,3.0,,,xp7,1,2023-04-13_15h18.15.054,threat_forest,2021.2.3,60.03500040616538,True,71.0,0.35,0.4666666666666666,-1.7350000000000003,-1.4925000000000002,0,0,1,0.41295922361438375,-0.0074793948520252,0.16,0.16,0.2,0.8,-2.0,-1.7200000000000004,3.2799999999999994,3.2799999999999994,0.0,1.0,-1.0,5.0,0,0,0
2.0,0.0,2.0,0.0,1.0,0.0,1.0,0.0,,,,left,0.8745546999853104,103.33274010010064,xp7,103.33274010010064,None,98.15439480007626,100.16863480000757,True,3.0,['p'],True,0.25,0.5,0.5,1.0,1.0,0.9463946303571862,0.0092099508066405,succ_gain,0.0,4.0,100.16863480000757,None,xp7,1,2023-04-13_15h18.15.054,threat_forest,2021.2.3,60.03500040616538,True,71.0,0.35,0.4666666666666666,-1.7350000000000003,-1.4925000000000002,0,0,1,-0.13404043646786062,0.0092099508066405,0.25,0.25,0.5,0.5,-2.0,-1.75,1.25,1.25,1.0,1.0,-1.0,3.0,0,0,0
2.0,0.0,2.0,0.0,2.0,0.0,2.0,0.0,,,,right,0.9107096001971512,107.86560679995456,xp7,104.23171900003216,106.24629299994558,107.86560679995456,None,True,4.0,['p'],False,0.16,0.2,0.2,2.0,1.0,0.8198746470064713,0.0037162672499999,unsucc_cost,1.0,2.0,106.24629299994558,None,xp7,1,2023-04-13_15h18.15.054,threat_forest,2021.2.3,60.03500040616538,True,71.0,0.35,0.4666666666666666,-1.7350000000000003,-1.4925000000000002,0,0,1,-0.09353120290561788,0.0037162672499999,0.16,0.16,0.2,0.8,-2.0,-1.7200000000000004,2.2799999999999994,2.2799999999999994,0.0,1.0,1.0,4.0,0,0,0
2.0,0.0,2.0,0.0,3.0,0.0,3.0,0.0,,,,left,2.7859280998818576,112.0246815001592,xp7,112.0246815001592,None,108.79433450009674,110.8087305999361,True,2.0,['p'],True,0.25,0.5,0.5,1.0,1.0,0.9463946303571862,0.0145074218749999,unsucc_cost,0.0,0.0,110.8087305999361,None,xp7,1,2023-04-13_15h18.15.054,threat_forest,2021.2.3,60.03500040616538,True,71.0,0.35,0.4666666666666666,-1.7350000000000003,-1.4925000000000002,0,0,1,1.0245810673727092,0.0145074218749999,0.25,0.25,0.5,0.5,-2.0,-1.75,0.25,0.25,1.0,1.0,-1.0,2.0,0,0,0
3.0,0.0,3.0,0.0,0.0,0.0,0.0,0.0,119.2098505999893,122.71425010007806,None,left,0.9991464000195264,123.46558349998668,xp7,123.46558349998668,None,119.2098505999893,122.71425010007806,True,5.0,['r'],True,0.4444444444444445,0.6666666666666666,0.3333333333333333,2.0,2.0,0.9656336071428248,-0.0307726625514404,figh_cost,0.0,2.0,,,xp7,1,2023-04-13_15h18.15.054,threat_forest,2021.2.3,60.03500040616538,True,47.0,0.6333333333333333,0.49166666666666664,-0.07777777777777783,-0.9063888888888891,1,0,1,-0.0008539645043901295,-0.0307726625514404,0.4444444444444445,0.4444444444444445,0.6666666666666666,0.6666666666666667,-0.3333333333333335,-0.5555555555555556,4.444444444444445,4.444444444444445,1.0,2.0,-1.0,5.0,0,0,1
3.0,0.0,3.0,0.0,1.0,0.0,1.0,0.0,,,,right,1.7816592000890523,127.75989710004067,xp7,124.49627660005352,126.51116370013915,127.75989710004067,None,True,2.0,['r'],False,0.6,0.6,0.0,0.0,2.0,0.6126016192893442,0.0858461728395062,unsucc_cost,1.0,0.0,126.51116370013916,None,xp7,1,2023-04-13_15h18.15.054,threat_forest,2021.2.3,60.03500040616538,True,47.0,0.6333333333333333,0.49166666666666664,-0.07777777777777783,-0.9063888888888891,1,1,1,0.5775450650175463,0.0858461728395062,0.6,0.6,0.6,1.0,0.3999999999999999,0.3999999999999999,2.4,2.4,0.0,2.0,-1.0,2.0,0,1,1
4.0,0.0,4.0,0.0,0.0,0.0,0.0,0.0,134.86441310006194,138.35461740009487,None,left,1.139663899783045,140.48563470016234,xp7,140.48563470016234,None,134.86441310006194,138.35461740009487,True,4.0,['p'],True,0.24,0.3,0.2,2.0,1.0,0.9003120349047065,0.0028177647265513,unsucc_cost,0.0,2.0,,,xp7,1,2023-04-13_15h18.15.054,threat_forest,2021.2.3,60.03500040616538,True,9.0,0.4,0.5166666666666666,-1.3025,-0.6901388888888889,0,0,1,0.130733394185328,0.0028177647265513,0.24,0.24,0.3,0.8,-1.7,-1.48,2.52,2.52,1.0,1.0,-1.0,4.0,0,0,0
4.0,0.0,4.0,0.0,1.0,0.0,1.0,0.0,,,,right,1.7044543998781592,144.19465439999476,xp7,144.19465439999476,None,134.86441310006194,138.35461740009487,False,2.0,['p'],True,0.24,0.3,0.2,2.0,1.0,0.9003120349047065,-0.0024622735211894,wait_cost,0.0,1.0,143.66136569995433,None,xp7,1,2023-04-13_15h18.15.054,threat_forest,2021.2.3,60.03500040616538,False,9.0,0.4,0.5166666666666666,-1.3025,-0.6901388888888889,0,0,0,0.5332450594530711,-0.0024622735211894,0.24,0.24,0.3,0.8,-1.7,-1.48,0.52,0.52,1.0,1.0,-1.0,2.0,0,0,0
4.0,0.0,4.0,0.0,2.0,0.0,2.0,0.0,,,,left,0.7501203001011163,151.3878282001242,xp7,151.3878282001242,None,134.86441310006194,138.35461740009487,True,1.0,['p'],True,0.24,0.3,0.2,2.0,1.0,0.9003120349047065,0.0295931337890624,unsucc_cost,0.0,0.0,147.94075340009294,None,xp7,1,2023-04-13_15h18.15.054,threat_forest,2021.2.3,60.03500040616538,True,9.0,0.4,0.5166666666666666,-1.3025,-0.6901388888888889,0,0,1,-0.2875216851796854,0.0295931337890624,1.0,0.24,0.3,0.8,-1.7,-1.48,-0.48,0.0,1.0,1.0,-1.0,1.0,1,0,0
5.0,0.0,5.0,0.0,0.0,0.0,0.0,0.0,155.61076860013418,159.11352010001428,None,left,1.1967889999505132,160.8306621001102,xp7,160.8306621001102,None,155.61076860013418,159.11352010001428,True,4.0,['r'],True,0.2040816326530612,0.2857142857142857,0.2857142857142857,2.0,2.0,0.9335459102197724,-0.0038600655291852,unsucc_cost,0.0,2.0,,,xp7,1,2023-04-13_15h18.15.054,threat_forest,2021.2.3,60.03500040616538,True,17.0,0.26785714285714285,0.33392857142857146,-1.2346938775510203,-1.2685969387755103,0,0,1,0.17964213697801643,-0.0038600655291852,0.2040816326530612,0.2040816326530612,0.2857142857142857,0.7142857142857143,-1.7142857142857144,-1.4693877551020407,2.5306122448979593,2.5306122448979593,1.0,2.0,-1.0,4.0,0,0,0
5.0,0.0,5.0,0.0,1.0,0.0,1.0,0.0,,,,left,1.9551363000646236,165.75770590011962,xp7,165.75770590011962,None,155.61076860013418,159.11352010001428,True,2.0,['r'],True,0.2040816326530612,0.2857142857142857,0.2857142857142857,2.0,2.0,0.9335459102197724,-0.0023528380842746,figh_cost,0.0,0.0,164.0588992999401,None,xp7,1,2023-04-13_15h18.15.054,threat_forest,2021.2.3,60.03500040616538,True,17.0,0.26785714285714285,0.33392857142857146,-1.2346938775510203,-1.2685969387755103,0,0,1,0.6704599097102255,-0.0023528380842746,0.2040816326530612,0.2040816326530612,0.2857142857142857,0.7142857142857143,-1.7142857142857144,-1.4693877551020407,0.5306122448979593,0.5306122448979593,1.0,2.0,-1.0,2.0,0,0,0
6.0,0.0,6.0,0.0,0.0,0.0,0.0,0.0,171.63065070006996,175.1299501999747,None,left,0.9585397001355886,178.2793674999848,xp7,178.2793674999848,None,171.63065070006996,175.1299501999747,True,5.0,['r'],True,0.4285714285714285,0.4285714285714285,0.0,0.0,2.0,0.6216097450797565,0.0526055132283747,unsucc_cost,0.0,3.0,,,xp7,1,2023-04-13_15h18.15.054,threat_forest,2021.2.3,60.03500040616538,True,52.0,0.43650793650793646,0.35218253968253965,-0.5626102292768962,-0.8986520534139583,1,1,1,-0.042344298329050394,0.0526055132283747,0.4285714285714285,0.4285714285714285,0.4285714285714285,1.0,-0.28571428571428603,-0.28571428571428603,4.7142857142857135,4.7142857142857135,1.0,2.0,-1.0,5.0,0,1,1
6.0,0.0,6.0,0.0,1.0,0.0,1.0,0.0,,,,left,0.7819693998899311,182.525361899985,xp7,182.525361899985,None,171.63065070006996,175.1299501999747,True,3.0,['r'],True,0.4285714285714285,0.4285714285714285,0.0,0.0,2.0,0.6216097450797565,0.1511552987655383,unsucc_cost,0.0,1.0,181.2761777001433,None,xp7,1,2023-04-13_15h18.15.054,threat_forest,2021.2.3,60.03500040616538,True,52.0,0.43650793650793646,0.35218253968253965,-0.5626102292768962,-0.8986520534139583,1,1,1,-0.24593966977798262,0.1511552987655383,0.4285714285714285,0.4285714285714285,0.4285714285714285,1.0,-0.28571428571428603,-0.28571428571428603,2.714285714285714,2.714285714285714,1.0,2.0,-1.0,3.0,0,1,1
6.0,0.0,6.0,0.0,2.0,0.0,2.0,0.0,,,,left,0.8196233999915421,188.8860782000702,xp7,188.8860782000702,None,171.63065070006996,175.1299501999747,True,1.0,['r'],True,0.4285714285714285,0.4285714285714285,0.0,0.0,2.0,0.6216097450797565,0.2143087570706274,succ_gain,0.0,3.0,185.3390301000327,None,xp7,1,2023-04-13_15h18.15.054,threat_forest,2021.2.3,60.03500040616538,True,52.0,0.43650793650793646,0.35218253968253965,-0.5626102292768962,-0.8986520534139583,1,1,1,-0.19891031252282465,0.2143087570706274,1.0,0.4285714285714285,0.4285714285714285,1.0,-0.28571428571428603,-0.28571428571428603,0.714285714285714,0.714285714285714,1.0,2.0,-1.0,1.0,1,1,1
6.0,0.0,6.0,0.0,3.0,0.0,3.0,0.0,,,,right,1.9329681999515744,194.15113430004567,xp7,189.73520390014164,191.74964860011823,194.15113430004567,None,True,3.0,['r'],False,0.345679012345679,0.4444444444444444,0.2222222222222222,2.0,2.0,0.9685033186841367,0.0350802265993923,unsucc_cost,1.0,1.0,191.74964860011823,None,xp7,1,2023-04-13_15h18.15.054,threat_forest,2021.2.3,60.03500040616538,True,52.0,0.43650793650793646,0.35218253968253965,-0.5626102292768962,-0.8986520534139583,1,0,1,0.6590567489535596,0.0350802265993923,0.345679012345679,0.345679012345679,0.4444444444444444,0.7777777777777778,-0.888888888888889,-0.8395061728395062,2.1604938271604937,2.1604938271604937,0.0,2.0,1.0,3.0,0,0,1
6.0,0.0,6.0,0.0,4.0,0.0,4.0,0.0,,,,right,0.937728599878028,201.82399050006643,xp7,189.73520390014164,191.74964860011823,201.82399050006643,None,True,1.0,['r'],False,0.345679012345679,0.4444444444444444,0.2222222222222222,2.0,2.0,0.9685033186841367,0.2009676117789718,unsucc_cost,1.0,0.0,198.12706980016085,None,xp7,1,2023-04-13_15h18.15.054,threat_forest,2021.2.3,60.03500040616538,True,52.0,0.43650793650793646,0.35218253968253965,-0.5626102292768962,-0.8986520534139583,1,0,1,-0.06429471099178383,0.2009676117789718,1.0,0.345679012345679,0.4444444444444444,0.7777777777777778,-0.888888888888889,-0.8395061728395062,0.16049382716049376,0.16049382716049376,0.0,2.0,-1.0,1.0,1,0,1
7.0,0.0,7.0,0.0,0.0,0.0,0.0,0.0,208.49494160013276,211.99742959998548,None,left,1.7482552998699248,214.19930370012295,xp7,214.19930370012295,None,208.49494160013276,211.99742959998548,True,4.0,['p'],True,0.27,0.3,0.1,1.0,1.0,0.7963326591781347,0.00800026338778,succ_gain,0.0,5.0,,,xp7,1,2023-04-13_15h18.15.054,threat_forest,2021.2.3,60.03500040616538,True,6.0,0.4833333333333333,0.45992063492063484,-1.145,-0.8538051146384481,0,0,1,0.5586183191258726,0.00800026338778,0.27,0.27,0.3,0.9,-1.4,-1.29,2.71,2.71,1.0,1.0,-1.0,4.0,0,0,0
7.0,0.0,7.0,0.0,1.0,0.0,1.0,0.0,,,,right,0.9379441000055522,220.9893863000907,xp7,215.9783974001184,217.9918293999508,220.9893863000907,None,True,5.0,['p'],False,0.4444444444444445,0.6666666666666666,0.3333333333333333,1.0,1.0,0.9656336071428248,0.0567567681136075,figh_cost,1.0,2.0,217.9918293999508,None,xp7,1,2023-04-13_15h18.15.054,threat_forest,2021.2.3,60.03500040616538,True,6.0,0.4833333333333333,0.45992063492063484,-1.145,-0.8538051146384481,0,0,1,-0.06406492662856765,0.0567567681136075,0.4444444444444445,0.4444444444444445,0.6666666666666666,0.6666666666666667,-1.0,-1.0,4.0,4.0,0.0,1.0,1.0,5.0,0,0,0
7.0,0.0,7.0,0.0,2.0,0.0,2.0,0.0,,,,right,1.4661636999808252,224.9689919000957,xp7,215.9783974001184,217.9918293999508,224.9689919000957,None,True,2.0,['p'],False,0.4444444444444445,0.6666666666666666,0.3333333333333333,1.0,1.0,0.9656336071428248,0.0498588341135115,figh_cost,1.0,0.0,223.96961549995467,None,xp7,1,2023-04-13_15h18.15.054,threat_forest,2021.2.3,60.03500040616538,True,6.0,0.4833333333333333,0.45992063492063484,-1.145,-0.8538051146384481,0,0,1,0.3826492616102831,0.0498588341135115,0.4444444444444445,0.4444444444444445,0.6666666666666666,0.6666666666666667,-1.0,-1.0,1.0,1.0,0.0,1.0,-1.0,2.0,0,0,0
8.0,0.0,8.0,0.0,0.0,0.0,0.0,0.0,232.18786470009945,235.6919809000101,None,left,1.1192902999464422,238.456557800062,xp7,238.456557800062,None,232.18786470009945,235.6919809000101,True,5.0,['r'],True,0.24,0.4,0.4,2.0,1.0,0.9801625908629508,-0.0104347549751131,unsucc_cost,0.0,3.0,,,xp7,1,2023-04-13_15h18.15.054,threat_forest,2021.2.3,60.03500040616538,True,28.0,0.3666666666666667,0.425,-1.3400000000000003,-1.2425000000000002,0,0,1,0.11269482369706658,-0.0104347549751131,0.24,0.24,0.4,0.6,-2.0,-1.6800000000000002,3.32,3.32,1.0,1.0,-1.0,5.0,0,0,0
8.0,0.0,8.0,0.0,1.0,0.0,1.0,0.0,,,,right,0.97813790012151,244.75191899994388,xp7,244.75191899994388,None,232.18786470009945,235.6919809000101,False,3.0,['r'],True,0.24,0.4,0.4,2.0,1.0,0.9801625908629508,0.0090883802469137,wait_cost,0.0,2.0,241.6197997001,None,xp7,1,2023-04-13_15h18.15.054,threat_forest,2021.2.3,60.03500040616538,False,28.0,0.3666666666666667,0.425,-1.3400000000000003,-1.2425000000000002,0,0,0,-0.022104616717958072,0.0090883802469137,0.24,0.24,0.4,0.6,-2.0,-1.6800000000000002,1.3199999999999998,1.3199999999999998,1.0,1.0,-1.0,3.0,0,0,0
8.0,0.0,8.0,0.0,2.0,0.0,2.0,0.0,,,,right,1.8622205001302063,248.73014799994417,xp7,248.73014799994417,None,232.18786470009945,235.6919809000101,False,2.0,['r'],True,0.24,0.4,0.4,2.0,1.0,0.9801625908629508,0.0087973116049383,wait_cost,0.0,1.0,247.76411210000515,None,xp7,1,2023-04-13_15h18.15.054,threat_forest,2021.2.3,60.03500040616538,False,28.0,0.3666666666666667,0.425,-1.3400000000000003,-1.2425000000000002,0,0,0,0.6217695929662075,0.0087973116049383,0.24,0.24,0.4,0.6,-2.0,-1.6800000000000002,0.31999999999999984,0.31999999999999984,1.0,1.0,-1.0,2.0,0,0,0
8.0,0.0,8.0,0.0,3.0,0.0,3.0,0.0,,,,right,1.1333344001322985,256.1564257000573,xp7,250.6116963000968,252.6261170001235,256.1564257000573,None,True,1.0,['r'],False,0.3333333333333333,0.3333333333333333,0.0,0.0,1.0,0.5793801642856949,0.04145412345679,unsucc_cost,1.0,0.0,252.6261170001235,None,xp7,1,2023-04-13_15h18.15.054,threat_forest,2021.2.3,60.03500040616538,True,28.0,0.3666666666666667,0.425,-1.3400000000000003,-1.2425000000000002,1,0,1,0.12516408424676753,0.04145412345679,1.0,0.3333333333333333,0.3333333333333333,1.0,-1.0000000000000002,-1.0000000000000002,-2.220446049250313e-16,0.0,0.0,1.0,-1.0,1.0,1,0,1
9.0,0.0,9.0,0.0,0.0,0.0,0.0,0.0,263.11415349994786,266.60475059994496,None,right,1.1977564999833703,267.362688299967,xp7,263.11415349994786,266.60475059994496,267.362688299967,None,True,4.0,['p'],False,0.24,0.4,0.4,2.0,2.0,0.9801625908629508,0.0188358143999999,figh_cost,1.0,1.0,,,xp7,1,2023-04-13_15h18.15.054,threat_forest,2021.2.3,60.03500040616538,True,65.0,0.30000000000000004,0.33333333333333337,-1.5000000000000002,-1.4200000000000004,0,0,1,0.18045022359448057,0.0188358143999999,0.24,0.24,0.4,0.6,-1.6,-1.4400000000000002,2.5599999999999996,2.5599999999999996,0.0,2.0,-1.0,4.0,0,0,0
9.0,0.0,9.0,0.0,1.0,0.0,1.0,0.0,,,,None,,271.1139402000699,xp7,271.1139402000699,None,268.578277700115,270.59270830010064,False,1.0,['p'],True,0.16,0.2,0.2,2.0,2.0,0.8198746470064713,0.0181119999999999,wait_cost,0.0,0.0,270.59270830010064,None,xp7,1,2023-04-13_15h18.15.054,threat_forest,2021.2.3,60.03500040616538,None,65.0,0.30000000000000004,0.33333333333333337,-1.5000000000000002,-1.4200000000000004,0,0,0,,0.0181119999999999,1.0,0.16,0.2,0.8,-1.8000000000000003,-1.5600000000000003,-0.5600000000000003,0.0,1.0,2.0,-1.0,1.0,1,0,0
10.0,0.0,10.0,0.0,0.0,0.0,0.0,0.0,278.21619860013016,281.71562190004624,None,left,0.8561068000271916,282.2661327000242,xp7,282.2661327000242,None,278.21619860013016,281.71562190004624,True,5.0,['p'],True,0.4444444444444445,0.6666666666666666,0.3333333333333333,1.0,2.0,0.9656336071428248,0.0210978181405199,unsucc_cost,0.0,3.0,,,xp7,1,2023-04-13_15h18.15.054,threat_forest,2021.2.3,60.03500040616538,True,53.0,0.5,0.4,-0.8703703703703706,-1.1851851851851853,1,1,1,-0.15536014423616715,0.0210978181405199,0.4444444444444445,0.4444444444444445,0.6666666666666666,0.6666666666666667,-0.3333333333333335,-0.5555555555555556,4.444444444444445,4.444444444444445,1.0,2.0,-1.0,5.0,0,1,1
10.0,0.0,10.0,0.0,1.0,0.0,1.0,0.0,,,,right,0.981687300140038,288.4291830000002,xp7,283.14813700015657,285.14647420006804,288.4291830000002,None,True,3.0,['p'],False,0.2592592592592592,0.3333333333333333,0.2222222222222222,2.0,2.0,0.9327883776363324,0.0245696695070765,unsucc_cost,1.0,1.0,285.14647420006804,None,xp7,1,2023-04-13_15h18.15.054,threat_forest,2021.2.3,60.03500040616538,True,53.0,0.5,0.4,-0.8703703703703706,-1.1851851851851853,0,0,1,-0.018482452967077036,0.0245696695070765,0.2592592592592592,0.2592592592592592,0.3333333333333333,0.7777777777777778,-1.3333333333333335,-1.1851851851851856,1.8148148148148144,1.8148148148148144,0.0,2.0,-1.0,3.0,0,0,0
10.0,0.0,10.0,0.0,2.0,0.0,2.0,0.0,,,,right,1.0098509001545608,292.15623440011404,xp7,283.14813700015657,285.14647420006804,292.15623440011404,None,True,1.0,['p'],False,0.2592592592592592,0.3333333333333333,0.2222222222222222,2.0,2.0,0.9327883776363324,0.1141120452589175,figh_cost,1.0,0.0,291.4565159000922,None,xp7,1,2023-04-13_15h18.15.054,threat_forest,2021.2.3,60.03500040616538,True,53.0,0.5,0.4,-0.8703703703703706,-1.1851851851851853,0,0,1,0.009802696346384834,0.1141120452589175,1.0,0.2592592592592592,0.3333333333333333,0.7777777777777778,-1.3333333333333335,-1.1851851851851856,-0.18518518518518556,0.0,0.0,2.0,-1.0,1.0,1,0,0
11.0,0.0,11.0,0.0,0.0,0.0,0.0,0.0,298.9424984001089,302.4462417999748,None,left,0.8960541000124067,303.59546340000816,xp7,298.9424984001089,302.4462417999748,303.59546340000816,None,False,4.0,['p'],False,0.375,0.5,0.25,1.0,1.0,0.9850568223215076,0.0289878283625659,wait_cost,1.0,3.0,,,xp7,1,2023-04-13_15h18.15.054,threat_forest,2021.2.3,60.03500040616538,False,69.0,0.39285714285714285,0.4464285714285714,-1.2665816326530612,-1.0684760015117158,0,0,0,-0.10975448835184141,0.0289878283625659,0.375,0.375,0.5,0.75,-1.25,-1.125,2.875,2.875,0.0,1.0,-1.0,4.0,0,0,0
11.0,0.0,11.0,0.0,1.0,0.0,1.0,0.0,,,,left,1.3788654999807477,309.0570181000512,xp7,298.9424984001089,302.4462417999748,309.0570181000512,None,False,3.0,['p'],False,0.375,0.5,0.25,1.0,1.0,0.9850568223215076,0.0375814591545523,wait_cost,1.0,2.0,306.52576080011204,None,xp7,1,2023-04-13_15h18.15.054,threat_forest,2021.2.3,60.03500040616538,False,69.0,0.39285714285714285,0.4464285714285714,-1.2665816326530612,-1.0684760015117158,0,0,0,0.3212610595951588,0.0375814591545523,0.375,0.375,0.5,0.75,-1.25,-1.125,1.875,1.875,0.0,1.0,-1.0,3.0,0,0,0
11.0,0.0,11.0,0.0,2.0,0.0,2.0,0.0,,,,right,0.9299662997946144,316.0838580999989,xp7,298.9424984001089,302.4462417999748,316.0838580999989,None,True,2.0,['p'],False,0.375,0.5,0.25,1.0,1.0,0.9850568223215076,0.0332729833967032,unsucc_cost,1.0,0.0,312.47092760005035,None,xp7,1,2023-04-13_15h18.15.054,threat_forest,2021.2.3,60.03500040616538,True,69.0,0.39285714285714285,0.4464285714285714,-1.2665816326530612,-1.0684760015117158,0,0,1,-0.0726069302713879,0.0332729833967032,0.375,0.375,0.5,0.75,-1.25,-1.125,0.875,0.875,0.0,1.0,-1.0,2.0,0,0,0
12.0,0.0,12.0,0.0,0.0,0.0,0.0,0.0,322.1664974000305,325.67760700010695,None,left,1.6108056998346,329.4212024000008,xp7,322.1664974000305,325.67760700010695,329.4212024000008,None,False,5.0,['r'],False,0.3333333333333333,0.3333333333333333,0.0,0.0,1.0,0.5793801642856949,0.0363479425877699,wait_cost,1.0,4.0,,,xp7,1,2023-04-13_15h18.15.054,threat_forest,2021.2.3,60.03500040616538,False,43.0,0.41666666666666663,0.40476190476190477,-1.375,-1.3207908163265305,1,0,0,0.4767344885005728,0.0363479425877699,0.3333333333333333,0.3333333333333333,0.3333333333333333,1.0,-1.0000000000000002,-1.0000000000000002,4.0,4.0,0.0,1.0,-1.0,5.0,0,0,1
12.0,0.0,12.0,0.0,1.0,0.0,1.0,0.0,,,,right,1.5165504000615329,336.0484538001474,xp7,322.1664974000305,325.67760700010695,336.0484538001474,None,True,4.0,['r'],False,0.3333333333333333,0.3333333333333333,0.0,0.0,1.0,0.5793801642856949,0.0467425059879758,succ_gain,1.0,5.0,333.0675705000758,None,xp7,1,2023-04-13_15h18.15.054,threat_forest,2021.2.3,60.03500040616538,True,43.0,0.41666666666666663,0.40476190476190477,-1.375,-1.3207908163265305,1,0,1,0.4164382820561868,0.0467425059879758,0.3333333333333333,0.3333333333333333,0.3333333333333333,1.0,-1.0000000000000002,-1.0000000000000002,3.0,3.0,0.0,1.0,-1.0,4.0,0,0,1
12.0,0.0,12.0,0.0,2.0,0.0,2.0,0.0,,,,right,1.7104420000687242,340.27816570014693,xp7,340.27816570014693,None,337.59697930002585,339.6115681999363,False,5.0,['r'],True,0.25,0.5,0.5,2.0,1.0,0.9463946303571862,-0.0367416570216049,wait_cost,0.0,4.0,339.6115681999363,None,xp7,1,2023-04-13_15h18.15.054,threat_forest,2021.2.3,60.03500040616538,False,43.0,0.41666666666666663,0.40476190476190477,-1.375,-1.3207908163265305,0,0,0,0.5367518166868325,-0.0367416570216049,0.25,0.25,0.5,0.5,-2.0,-1.75,3.25,3.25,1.0,1.0,1.0,5.0,0,0,0
12.0,0.0,12.0,0.0,3.0,0.0,3.0,0.0,,,,right,2.433592300163582,346.1726281000301,xp7,342.00966980005614,344.02405570005067,346.1726281000301,None,True,4.0,['r'],False,0.3333333333333333,0.3333333333333333,0.0,0.0,1.0,0.5793801642856949,0.0627411265432098,succ_gain,1.0,5.0,344.02405570005067,None,xp7,1,2023-04-13_15h18.15.054,threat_forest,2021.2.3,60.03500040616538,True,43.0,0.41666666666666663,0.40476190476190477,-1.375,-1.3207908163265305,1,0,1,0.8893684785482862,0.0627411265432098,0.3333333333333333,0.3333333333333333,0.3333333333333333,1.0,-1.0000000000000002,-1.0000000000000002,3.0,3.0,0.0,1.0,-1.0,4.0,0,0,1
12.0,0.0,12.0,0.0,4.0,0.0,4.0,0.0,,,,right,1.2377082998864353,351.918484200025,xp7,351.918484200025,None,348.6367508000694,350.651271100156,False,5.0,['r'],True,0.25,0.5,0.5,2.0,1.0,0.9463946303571862,-0.4874131944444445,wait_cost,0.0,4.0,350.651271100156,None,xp7,1,2023-04-13_15h18.15.054,threat_forest,2021.2.3,60.03500040616538,False,43.0,0.41666666666666663,0.40476190476190477,-1.375,-1.3207908163265305,0,0,0,0.21326152443651172,-0.4874131944444445,0.0,0.25,0.5,0.5,-2.0,-1.75,3.25,3.25,1.0,1.0,1.0,5.0,0,0,0
12.0,0.0,12.0,0.0,5.0,0.0,5.0,0.0,,,,left,0.7997059000190347,357.98030980001204,xp7,353.1825007000007,355.1969701999333,357.98030980001204,None,False,4.0,['r'],False,0.3333333333333333,0.3333333333333333,0.0,0.0,1.0,0.5793801642856949,-0.4583333333333334,wait_cost,1.0,3.0,355.1969701999333,None,xp7,1,2023-04-13_15h18.15.054,threat_forest,2021.2.3,60.03500040616538,False,43.0,0.41666666666666663,0.40476190476190477,-1.375,-1.3207908163265305,1,0,0,-0.22351124388104374,-0.4583333333333334,0.0,0.3333333333333333,0.3333333333333333,1.0,-1.0000000000000002,-1.0000000000000002,3.0,3.0,0.0,1.0,-1.0,4.0,0,0,1
12.0,0.0,12.0,0.0,6.0,0.0,6.0,0.0,,,,left,0.8100582999177277,364.0889212000184,xp7,353.1825007000007,355.1969701999333,364.0889212000184,None,False,3.0,['r'],False,0.3333333333333333,0.3333333333333333,0.0,0.0,1.0,0.5793801642856949,-0.4722222222222222,wait_cost,1.0,2.0,360.8250680000056,None,xp7,1,2023-04-13_15h18.15.054,threat_forest,2021.2.3,60.03500040616538,False,43.0,0.41666666666666663,0.40476190476190477,-1.375,-1.3207908163265305,1,0,0,-0.2106490586986723,-0.4722222222222222,0.0,0.3333333333333333,0.3333333333333333,1.0,-1.0000000000000002,-1.0000000000000002,1.9999999999999998,1.9999999999999998,0.0,1.0,-1.0,3.0,0,0,1
12.0,0.0,12.0,0.0,7.0,0.0,7.0,0.0,,,,right,0.7847955001052469,368.2682541999966,xp7,368.2682541999966,None,364.9213374000974,366.9359290001448,False,2.0,['r'],True,0.25,0.5,0.5,2.0,1.0,0.9463946303571862,-0.75,wait_cost,0.0,1.0,366.9359290001448,None,xp7,1,2023-04-13_15h18.15.054,threat_forest,2021.2.3,60.03500040616538,False,43.0,0.41666666666666663,0.40476190476190477,-1.375,-1.3207908163265305,0,0,0,-0.24233210455826956,-0.75,0.0,0.25,0.5,0.5,-2.0,-1.75,0.25,0.25,1.0,1.0,-1.0,2.0,0,0,0
13.0,0.0,13.0,0.0,0.0,0.0,0.0,0.0,372.5065411000978,376.0108998999931,None,left,0.9576187999919056,379.0931776000653,xp7,372.5065411000978,376.0108998999931,379.0931776000653,None,False,5.0,['r'],False,0.3333333333333333,0.5,0.3333333333333333,2.0,2.0,1.0,-0.0164991778692271,wait_cost,1.0,4.0,,,xp7,1,2023-04-13_15h18.15.054,threat_forest,2021.2.3,60.03500040616538,False,2.0,0.45,0.43333333333333335,-0.7,-1.0375,1,0,0,-0.04330549252517038,-0.0164991778692271,0.3333333333333333,0.3333333333333333,0.5,0.6666666666666667,-1.0,-1.0,4.0,4.0,0.0,2.0,-1.0,5.0,0,0,1
13.0,0.0,13.0,0.0,1.0,0.0,1.0,0.0,,,,left,1.1416100999340415,383.9204506999813,xp7,383.9204506999813,None,380.0856612999924,382.08845020015724,True,4.0,['r'],True,0.4,0.4,0.0,0.0,2.0,0.6126016192893442,0.0736827160493828,unsucc_cost,0.0,2.0,382.0884502001573,None,xp7,1,2023-04-13_15h18.15.054,threat_forest,2021.2.3,60.03500040616538,True,2.0,0.45,0.43333333333333335,-0.7,-1.0375,1,0,1,0.1324396343155315,0.0736827160493828,0.4,0.4,0.4,1.0,-0.3999999999999999,-0.3999999999999999,3.6,3.6,1.0,2.0,-1.0,4.0,0,0,1
13.0,0.0,13.0,0.0,2.0,0.0,2.0,0.0,,,,left,0.9619541999418288,390.4475302000064,xp7,390.4475302000064,None,380.0856612999924,382.08845020015724,True,2.0,['r'],True,0.4,0.4,0.0,0.0,2.0,0.6126016192893442,0.0363703703703703,succ_gain,0.0,4.0,387.100487299962,None,xp7,1,2023-04-13_15h18.15.054,threat_forest,2021.2.3,60.03500040616538,True,2.0,0.45,0.43333333333333335,-0.7,-1.0375,1,0,1,-0.038788438657863,0.0363703703703703,0.4,0.4,0.4,1.0,-0.3999999999999999,-0.3999999999999999,1.6,1.6,1.0,2.0,-1.0,2.0,0,0,1
13.0,0.0,13.0,0.0,3.0,0.0,3.0,0.0,,,,right,1.6222218999173492,394.7790554999374,xp7,391.4301068000496,393.44446299993433,394.7790554999374,None,True,4.0,['r'],False,0.3333333333333333,0.5,0.3333333333333333,2.0,2.0,1.0,-0.0109382716049383,succ_gain,1.0,6.0,393.44446299993433,None,xp7,1,2023-04-13_15h18.15.054,threat_forest,2021.2.3,60.03500040616538,True,2.0,0.45,0.43333333333333335,-0.7,-1.0375,1,0,1,0.48379675269696554,-0.0109382716049383,0.3333333333333333,0.3333333333333333,0.5,0.6666666666666667,-1.0,-1.0,3.0,3.0,0.0,2.0,1.0,4.0,0,0,1
13.0,0.0,13.0,0.0,4.0,0.0,4.0,0.0,,,,right,1.0874699999112636,400.5599454001058,xp7,400.5599454001058,None,396.4253853999544,398.43984910007566,False,6.0,['r'],True,0.4,0.4,0.0,0.0,2.0,0.6126016192893442,0.0,wait_cost,0.0,5.0,398.43984910007566,None,xp7,1,2023-04-13_15h18.15.054,threat_forest,2021.2.3,60.03500040616538,False,2.0,0.45,0.43333333333333335,-0.7,-1.0375,1,0,0,0.08385389731170019,0.0,0.0,0.4,0.4,1.0,-0.3999999999999999,-0.3999999999999999,5.6,5.6,1.0,2.0,1.0,6.0,0,0,1
13.0,0.0,13.0,0.0,5.0,0.0,5.0,0.0,,,,right,0.637370300013572,405.4502699000295,xp7,405.4502699000295,None,396.4253853999544,398.43984910007566,False,5.0,['r'],True,0.4,0.4,0.0,0.0,2.0,0.6126016192893442,0.0,wait_cost,0.0,4.0,403.68492950010113,None,xp7,1,2023-04-13_15h18.15.054,threat_forest,2021.2.3,60.03500040616538,False,2.0,0.45,0.43333333333333335,-0.7,-1.0375,1,0,0,-0.45040447360761254,0.0,0.0,0.4,0.4,1.0,-0.3999999999999999,-0.3999999999999999,4.6,4.6,1.0,2.0,-1.0,5.0,0,0,1
13.0,0.0,13.0,0.0,6.0,0.0,6.0,0.0,,,,right,0.6636052001267672,410.27904319996014,xp7,410.27904319996014,None,396.4253853999544,398.43984910007566,False,4.0,['r'],True,0.4,0.4,0.0,0.0,2.0,0.6126016192893442,0.0,wait_cost,0.0,3.0,408.13086979999207,None,xp7,1,2023-04-13_15h18.15.054,threat_forest,2021.2.3,60.03500040616538,False,2.0,0.45,0.43333333333333335,-0.7,-1.0375,1,0,0,-0.41006788445971054,0.0,0.0,0.4,0.4,1.0,-0.3999999999999999,-0.3999999999999999,3.6,3.6,1.0,2.0,-1.0,4.0,0,0,1
13.0,0.0,13.0,0.0,7.0,0.0,7.0,0.0,,,,right,0.6132668999489397,415.5408720001578,xp7,415.5408720001578,None,396.4253853999544,398.43984910007566,False,3.0,['r'],True,0.4,0.4,0.0,0.0,2.0,0.6126016192893442,0.0,wait_cost,0.0,2.0,412.97631480009295,None,xp7,1,2023-04-13_15h18.15.054,threat_forest,2021.2.3,60.03500040616538,False,2.0,0.45,0.43333333333333335,-0.7,-1.0375,1,0,0,-0.4889550382143831,0.0,0.0,0.4,0.4,1.0,-0.3999999999999999,-0.3999999999999999,2.6,2.6,1.0,2.0,-1.0,3.0,0,0,1
14.0,0.0,14.0,0.0,0.0,0.0,0.0,0.0,419.9106469999533,423.41651440016,None,left,0.6907742000184953,424.1002995001618,xp7,419.9106469999533,423.41651440015994,424.1002995001618,None,False,5.0,['r'],False,0.4,0.4,0.0,0.0,1.0,0.6126016192893442,0.0454165613168723,wait_cost,1.0,4.0,,,xp7,1,2023-04-13_15h18.15.054,threat_forest,2021.2.3,60.03500040616538,False,7.0,0.45,0.45,-1.0666666666666667,-0.8833333333333333,1,0,0,-0.36994228138260893,0.0454165613168723,0.4,0.4,0.4,1.0,-0.7999999999999999,-0.7999999999999999,4.2,4.2,0.0,1.0,-1.0,5.0,0,0,1
14.0,0.0,14.0,0.0,1.0,0.0,1.0,0.0,,,,right,1.0912818999495355,429.3447263999842,xp7,419.9106469999533,423.41651440015994,429.3447263999842,None,True,4.0,['r'],False,0.4,0.4,0.0,0.0,1.0,0.6126016192893442,0.0610003292181069,succ_gain,1.0,5.0,426.83007559995167,None,xp7,1,2023-04-13_15h18.15.054,threat_forest,2021.2.3,60.03500040616538,True,7.0,0.45,0.45,-1.0666666666666667,-0.8833333333333333,1,0,1,0.08735306022967004,0.0610003292181069,0.4,0.4,0.4,1.0,-0.7999999999999999,-0.7999999999999999,3.2,3.2,0.0,1.0,-1.0,4.0,0,0,1
14.0,0.0,14.0,0.0,2.0,0.0,2.0,0.0,,,,right,1.35526920016855,434.47668630001135,xp7,434.47668630001135,None,430.4606703999452,432.4746999000199,False,5.0,['r'],True,0.3333333333333333,0.5,0.3333333333333333,2.0,1.0,1.0,-0.0025265432098766,wait_cost,0.0,4.0,432.4746999000199,None,xp7,1,2023-04-13_15h18.15.054,threat_forest,2021.2.3,60.03500040616538,False,7.0,0.45,0.45,-1.0666666666666667,-0.8833333333333333,0,0,0,0.30400010631016033,-0.0025265432098766,0.3333333333333333,0.3333333333333333,0.5,0.6666666666666667,-1.5,-1.3333333333333335,3.6666666666666665,3.6666666666666665,1.0,1.0,1.0,5.0,0,0,0
14.0,0.0,14.0,0.0,3.0,0.0,3.0,0.0,,,,right,1.0572658001910895,441.51669079996645,xp7,435.8552500000224,437.8696819001343,441.51669079996645,None,True,4.0,['r'],False,0.4,0.4,0.0,0.0,1.0,0.6126016192893442,0.0844777777777778,unsucc_cost,1.0,2.0,437.8696819001343,None,xp7,1,2023-04-13_15h18.15.054,threat_forest,2021.2.3,60.03500040616538,True,7.0,0.45,0.45,-1.0666666666666667,-0.8833333333333333,1,0,1,0.05568614187084098,0.0844777777777778,0.4,0.4,0.4,1.0,-0.7999999999999999,-0.7999999999999999,3.2,3.2,0.0,1.0,-1.0,4.0,0,0,1
14.0,0.0,14.0,0.0,4.0,0.0,4.0,0.0,,,,right,1.0053732998203486,445.1990066000726,xp7,435.8552500000224,437.8696819001343,445.1990066000726,None,True,2.0,['r'],False,0.4,0.4,0.0,0.0,1.0,0.6126016192893442,0.0745555555555556,unsucc_cost,1.0,0.0,444.6134604001418,None,xp7,1,2023-04-13_15h18.15.054,threat_forest,2021.2.3,60.03500040616538,True,7.0,0.45,0.45,-1.0666666666666667,-0.8833333333333333,1,0,1,0.00535891515062371,0.0745555555555556,0.4,0.4,0.4,1.0,-0.7999999999999999,-0.7999999999999999,1.2000000000000002,1.2000000000000002,0.0,1.0,-1.0,2.0,0,0,1
15.0,0.0,15.0,0.0,0.0,0.0,0.0,0.0,450.88492149999365,454.3777181000914,None,right,1.7674284998793155,456.5547887999565,xp7,456.5547887999565,None,450.88492149999365,454.37771810009144,False,4.0,['r'],True,0.2,0.2,0.0,0.0,2.0,0.4554859150035951,0.0111872651087291,wait_cost,0.0,3.0,,,xp7,1,2023-04-13_15h18.15.054,threat_forest,2021.2.3,60.03500040616538,False,26.0,0.2111111111111111,0.33055555555555555,-1.3654320987654323,-1.2160493827160495,1,0,0,0.5695256652853888,0.0111872651087291,0.2,0.2,0.2,1.0,-1.2000000000000002,-1.2000000000000002,2.8,2.8,1.0,2.0,-1.0,4.0,0,0,1
15.0,0.0,15.0,0.0,1.0,0.0,1.0,0.0,,,,right,1.4233984001912177,463.7656305001583,xp7,458.3509083001409,460.3654209000524,463.7656305001583,None,True,3.0,['r'],False,0.1728395061728395,0.2222222222222222,0.2222222222222222,2.0,2.0,0.8571721972794328,0.0246106580002458,unsucc_cost,1.0,1.0,460.3654209000524,None,xp7,1,2023-04-13_15h18.15.054,threat_forest,2021.2.3,60.03500040616538,True,26.0,0.2111111111111111,0.33055555555555555,-1.3654320987654323,-1.2160493827160495,0,0,1,0.3530472519476105,0.0246106580002458,0.1728395061728395,0.1728395061728395,0.2222222222222222,0.7777777777777778,-1.7777777777777777,-1.5308641975308643,1.4691358024691357,1.4691358024691357,0.0,2.0,-1.0,3.0,0,0,0
15.0,0.0,15.0,0.0,2.0,0.0,2.0,0.0,,,,left,1.266924700001255,470.389851400163,xp7,470.389851400163,None,465.2112180001568,467.2255713001359,True,1.0,['r'],True,0.2,0.2,0.0,0.0,2.0,0.4554859150035951,0.0455962341247779,unsucc_cost,0.0,0.0,467.2255713001359,None,xp7,1,2023-04-13_15h18.15.054,threat_forest,2021.2.3,60.03500040616538,True,26.0,0.2111111111111111,0.33055555555555555,-1.3654320987654323,-1.2160493827160495,1,0,1,0.23659246784536486,0.0455962341247779,1.0,0.2,0.2,1.0,-1.2000000000000002,-1.2000000000000002,-0.20000000000000018,0.0,1.0,2.0,-1.0,1.0,1,0,1
16.0,0.0,16.0,0.0,0.0,0.0,0.0,0.0,476.7103588001337,480.2134357001633,None,left,1.8297039000317452,483.1114291001577,xp7,483.1114291001577,None,476.7103588001337,480.21343570016325,True,4.0,['p'],True,0.4444444444444445,0.6666666666666666,0.3333333333333333,1.0,1.0,0.9656336071428248,0.0517531804924914,unsucc_cost,0.0,2.0,,,xp7,1,2023-04-13_15h18.15.054,threat_forest,2021.2.3,60.03500040616538,True,57.0,0.4583333333333333,0.3347222222222222,-1.34375,-1.3545910493827162,1,1,1,0.6041541505004283,0.0517531804924914,0.4444444444444445,0.4444444444444445,0.6666666666666666,0.6666666666666667,-1.0,-1.0,3.0,3.0,1.0,1.0,-1.0,4.0,0,1,1
16.0,0.0,16.0,0.0,1.0,0.0,1.0,0.0,,,,left,2.010826800018549,490.2209890000522,xp7,490.2209890000522,None,476.7103588001337,480.21343570016325,True,2.0,['p'],True,0.4444444444444445,0.6666666666666666,0.3333333333333333,1.0,1.0,0.9656336071428248,0.034685865190818,succ_gain,0.0,3.0,486.97447370016016,None,xp7,1,2023-04-13_15h18.15.054,threat_forest,2021.2.3,60.03500040616538,True,57.0,0.4583333333333333,0.3347222222222222,-1.34375,-1.3545910493827162,1,1,1,0.6985459807853356,0.034685865190818,0.4444444444444445,0.4444444444444445,0.6666666666666666,0.6666666666666667,-1.0,-1.0,1.0,1.0,1.0,1.0,-1.0,2.0,0,1,1
16.0,0.0,16.0,0.0,2.0,0.0,2.0,0.0,,,,left,1.032936500152573,497.2477804000955,xp7,497.2477804000955,None,476.7103588001337,480.21343570016325,True,3.0,['p'],True,0.4444444444444445,0.6666666666666666,0.3333333333333333,1.0,1.0,0.9656336071428248,0.0666724099085578,figh_cost,0.0,0.0,494.2674074999522,None,xp7,1,2023-04-13_15h18.15.054,threat_forest,2021.2.3,60.03500040616538,True,57.0,0.4583333333333333,0.3347222222222222,-1.34375,-1.3545910493827162,1,1,1,0.032405716953362175,0.0666724099085578,0.4444444444444445,0.4444444444444445,0.6666666666666666,0.6666666666666667,-1.0,-1.0,2.0,2.0,1.0,1.0,1.0,3.0,0,1,1
17.0,0.0,17.0,0.0,0.0,0.0,0.0,0.0,503.2366226001177,506.7386259001214,None,left,1.3023101000580937,508.00899969995953,xp7,508.00899969995953,None,503.2366226001177,506.7386259001214,True,5.0,['p'],True,0.16,0.2,0.2,2.0,2.0,0.8198746470064713,-0.013191945967,figh_cost,0.0,2.0,,,xp7,1,2023-04-13_15h18.15.054,threat_forest,2021.2.3,60.03500040616538,True,8.0,0.35,0.4041666666666667,-1.5300000000000002,-1.4368750000000001,0,0,1,0.26413968751553807,-0.013191945967,0.16,0.16,0.2,0.8,-1.8000000000000003,-1.5600000000000003,3.4399999999999995,3.4399999999999995,1.0,2.0,-1.0,5.0,0,0,0
17.0,0.0,17.0,0.0,1.0,0.0,1.0,0.0,,,,left,0.8100719000212848,512.6501039001159,xp7,512.6501039001159,None,503.2366226001177,506.7386259001214,True,2.0,['p'],True,0.16,0.2,0.2,2.0,2.0,0.8198746470064713,-0.006811320703125,unsucc_cost,0.0,0.0,511.3509782999754,None,xp7,1,2023-04-13_15h18.15.054,threat_forest,2021.2.3,60.03500040616538,True,8.0,0.35,0.4041666666666667,-1.5300000000000002,-1.4368750000000001,0,0,1,-0.21063226979669647,-0.006811320703125,0.16,0.16,0.2,0.8,-1.8000000000000003,-1.5600000000000003,0.4399999999999997,0.4399999999999997,1.0,2.0,-1.0,2.0,0,0,0
0.0,0.0,0.0,0.0,0.0,0.0,0.0,0.0,12.548002899857238,16.050140799954534,None,left,1.375551800010726,19.045621499884877,xp7,12.548002899857238,16.050140799954534,19.045621499884877,None,False,5.0,['r'],False,0.375,0.5,0.25,1.0,1.0,0.9850568223215076,0.0395346585071088,wait_cost,1.0,4.0,,,xp7,2,2023-04-13_15h27.31.475,threat_forest,2021.2.3,60.00787303700493,False,50.0,0.35,0.35,-1.2625000000000002,-1.3962500000000002,1,1,0,0.3188549597142851,0.0395346585071088,0.375,0.375,0.5,0.75,-1.25,-1.125,3.875,3.875,0.0,1.0,-1.0,5.0,0,1,1
0.0,0.0,0.0,0.0,1.0,0.0,1.0,0.0,,,,right,1.7756765999365598,23.348038099939004,xp7,23.348038099939004,None,20.44604799989611,22.46055669989437,False,4.0,['r'],True,0.2,0.2,0.0,0.0,1.0,0.4554859150035951,-0.0082427551269531,wait_cost,0.0,3.0,22.46055669989437,None,xp7,2,2023-04-13_15h27.31.475,threat_forest,2021.2.3,60.00787303700493,False,50.0,0.35,0.35,-1.2625000000000002,-1.3962500000000002,0,0,0,0.5741815333584228,-0.0082427551269531,0.2,0.2,0.2,1.0,-1.4000000000000001,-1.4000000000000001,2.5999999999999996,2.5999999999999996,1.0,1.0,-1.0,4.0,0,0,0
0.0,0.0,0.0,0.0,2.0,0.0,2.0,0.0,,,,left,1.060718100052327,29.937340299831703,xp7,29.937340299831703,None,20.44604799989611,22.46055669989437,True,3.0,['r'],True,0.2,0.2,0.0,0.0,1.0,0.4554859150035951,-0.0045679809570313,unsucc_cost,0.0,1.0,27.15612839977257,None,xp7,2,2023-04-13_15h27.31.475,threat_forest,2021.2.3,60.00787303700493,True,50.0,0.35,0.35,-1.2625000000000002,-1.3962500000000002,0,0,1,0.05894613163591212,-0.0045679809570313,0.2,0.2,0.2,1.0,-1.4000000000000001,-1.4000000000000001,1.5999999999999999,1.5999999999999999,1.0,1.0,-1.0,3.0,0,0,0
0.0,0.0,0.0,0.0,3.0,0.0,3.0,0.0,,,,right,1.0029403001535684,34.582876599859446,xp7,31.019633899908516,33.034000099869445,34.582876599859446,None,True,1.0,['r'],False,0.375,0.5,0.25,1.0,1.0,0.9850568223215076,0.049947509765625,succ_gain,1.0,2.0,33.034000099869445,None,xp7,2,2023-04-13_15h27.31.475,threat_forest,2021.2.3,60.00787303700493,True,50.0,0.35,0.35,-1.2625000000000002,-1.3962500000000002,1,1,1,0.002935985925752784,0.049947509765625,1.0,0.375,0.5,0.75,-1.25,-1.125,-0.125,0.0,0.0,1.0,-1.0,1.0,1,1,1
0.0,0.0,0.0,0.0,4.0,0.0,4.0,0.0,,,,left,1.742737099993974,40.2961610998027,xp7,40.2961610998027,None,35.6152016997803,37.62969119986519,True,2.0,['r'],True,0.2,0.2,0.0,0.0,1.0,0.4554859150035951,-0.0039531250000001,unsucc_cost,0.0,0.0,37.62969119986519,None,xp7,2,2023-04-13_15h27.31.475,threat_forest,2021.2.3,60.00787303700493,True,50.0,0.35,0.35,-1.2625000000000002,-1.3962500000000002,0,0,1,0.5554569232591265,-0.0039531250000001,0.2,0.2,0.2,1.0,-1.4000000000000001,-1.4000000000000001,0.5999999999999999,0.5999999999999999,1.0,1.0,1.0,2.0,0,0,0
1.0,0.0,1.0,0.0,0.0,0.0,0.0,0.0,45.55742909992114,49.05846929992549,None,left,2.1662981999106705,50.86836019996554,xp7,50.86836019996554,None,45.55742909992114,49.05846929992549,True,4.0,['r'],True,0.2222222222222222,0.3333333333333333,0.3333333333333333,2.0,2.0,0.9656336071428248,0.0156420001646662,unsucc_cost,0.0,2.0,,,xp7,2,2023-04-13_15h27.31.475,threat_forest,2021.2.3,60.00787303700493,True,63.0,0.26666666666666666,0.30833333333333335,-1.5022222222222226,-1.3823611111111114,0,0,1,0.7730198121916811,0.0156420001646662,0.2222222222222222,0.2222222222222222,0.3333333333333333,0.6666666666666667,-1.666666666666667,-1.4444444444444446,2.5555555555555554,2.5555555555555554,1.0,2.0,-1.0,4.0,0,0,0
1.0,0.0,1.0,0.0,1.0,0.0,1.0,0.0,,,,right,1.47384319989942,57.395153699908406,xp7,57.395153699908406,None,45.55742909992114,49.05846929992549,False,2.0,['r'],True,0.2222222222222222,0.3333333333333333,0.3333333333333333,2.0,2.0,0.9656336071428248,0.0119627879815068,wait_cost,0.0,1.0,55.08005269989371,None,xp7,2,2023-04-13_15h27.31.475,threat_forest,2021.2.3,60.00787303700493,False,63.0,0.26666666666666666,0.30833333333333335,-1.5022222222222226,-1.3823611111111114,0,0,0,0.38787341083556065,0.0119627879815068,0.2222222222222222,0.2222222222222222,0.3333333333333333,0.6666666666666667,-1.666666666666667,-1.4444444444444446,0.5555555555555554,0.5555555555555554,1.0,2.0,-1.0,2.0,0,0,0
1.0,0.0,1.0,0.0,2.0,0.0,2.0,0.0,,,,left,1.4113624000456184,62.72355559980497,xp7,62.72355559980497,None,45.55742909992114,49.05846929992549,True,1.0,['r'],True,0.2222222222222222,0.3333333333333333,0.3333333333333333,2.0,2.0,0.9656336071428248,0.0504359153923011,unsucc_cost,0.0,0.0,60.90784739982337,None,xp7,2,2023-04-13_15h27.31.475,threat_forest,2021.2.3,60.00787303700493,True,63.0,0.26666666666666666,0.30833333333333335,-1.5022222222222226,-1.3823611111111114,0,0,1,0.3445554790466693,0.0504359153923011,1.0,0.2222222222222222,0.3333333333333333,0.6666666666666667,-1.666666666666667,-1.4444444444444446,-0.44444444444444464,0.0,1.0,2.0,-1.0,1.0,1,0,0
2.0,0.0,2.0,0.0,0.0,0.0,0.0,0.0,68.52490559988655,72.03081689984538,None,right,0.852382899960503,73.58010079991072,xp7,68.52490559988655,72.03081689984538,73.58010079991072,None,True,4.0,['r'],False,0.4444444444444445,0.6666666666666666,0.3333333333333333,1.0,2.0,0.9656336071428248,0.0696585132666405,succ_gain,1.0,6.0,,,xp7,2,2023-04-13_15h27.31.475,threat_forest,2021.2.3,60.00787303700493,True,29.0,0.47619047619047616,0.37142857142857144,-0.8594104308390023,-1.1808163265306124,1,1,1,-0.15971944000946017,0.0696585132666405,0.4444444444444445,0.4444444444444445,0.6666666666666666,0.6666666666666667,-0.3333333333333335,-0.5555555555555556,3.4444444444444446,3.4444444444444446,0.0,2.0,-1.0,4.0,0,1,1
2.0,0.0,2.0,0.0,1.0,0.0,1.0,0.0,,,,left,1.88410530006513,78.74672509985976,xp7,78.74672509985976,None,74.46221229992807,76.47693029977381,True,6.0,['r'],True,0.2448979591836734,0.2857142857142857,0.1428571428571428,1.0,2.0,0.8400769154957735,-0.0717249489552175,unsucc_cost,0.0,4.0,76.47693029977381,None,xp7,2,2023-04-13_15h27.31.475,threat_forest,2021.2.3,60.00787303700493,True,29.0,0.47619047619047616,0.37142857142857144,-0.8594104308390023,-1.1808163265306124,1,0,1,0.6334530663466007,-0.0717249489552175,0.2448979591836734,0.2448979591836734,0.2857142857142857,0.8571428571428572,-1.2857142857142856,-1.163265306122449,4.836734693877551,4.836734693877551,1.0,2.0,1.0,6.0,0,0,1
2.0,0.0,2.0,0.0,2.0,0.0,2.0,0.0,,,,left,1.0979061999823898,84.66940289991908,xp7,84.66940289991908,None,74.46221229992807,76.47693029977381,True,4.0,['r'],True,0.2448979591836734,0.2857142857142857,0.1428571428571428,1.0,2.0,0.8400769154957735,-0.0372610548438117,unsucc_cost,0.0,2.0,82.67090429994278,None,xp7,2,2023-04-13_15h27.31.475,threat_forest,2021.2.3,60.00787303700493,True,29.0,0.47619047619047616,0.37142857142857144,-0.8594104308390023,-1.1808163265306124,1,0,1,0.0934049113711135,-0.0372610548438117,0.2448979591836734,0.2448979591836734,0.2857142857142857,0.8571428571428572,-1.2857142857142856,-1.163265306122449,2.836734693877551,2.836734693877551,1.0,2.0,-1.0,4.0,0,0,1
2.0,0.0,2.0,0.0,3.0,0.0,3.0,0.0,,,,right,0.9276983998715878,90.08088479982688,xp7,85.78506959998049,87.79942129994743,90.08088479982688,None,True,2.0,['r'],False,0.4444444444444445,0.6666666666666666,0.3333333333333333,1.0,2.0,0.9656336071428248,0.0944611684140408,unsucc_cost,1.0,0.0,87.79942129994743,None,xp7,2,2023-04-13_15h27.31.475,threat_forest,2021.2.3,60.00787303700493,True,29.0,0.47619047619047616,0.37142857142857144,-0.8594104308390023,-1.1808163265306124,1,1,1,-0.07504859915830223,0.0944611684140408,0.4444444444444445,0.4444444444444445,0.6666666666666666,0.6666666666666667,-0.3333333333333335,-0.5555555555555556,1.4444444444444444,1.4444444444444444,0.0,2.0,-1.0,2.0,0,1,1
3.0,0.0,3.0,0.0,0.0,0.0,0.0,0.0,95.80909809982404,99.3220805998426,None,left,1.02647570008412,101.256997999968,xp7,101.256997999968,None,95.80909809982404,99.3220805998426,True,4.0,['p'],True,0.4444444444444445,0.6666666666666666,0.3333333333333333,1.0,2.0,0.9656336071428248,0.0822356493687493,unsucc_cost,0.0,2.0,,,xp7,2,2023-04-13_15h27.31.475,threat_forest,2021.2.3,60.00787303700493,True,21.0,0.47619047619047616,0.47619047619047616,-1.012471655328798,-0.9359410430839001,1,0,1,0.02613128460446397,0.0822356493687493,0.4444444444444445,0.4444444444444445,0.6666666666666666,0.6666666666666667,-0.3333333333333335,-0.5555555555555556,3.4444444444444446,3.4444444444444446,1.0,2.0,-1.0,4.0,0,0,1
3.0,0.0,3.0,0.0,1.0,0.0,1.0,0.0,,,,left,1.00349700008519,106.81531419977546,xp7,106.81531419977546,None,95.80909809982404,99.3220805998426,True,2.0,['p'],True,0.4444444444444445,0.6666666666666666,0.3333333333333333,1.0,2.0,0.9656336071428248,0.0754537458767131,succ_gain,0.0,4.0,104.31734009995124,None,xp7,2,2023-04-13_15h27.31.475,threat_forest,2021.2.3,60.00787303700493,True,21.0,0.47619047619047616,0.47619047619047616,-1.012471655328798,-0.9359410430839001,1,0,1,0.0034908997980583503,0.0754537458767131,0.4444444444444445,0.4444444444444445,0.6666666666666666,0.6666666666666667,-0.3333333333333335,-0.5555555555555556,1.4444444444444444,1.4444444444444444,1.0,2.0,-1.0,2.0,0,0,1
3.0,0.0,3.0,0.0,2.0,0.0,2.0,0.0,,,,left,1.278215000173077,110.8291926998645,xp7,107.84771499992348,109.86226639989763,110.8291926998645,None,False,4.0,['p'],False,0.2040816326530612,0.2857142857142857,0.2857142857142857,2.0,2.0,0.9335459102197724,-0.0834532241401525,wait_cost,1.0,3.0,109.86226639989763,None,xp7,2,2023-04-13_15h27.31.475,threat_forest,2021.2.3,60.00787303700493,False,21.0,0.47619047619047616,0.47619047619047616,-1.012471655328798,-0.9359410430839001,0,0,0,0.24546457355329113,-0.0834532241401525,0.2040816326530612,0.2040816326530612,0.2857142857142857,0.7142857142857143,-1.7142857142857144,-1.4693877551020407,2.5306122448979593,2.5306122448979593,0.0,2.0,1.0,4.0,0,0,0
3.0,0.0,3.0,0.0,3.0,0.0,3.0,0.0,,,,right,0.882600300014019,115.77366399997844,xp7,107.84771499992348,109.86226639989763,115.77366399997844,None,True,3.0,['p'],False,0.2040816326530612,0.2857142857142857,0.2857142857142857,2.0,2.0,0.9335459102197724,-0.1057531009243147,unsucc_cost,1.0,1.0,114.141542899888,None,xp7,2,2023-04-13_15h27.31.475,threat_forest,2021.2.3,60.00787303700493,True,21.0,0.47619047619047616,0.47619047619047616,-1.012471655328798,-0.9359410430839001,0,0,1,-0.12488284222603757,-0.1057531009243147,0.2040816326530612,0.2040816326530612,0.2857142857142857,0.7142857142857143,-1.7142857142857144,-1.4693877551020407,1.5306122448979593,1.5306122448979593,0.0,2.0,-1.0,3.0,0,0,0
3.0,0.0,3.0,0.0,4.0,0.0,4.0,0.0,,,,right,1.9286833999212831,121.5186641998589,xp7,107.84771499992348,109.86226639989763,121.5186641998589,None,True,1.0,['p'],False,0.2040816326530612,0.2857142857142857,0.2857142857142857,2.0,2.0,0.9335459102197724,0.0919241468318242,succ_gain,1.0,3.0,118.6873177997768,None,xp7,2,2023-04-13_15h27.31.475,threat_forest,2021.2.3,60.00787303700493,True,21.0,0.47619047619047616,0.47619047619047616,-1.012471655328798,-0.9359410430839001,0,0,1,0.6568375939221424,0.0919241468318242,1.0,0.2040816326530612,0.2857142857142857,0.7142857142857143,-1.7142857142857144,-1.4693877551020407,-0.46938775510204067,0.0,0.0,2.0,-1.0,1.0,1,0,0
3.0,0.0,3.0,0.0,5.0,0.0,5.0,0.0,,,,left,2.292375900084153,126.68049859977329,xp7,107.84771499992348,109.86226639989763,126.68049859977329,None,False,3.0,['p'],False,0.2040816326530612,0.2857142857142857,0.2857142857142857,2.0,2.0,0.9335459102197724,-0.0148317830533574,wait_cost,1.0,2.0,125.4809139999561,None,xp7,2,2023-04-13_15h27.31.475,threat_forest,2021.2.3,60.00787303700493,False,21.0,0.47619047619047616,0.47619047619047616,-1.012471655328798,-0.9359410430839001,0,0,0,0.8295887906774168,-0.0148317830533574,0.2040816326530612,0.2040816326530612,0.2857142857142857,0.7142857142857143,-1.7142857142857144,-1.4693877551020407,1.5306122448979593,1.5306122448979593,0.0,2.0,1.0,3.0,0,0,0
3.0,0.0,3.0,0.0,6.0,0.0,6.0,0.0,,,,right,0.995306700002402,133.2437185999006,xp7,133.2437185999006,None,128.99461439996958,131.00900249998085,False,2.0,['p'],True,0.4444444444444445,0.6666666666666666,0.3333333333333333,1.0,2.0,0.9656336071428248,0.1201814058956916,wait_cost,0.0,1.0,131.00900249998085,None,xp7,2,2023-04-13_15h27.31.475,threat_forest,2021.2.3,60.00787303700493,False,21.0,0.47619047619047616,0.47619047619047616,-1.012471655328798,-0.9359410430839001,1,0,0,-0.004704348111661382,0.1201814058956916,0.4444444444444445,0.4444444444444445,0.6666666666666666,0.6666666666666667,-0.3333333333333335,-0.5555555555555556,1.4444444444444444,1.4444444444444444,1.0,2.0,-1.0,2.0,0,0,1
3.0,0.0,3.0,0.0,7.0,0.0,7.0,0.0,,,,right,1.7216825000941751,137.95279059978202,xp7,137.95279059978202,None,128.99461439996958,131.00900249998085,False,1.0,['p'],True,0.4444444444444445,0.6666666666666666,0.3333333333333333,1.0,2.0,0.9656336071428248,0.4444444444444444,wait_cost,0.0,0.0,136.27077159984037,None,xp7,2,2023-04-13_15h27.31.475,threat_forest,2021.2.3,60.00787303700493,False,21.0,0.47619047619047616,0.47619047619047616,-1.012471655328798,-0.9359410430839001,1,0,0,0.5433020104309088,0.4444444444444444,1.0,0.4444444444444445,0.6666666666666666,0.6666666666666667,-0.3333333333333335,-0.5555555555555556,0.4444444444444444,0.4444444444444444,1.0,2.0,-1.0,1.0,1,0,1
4.0,0.0,4.0,0.0,0.0,0.0,0.0,0.0,144.57271149987355,148.076463899808,None,right,1.1666606001090258,149.10957639990374,xp7,144.57271149987355,148.076463899808,149.10957639990374,None,True,5.0,['p'],False,0.4444444444444445,0.6666666666666666,0.3333333333333333,1.0,1.0,0.9656336071428248,0.0492535467687539,fight_cost,1.0,2.0,,,xp7,2,2023-04-13_15h27.31.475,threat_forest,2021.2.3,60.00787303700493,True,39.0,0.43333333333333335,0.45476190476190476,-1.2000000000000002,-1.106235827664399,1,0,1,0.15414547990718946,0.0492535467687539,0.4444444444444445,0.4444444444444445,0.6666666666666666,0.6666666666666667,-1.0,-1.0,4.0,4.0,0.0,1.0,-1.0,5.0,0,0,1
4.0,0.0,4.0,0.0,1.0,0.0,1.0,0.0,,,,right,1.860873800003901,153.0081547999289,xp7,153.0081547999289,None,150.30789629998617,152.3226306999568,False,2.0,['p'],True,0.2,0.2,0.0,0.0,1.0,0.4554859150035951,-0.0124906357431964,wait_cost,0.0,1.0,152.3226306999568,None,xp7,2,2023-04-13_15h27.31.475,threat_forest,2021.2.3,60.00787303700493,False,39.0,0.43333333333333335,0.45476190476190476,-1.2000000000000002,-1.106235827664399,0,0,0,0.6210461623590429,-0.0124906357431964,0.2,0.2,0.2,1.0,-1.4000000000000001,-1.4000000000000001,0.5999999999999999,0.5999999999999999,1.0,1.0,-1.0,2.0,0,0,0
4.0,0.0,4.0,0.0,2.0,0.0,2.0,0.0,,,,left,1.5439357999712229,159.14978739991784,xp7,159.14978739991784,None,150.30789629998617,152.3226306999568,True,1.0,['p'],True,0.2,0.2,0.0,0.0,1.0,0.4554859150035951,0.0313568815729309,unsucc_cost,0.0,0.0,156.90159659995695,None,xp7,2,2023-04-13_15h27.31.475,threat_forest,2021.2.3,60.00787303700493,True,39.0,0.43333333333333335,0.45476190476190476,-1.2000000000000002,-1.106235827664399,0,0,1,0.4343348704085797,0.0313568815729309,1.0,0.2,0.2,1.0,-1.4000000000000001,-1.4000000000000001,-0.40000000000000013,0.0,1.0,1.0,-1.0,1.0,1,0,0
5.0,0.0,5.0,0.0,0.0,0.0,0.0,0.0,164.17475059977733,167.67721389979124,None,right,1.1984149001073092,169.35902059986256,xp7,164.17475059977733,167.67721389979124,169.35902059986256,None,True,4.0,['p'],False,0.5185185185185185,0.6666666666666666,0.2222222222222222,2.0,2.0,0.9327883776363328,0.0236802094142134,unsucc_cost,1.0,2.0,,,xp7,2,2023-04-13_15h27.31.475,threat_forest,2021.2.3,60.00787303700493,True,60.0,0.6458333333333333,0.5395833333333333,0.17592592592592587,-0.5120370370370372,1,0,1,0.18099976703739423,0.0236802094142134,0.5185185185185185,0.5185185185185185,0.6666666666666666,0.7777777777777778,-1.1102230246251565e-16,-0.14814814814814825,3.8518518518518516,3.8518518518518516,0.0,2.0,-1.0,4.0,0,0,1
5.0,0.0,5.0,0.0,1.0,0.0,1.0,0.0,,,,left,1.2702933999244124,175.25267229997553,xp7,175.25267229997553,None,170.5891184997745,172.6034777997993,True,2.0,['p'],True,0.625,0.625,0.0,0.0,2.0,0.6021808102656677,0.0760437023991711,unsucc_cost,0.0,0.0,172.6034777997993,None,xp7,2,2023-04-13_15h27.31.475,threat_forest,2021.2.3,60.00787303700493,True,60.0,0.6458333333333333,0.5395833333333333,0.17592592592592587,-0.5120370370370372,1,1,1,0.23924789735119545,0.0760437023991711,0.625,0.625,0.625,1.0,0.5,0.5,2.5,2.5,1.0,2.0,-1.0,2.0,0,1,1
6.0,0.0,6.0,0.0,0.0,0.0,0.0,0.0,181.6048655998893,185.108516999986,None,right,0.6530160000547767,188.45624369988215,xp7,181.6048655998893,185.10851699998602,188.45624369988215,None,True,5.0,['r'],False,0.4444444444444445,0.6666666666666666,0.3333333333333333,1.0,1.0,0.9656336071428248,0.0480533547078672,fight_cost,1.0,2.0,,,xp7,2,2023-04-13_15h27.31.475,threat_forest,2021.2.3,60.00787303700493,True,5.0,0.4444444444444444,0.5451388888888888,-1.259259259259259,-0.5416666666666666,0,0,1,-0.4261536476249094,0.0480533547078672,0.4444444444444445,0.4444444444444445,0.6666666666666666,0.6666666666666667,-1.0,-1.0,4.0,4.0,0.0,1.0,-1.0,5.0,0,0,0
6.0,0.0,6.0,0.0,1.0,0.0,1.0,0.0,,,,right,1.4651343999430535,192.6208765998017,xp7,192.6208765998017,None,189.1382518999744,191.1528233999852,False,2.0,['r'],True,0.1975308641975308,0.2222222222222222,0.1111111111111111,1.0,1.0,0.7461067557824965,-0.0127461107108468,wait_cost,0.0,1.0,191.1528233999852,None,xp7,2,2023-04-13_15h27.31.475,threat_forest,2021.2.3,60.00787303700493,False,5.0,0.4444444444444444,0.5451388888888888,-1.259259259259259,-0.5416666666666666,0,0,0,0.3819469788365845,-0.0127461107108468,0.1975308641975308,0.1975308641975308,0.2222222222222222,0.8888888888888888,-1.6666666666666667,-1.5185185185185184,0.4814814814814816,0.4814814814814816,1.0,1.0,-1.0,2.0,0,0,0
6.0,0.0,6.0,0.0,2.0,0.0,2.0,0.0,,,,right,1.3340825999621302,199.32874469994567,xp7,194.11722119990736,196.13146719988436,199.32874469994567,None,True,1.0,['r'],False,0.4444444444444445,0.6666666666666666,0.3333333333333333,1.0,1.0,0.9656336071428248,0.0694949099607377,unsucc_cost,1.0,0.0,196.1314671998844,None,xp7,2,2023-04-13_15h27.31.475,threat_forest,2021.2.3,60.00787303700493,True,5.0,0.4444444444444444,0.5451388888888888,-1.259259259259259,-0.5416666666666666,0,0,1,0.28824386458862067,0.0694949099607377,1.0,0.4444444444444445,0.6666666666666666,0.6666666666666667,-1.0,-1.0,0.0,0.0,0.0,1.0,-1.0,1.0,1,0,0
7.0,0.0,7.0,0.0,0.0,0.0,0.0,0.0,205.33751629991457,208.8347731998656,None,left,1.0701522000599653,212.60318539990112,xp7,212.60318539990112,None,205.33751629991457,208.8347731998656,True,5.0,['r'],True,0.24,0.3,0.2,2.0,2.0,0.9003120349047065,-0.0305436800767033,succ_gain,0.0,6.0,,,xp7,2,2023-04-13_15h27.31.475,threat_forest,2021.2.3,60.00787303700493,True,15.0,0.4833333333333333,0.46388888888888885,-0.8977777777777778,-1.0785185185185184,0,0,1,0.06780088140492838,-0.0305436800767033,0.24,0.24,0.3,0.8,-1.4,-1.24,3.76,3.76,1.0,2.0,-1.0,5.0,0,0,0
7.0,0.0,7.0,0.0,1.0,0.0,1.0,0.0,,,,right,1.4373017998877913,216.57951269997284,xp7,216.57951269997284,None,205.33751629991457,208.8347731998656,False,6.0,['r'],True,0.24,0.3,0.2,2.0,2.0,0.9003120349047065,-0.0831804998354586,wait_cost,0.0,5.0,215.7132608999964,None,xp7,2,2023-04-13_15h27.31.475,threat_forest,2021.2.3,60.00787303700493,False,15.0,0.4833333333333333,0.46388888888888885,-0.8977777777777778,-1.0785185185185184,0,0,0,0.3627676058443487,-0.0831804998354586,0.24,0.24,0.3,0.8,-1.4,-1.24,4.76,4.76,1.0,2.0,1.0,6.0,0,0,0
7.0,0.0,7.0,0.0,2.0,0.0,2.0,0.0,,,,right,1.0206926001701504,223.04000919987448,xp7,218.04590049991384,220.05912639992312,223.04000919987448,None,True,5.0,['r'],False,0.4444444444444445,0.6666666666666666,0.3333333333333333,1.0,2.0,0.9656336071428248,0.0727072881708411,succ_gain,1.0,6.0,220.05912639992312,None,xp7,2,2023-04-13_15h27.31.475,threat_forest,2021.2.3,60.00787303700493,True,15.0,0.4833333333333333,0.46388888888888885,-0.8977777777777778,-1.0785185185185184,1,0,1,0.020481416641214726,0.0727072881708411,0.4444444444444445,0.4444444444444445,0.6666666666666666,0.6666666666666667,-0.3333333333333335,-0.5555555555555556,4.444444444444445,4.444444444444445,0.0,2.0,-1.0,5.0,0,0,1
7.0,0.0,7.0,0.0,3.0,0.0,3.0,0.0,,,,left,1.276136500062421,229.4173611998558,xp7,218.04590049991384,220.05912639992312,229.4173611998558,None,False,6.0,['r'],False,0.4444444444444445,0.6666666666666666,0.3333333333333333,1.0,2.0,0.9656336071428248,-0.2663506172839506,wait_cost,1.0,5.0,226.1034642998129,None,xp7,2,2023-04-13_15h27.31.475,threat_forest,2021.2.3,60.00787303700493,False,15.0,0.4833333333333333,0.46388888888888885,-0.8977777777777778,-1.0785185185185184,1,0,0,0.24383715417173335,-0.2663506172839506,0.0,0.4444444444444445,0.6666666666666666,0.6666666666666667,-0.3333333333333335,-0.5555555555555556,5.444444444444445,5.444444444444445,0.0,2.0,1.0,6.0,0,0,1
7.0,0.0,7.0,0.0,4.0,0.0,4.0,0.0,,,,right,0.8231919000390917,234.2831634997856,xp7,234.2831634997856,None,230.7161851997953,232.73059979989193,False,5.0,['r'],True,0.24,0.3,0.2,2.0,2.0,0.9003120349047065,-0.4147346172839505,wait_cost,0.0,4.0,232.73059979989196,None,xp7,2,2023-04-13_15h27.31.475,threat_forest,2021.2.3,60.00787303700493,False,15.0,0.4833333333333333,0.46388888888888885,-0.8977777777777778,-1.0785185185185184,0,0,0,-0.19456593411336467,-0.4147346172839505,0.0,0.24,0.3,0.8,-1.4,-1.24,3.76,3.76,1.0,2.0,-1.0,5.0,0,0,0
7.0,0.0,7.0,0.0,5.0,0.0,5.0,0.0,,,,right,0.8431438999250531,238.0929103998933,xp7,238.0929103998933,None,230.7161851997953,232.73059979989193,False,4.0,['r'],True,0.24,0.3,0.2,2.0,2.0,0.9003120349047065,-0.4712888888888888,wait_cost,0.0,3.0,237.14318419992924,None,xp7,2,2023-04-13_15h27.31.475,threat_forest,2021.2.3,60.00787303700493,False,15.0,0.4833333333333333,0.46388888888888885,-0.8977777777777778,-1.0785185185185184,0,0,0,-0.17061763575536232,-0.4712888888888888,0.0,0.24,0.3,0.8,-1.4,-1.24,2.76,2.76,1.0,2.0,-1.0,4.0,0,0,0
7.0,0.0,7.0,0.0,6.0,0.0,6.0,0.0,,,,right,0.6979277001228184,243.3544466998428,xp7,243.3544466998428,None,230.7161851997953,232.73059979989193,False,3.0,['r'],True,0.24,0.3,0.2,2.0,2.0,0.9003120349047065,-0.5683555555555555,wait_cost,0.0,2.0,240.97291659982875,None,xp7,2,2023-04-13_15h27.31.475,threat_forest,2021.2.3,60.00787303700493,False,15.0,0.4833333333333333,0.46388888888888885,-0.8977777777777778,-1.0785185185185184,0,0,0,-0.3596397630706308,-0.5683555555555555,0.0,0.24,0.3,0.8,-1.4,-1.24,1.76,1.76,1.0,2.0,-1.0,3.0,0,0,0
7.0,0.0,7.0,0.0,7.0,0.0,7.0,0.0,,,,right,0.8748661000281572,249.66536909993735,xp7,249.66536909993735,None,230.7161851997953,232.73059979989193,False,2.0,['r'],True,0.24,0.3,0.2,2.0,2.0,0.9003120349047065,-0.76,wait_cost,0.0,1.0,246.0847265999764,None,xp7,2,2023-04-13_15h27.31.475,threat_forest,2021.2.3,60.00787303700493,False,15.0,0.4833333333333333,0.46388888888888885,-0.8977777777777778,-1.0785185185185184,0,0,0,-0.13368443287383308,-0.76,0.0,0.24,0.3,0.8,-1.4,-1.24,0.76,0.76,1.0,2.0,-1.0,2.0,0,0,0
8.0,0.0,8.0,0.0,0.0,0.0,0.0,0.0,254.270747799892,257.7606297999155,None,left,1.7979090998414904,261.5373700999189,xp7,261.5373700999189,None,254.270747799892,257.7606297999155,True,5.0,['p'],True,0.48,0.6,0.2,1.0,1.0,0.9455672104350704,0.0603064788559827,succ_gain,0.0,6.0,,,xp7,2,2023-04-13_15h27.31.475,threat_forest,2021.2.3,60.00787303700493,True,4.0,0.4666666666666667,0.475,-0.9911111111111113,-0.9444444444444445,1,1,1,0.5866243785097327,0.0603064788559827,0.48,0.48,0.6,0.8,-0.8000000000000002,-0.7600000000000002,4.24,4.24,1.0,1.0,-1.0,5.0,0,1,1
8.0,0.0,8.0,0.0,1.0,0.0,1.0,0.0,,,,left,1.2454216999467462,267.4355206999462,xp7,263.3523308997974,265.3667775997892,267.4355206999462,None,False,6.0,['p'],False,0.2962962962962963,0.3333333333333333,0.1111111111111111,1.0,1.0,0.8325252476189534,-0.1377614848417467,wait_cost,1.0,5.0,265.3667775997892,None,xp7,2,2023-04-13_15h27.31.475,threat_forest,2021.2.3,60.00787303700493,False,4.0,0.4666666666666667,0.475,-0.9911111111111113,-0.9444444444444445,0,0,0,0.2194741873824211,-0.1377614848417467,0.2962962962962963,0.2962962962962963,0.3333333333333333,0.8888888888888888,-1.3333333333333335,-1.2222222222222223,4.777777777777778,4.777777777777778,0.0,1.0,1.0,6.0,0,0,0
8.0,0.0,8.0,0.0,2.0,0.0,2.0,0.0,,,,left,2.39684100006707,273.5095129997935,xp7,273.5095129997935,None,268.6974618998356,270.7117689999286,True,5.0,['p'],True,0.48,0.6,0.2,1.0,1.0,0.9455672104350704,0.0867185088675958,fight_cost,0.0,2.0,270.7117689999286,None,xp7,2,2023-04-13_15h27.31.475,threat_forest,2021.2.3,60.00787303700493,True,4.0,0.4666666666666667,0.475,-0.9911111111111113,-0.9444444444444445,1,1,1,0.8741516203639597,0.0867185088675958,0.48,0.48,0.6,0.8,-0.8000000000000002,-0.7600000000000002,4.24,4.24,1.0,1.0,-1.0,5.0,0,1,1
8.0,0.0,8.0,0.0,3.0,0.0,3.0,0.0,,,,right,2.1375488000921905,280.13667669985443,xp7,280.13667669985443,None,268.6974618998356,270.7117689999286,False,2.0,['p'],True,0.48,0.6,0.2,1.0,1.0,0.9455672104350704,0.0638323814540466,wait_cost,0.0,1.0,277.93834709981456,None,xp7,2,2023-04-13_15h27.31.475,threat_forest,2021.2.3,60.00787303700493,False,4.0,0.4666666666666667,0.475,-0.9911111111111113,-0.9444444444444445,1,1,0,0.7596597520206542,0.0638323814540466,0.48,0.48,0.6,0.8,-0.8000000000000002,-0.7600000000000002,1.2399999999999998,1.2399999999999998,1.0,1.0,-1.0,2.0,0,1,1
8.0,0.0,8.0,0.0,4.0,0.0,4.0,0.0,,,,left,1.5946664998773483,287.4963541999459,xp7,287.4963541999459,None,268.6974618998356,270.7117689999286,True,1.0,['p'],True,0.48,0.6,0.2,1.0,1.0,0.9455672104350704,0.2083555555555555,unsucc_cost,0.0,0.0,284.31570829986595,None,xp7,2,2023-04-13_15h27.31.475,threat_forest,2021.2.3,60.00787303700493,True,4.0,0.4666666666666667,0.475,-0.9911111111111113,-0.9444444444444445,1,1,1,0.4666646233882516,0.2083555555555555,1.0,0.48,0.6,0.8,-0.8000000000000002,-0.7600000000000002,0.23999999999999977,0.23999999999999977,1.0,1.0,-1.0,1.0,1,1,1
9.0,0.0,9.0,0.0,0.0,0.0,0.0,0.0,294.66056849993765,298.16943859984167,None,right,1.5396700999699533,299.66874729981646,xp7,299.66874729981646,None,294.66056849993765,298.16943859984167,False,5.0,['r'],True,0.36,0.6,0.4,2.0,1.0,0.9801625908629508,-0.019480620685,wait_cost,0.0,4.0,,,xp7,2,2023-04-13_15h27.31.475,threat_forest,2021.2.3,60.00787303700493,False,0.0,0.55,0.5083333333333333,-0.9100000000000001,-0.9505555555555557,0,0,0,0.4315681726782534,-0.019480620685,0.36,0.36,0.6,0.6,-1.4000000000000004,-1.3200000000000003,3.6799999999999997,3.6799999999999997,1.0,1.0,-1.0,5.0,0,0,0
9.0,0.0,9.0,0.0,1.0,0.0,1.0,0.0,,,,right,1.3274165000766516,304.51378559996374,xp7,301.2336696998682,303.24808059982024,304.51378559996374,None,True,4.0,['r'],False,0.5,0.5,0.0,0.0,1.0,0.6309297535714574,0.102124415,unsucc_cost,1.0,2.0,303.24808059982024,None,xp7,2,2023-04-13_15h27.31.475,threat_forest,2021.2.3,60.00787303700493,True,0.0,0.55,0.5083333333333333,-0.9100000000000001,-0.9505555555555557,1,0,1,0.28323457202507807,0.102124415,0.5,0.5,0.5,1.0,-0.5,-0.5,3.5,3.5,0.0,1.0,-1.0,4.0,0,0,1
9.0,0.0,9.0,0.0,2.0,0.0,2.0,0.0,,,,right,1.9666125001385808,310.1085547998082,xp7,301.2336696998682,303.24808059982024,310.1085547998082,None,True,2.0,['r'],False,0.5,0.5,0.0,0.0,1.0,0.6309297535714574,0.0700685,succ_gain,1.0,3.0,307.87699719984084,None,xp7,2,2023-04-13_15h27.31.475,threat_forest,2021.2.3,60.00787303700493,True,0.0,0.55,0.5083333333333333,-0.9100000000000001,-0.9505555555555557,1,0,1,0.6763125195618513,0.0700685,0.5,0.5,0.5,1.0,-0.5,-0.5,1.5,1.5,0.0,1.0,-1.0,2.0,0,0,1
9.0,0.0,9.0,0.0,3.0,0.0,3.0,0.0,,,,left,1.6770162999164313,317.5182941998355,xp7,301.2336696998682,303.24808059982024,317.5182941998355,None,False,3.0,['r'],False,0.5,0.5,0.0,0.0,1.0,0.6309297535714574,0.1769,wait_cost,1.0,2.0,314.12115179980174,None,xp7,2,2023-04-13_15h27.31.475,threat_forest,2021.2.3,60.00787303700493,False,0.0,0.55,0.5083333333333333,-0.9100000000000001,-0.9505555555555557,1,0,0,0.5170162024816304,0.1769,0.5,0.5,0.5,1.0,-0.5,-0.5,2.5,2.5,0.0,1.0,1.0,3.0,0,0,1
9.0,0.0,9.0,0.0,4.0,0.0,4.0,0.0,,,,right,0.8541109000798315,321.8975402999204,xp7,301.2336696998682,303.24808059982024,321.8975402999204,None,True,2.0,['r'],False,0.5,0.5,0.0,0.0,1.0,0.6309297535714574,0.0950499999999999,unsucc_cost,1.0,0.0,321.23122659977525,None,xp7,2,2023-04-13_15h27.31.475,threat_forest,2021.2.3,60.00787303700493,True,0.0,0.55,0.5083333333333333,-0.9100000000000001,-0.9505555555555557,1,0,1,-0.1576942340463353,0.0950499999999999,0.5,0.5,0.5,1.0,-0.5,-0.5,1.5,1.5,0.0,1.0,-1.0,2.0,0,0,1
10.0,0.0,10.0,0.0,0.0,0.0,0.0,0.0,325.55579159990884,329.05826319986954,None,right,1.2236218000762165,330.3091260998044,xp7,325.55579159990884,329.05826319986954,330.3091260998044,None,True,4.0,['p'],False,0.46875,0.625,0.25,2.0,2.0,0.9634951148421658,0.0168757334273511,unsucc_cost,1.0,2.0,,,xp7,2,2023-04-13_15h27.31.475,threat_forest,2021.2.3,60.00787303700493,True,19.0,0.5982142857142857,0.5741071428571429,-0.044642857142857206,-0.4773214285714287,1,0,1,0.20181514947802093,0.0168757334273511,0.46875,0.46875,0.625,0.75,-0.25,-0.375,3.625,3.625,0.0,2.0,-1.0,4.0,0,0,1
10.0,0.0,10.0,0.0,1.0,0.0,1.0,0.0,,,,left,1.1553696999326348,336.1177175999619,xp7,336.1177175999619,None,331.55525109986775,333.5696487999521,True,2.0,['p'],True,0.5714285714285714,0.5714285714285714,0.0,0.0,2.0,0.6216097450797566,0.0675204179955718,succ_gain,0.0,4.0,333.5696487999521,None,xp7,2,2023-04-13_15h27.31.475,threat_forest,2021.2.3,60.00787303700493,True,19.0,0.5982142857142857,0.5741071428571429,-0.044642857142857206,-0.4773214285714287,1,0,1,0.1444203792787568,0.0675204179955718,0.5714285714285714,0.5714285714285714,0.5714285714285714,1.0,0.2857142857142856,0.2857142857142856,2.2857142857142856,2.2857142857142856,1.0,2.0,-1.0,2.0,0,0,1
10.0,0.0,10.0,0.0,2.0,0.0,2.0,0.0,,,,left,1.2104911000933498,340.3304224999156,xp7,340.3304224999156,None,331.55525109986775,333.5696487999521,True,4.0,['p'],True,0.5714285714285714,0.5714285714285714,0.0,0.0,2.0,0.6216097450797566,0.0951639041707993,succ_gain,0.0,6.0,339.3142920997925,None,xp7,2,2023-04-13_15h27.31.475,threat_forest,2021.2.3,60.00787303700493,True,19.0,0.5982142857142857,0.5741071428571429,-0.044642857142857206,-0.4773214285714287,1,0,1,0.19102614511231852,0.0951639041707993,0.5714285714285714,0.5714285714285714,0.5714285714285714,1.0,0.2857142857142856,0.2857142857142856,4.285714285714286,4.285714285714286,1.0,2.0,1.0,4.0,0,0,1
10.0,0.0,10.0,0.0,3.0,0.0,3.0,0.0,,,,left,1.0290424001868814,344.79541019978933,xp7,341.5626135999337,343.5770070999861,344.79541019978933,None,False,6.0,['p'],False,0.46875,0.625,0.25,2.0,2.0,0.9634951148421658,-0.1360449499013472,wait_cost,1.0,5.0,343.5770070999861,None,xp7,2,2023-04-13_15h27.31.475,threat_forest,2021.2.3,60.00787303700493,False,19.0,0.5982142857142857,0.5741071428571429,-0.044642857142857206,-0.4773214285714287,1,0,0,0.028628661238064727,-0.1360449499013472,0.0,0.46875,0.625,0.75,-0.25,-0.375,5.625,5.625,0.0,2.0,1.0,6.0,0,0,1
10.0,0.0,10.0,0.0,4.0,0.0,4.0,0.0,,,,right,0.5165327999275178,350.25469649978913,xp7,350.25469649978913,None,345.8420467998367,347.85667729983106,False,5.0,['p'],True,0.5714285714285714,0.5714285714285714,0.0,0.0,2.0,0.6216097450797566,-0.1265680518859329,wait_cost,0.0,4.0,347.85667729983106,None,xp7,2,2023-04-13_15h27.31.475,threat_forest,2021.2.3,60.00787303700493,False,19.0,0.5982142857142857,0.5741071428571429,-0.044642857142857206,-0.4773214285714287,1,0,0,-0.6606164882228407,-0.1265680518859329,0.0,0.5714285714285714,0.5714285714285714,1.0,0.2857142857142856,0.2857142857142856,5.285714285714286,5.285714285714286,1.0,2.0,-1.0,5.0,0,0,1
10.0,0.0,10.0,0.0,5.0,0.0,5.0,0.0,,,,left,1.3299887001048774,353.4053299999796,xp7,350.80390319996513,352.81835089996457,353.4053299999796,None,False,4.0,['p'],False,0.46875,0.625,0.25,2.0,2.0,0.9634951148421658,-0.2477329799107143,wait_cost,1.0,3.0,352.81835089996457,None,xp7,2,2023-04-13_15h27.31.475,threat_forest,2021.2.3,60.00787303700493,False,19.0,0.5982142857142857,0.5741071428571429,-0.044642857142857206,-0.4773214285714287,1,0,0,0.2851704460358235,-0.2477329799107143,0.0,0.46875,0.625,0.75,-0.25,-0.375,3.625,3.625,0.0,2.0,-1.0,4.0,0,0,1
10.0,0.0,10.0,0.0,6.0,0.0,6.0,0.0,,,,left,1.018868900137022,357.4814365999773,xp7,350.80390319996513,352.81835089996457,357.4814365999773,None,False,3.0,['p'],False,0.46875,0.625,0.25,2.0,2.0,0.9634951148421658,-0.3849748883928571,wait_cost,1.0,2.0,356.7813295999076,None,xp7,2,2023-04-13_15h27.31.475,threat_forest,2021.2.3,60.00787303700493,False,19.0,0.5982142857142857,0.5741071428571429,-0.044642857142857206,-0.4773214285714287,1,0,0,0.018693090553585985,-0.3849748883928571,0.0,0.46875,0.625,0.75,-0.25,-0.375,2.625,2.625,0.0,2.0,-1.0,3.0,0,0,1
10.0,0.0,10.0,0.0,7.0,0.0,7.0,0.0,,,,right,0.9594433999154716,362.29322229977697,xp7,362.29322229977697,None,358.53018209990114,360.544468899956,False,2.0,['p'],True,0.5714285714285714,0.5714285714285714,0.0,0.0,2.0,0.6216097450797566,-0.4285714285714286,wait_cost,0.0,1.0,360.544468899956,None,xp7,2,2023-04-13_15h27.31.475,threat_forest,2021.2.3,60.00787303700493,False,19.0,0.5982142857142857,0.5741071428571429,-0.044642857142857206,-0.4773214285714287,1,0,0,-0.04140195441920724,-0.4285714285714286,0.0,0.5714285714285714,0.5714285714285714,1.0,0.2857142857142856,0.2857142857142856,2.2857142857142856,2.2857142857142856,1.0,2.0,-1.0,2.0,0,0,1
11.0,0.0,11.0,0.0,0.0,0.0,0.0,0.0,367.7980029999744,371.3011901997961,None,right,1.6119925999082625,374.11740329978056,xp7,367.7980029999744,371.3011901997961,374.11740329978056,None,True,5.0,['p'],False,0.3061224489795918,0.4285714285714285,0.2857142857142857,2.0,2.0,0.9885754083994552,-0.0154423019709537,unsucc_cost,1.0,3.0,,,xp7,2,2023-04-13_15h27.31.475,threat_forest,2021.2.3,60.00787303700493,True,33.0,0.41428571428571426,0.50625,-0.7306122448979593,-0.38762755102040825,0,0,1,0.47747105344627083,-0.0154423019709537,0.3061224489795918,0.3061224489795918,0.4285714285714285,0.7142857142857143,-1.1428571428571432,-1.0612244897959187,3.9387755102040813,3.9387755102040813,0.0,2.0,-1.0,5.0,0,0,0
11.0,0.0,11.0,0.0,1.0,0.0,1.0,0.0,,,,left,1.7086650000419468,379.959964599926,xp7,379.959964599926,None,375.7472677999176,377.76218510000035,True,3.0,['p'],True,0.4,0.4,0.0,0.0,2.0,0.6126016192893442,0.1347766176536976,unsucc_cost,0.0,1.0,377.7621851000004,None,xp7,2,2023-04-13_15h27.31.475,threat_forest,2021.2.3,60.00787303700493,True,33.0,0.41428571428571426,0.50625,-0.7306122448979593,-0.38762755102040825,0,0,1,0.535712363878413,0.1347766176536976,0.4,0.4,0.4,1.0,-0.3999999999999999,-0.3999999999999999,2.6,2.6,1.0,2.0,-1.0,3.0,0,0,0
11.0,0.0,11.0,0.0,2.0,0.0,2.0,0.0,,,,right,0.9315994000062346,386.1376269999892,xp7,381.6918149997946,383.70621859980747,386.1376269999892,None,True,1.0,['p'],False,0.3061224489795918,0.4285714285714285,0.2857142857142857,2.0,2.0,0.9885754083994552,0.1370112372093173,succ_gain,1.0,3.0,383.7062185998074,None,xp7,2,2023-04-13_15h27.31.475,threat_forest,2021.2.3,60.00787303700493,True,33.0,0.41428571428571426,0.50625,-0.7306122448979593,-0.38762755102040825,0,0,1,-0.07085238501870784,0.1370112372093173,1.0,0.3061224489795918,0.4285714285714285,0.7142857142857143,-1.1428571428571432,-1.0612244897959187,-0.06122448979591866,0.0,0.0,2.0,-1.0,1.0,1,0,0
11.0,0.0,11.0,0.0,3.0,0.0,3.0,0.0,,,,left,1.3319405000656843,390.8836465999484,xp7,381.6918149997946,383.70621859980747,390.8836465999484,None,False,3.0,['p'],False,0.3061224489795918,0.4285714285714285,0.2857142857142857,2.0,2.0,0.9885754083994552,0.0061171946785325,wait_cost,1.0,2.0,389.1011889998336,None,xp7,2,2023-04-13_15h27.31.475,threat_forest,2021.2.3,60.00787303700493,False,33.0,0.41428571428571426,0.50625,-0.7306122448979593,-0.38762755102040825,0,0,0,0.28663690150012305,0.0061171946785325,0.3061224489795918,0.3061224489795918,0.4285714285714285,0.7142857142857143,-1.1428571428571432,-1.0612244897959187,1.9387755102040813,1.9387755102040813,0.0,2.0,1.0,3.0,0,0,0
11.0,0.0,11.0,0.0,4.0,0.0,4.0,0.0,,,,left,0.8113649999722838,396.9941309997812,xp7,396.9941309997812,None,392.23192389984615,394.2463565999642,True,2.0,['p'],True,0.4,0.4,0.0,0.0,2.0,0.6126016192893442,0.046938775510204,unsucc_cost,0.0,0.0,394.2463565999642,None,xp7,2,2023-04-13_15h27.31.475,threat_forest,2021.2.3,60.00787303700493,True,33.0,0.41428571428571426,0.50625,-0.7306122448979593,-0.38762755102040825,0,0,1,-0.2090372644959711,0.046938775510204,0.4,0.4,0.4,1.0,-0.3999999999999999,-0.3999999999999999,1.6,1.6,1.0,2.0,-1.0,2.0,0,0,0
12.0,0.0,12.0,0.0,0.0,0.0,0.0,0.0,402.5684920998756,406.0730229998008,None,left,1.537682300200686,407.24374309997074,xp7,407.24374309997074,None,402.5684920998756,406.07302299980074,True,5.0,['r'],True,0.2857142857142857,0.2857142857142857,0.0,0.0,2.0,0.5445684476282007,0.0313986794861317,succ_gain,0.0,6.0,,,xp7,2,2023-04-13_15h27.31.475,threat_forest,2021.2.3,60.00787303700493,True,55.0,0.2928571428571428,0.35357142857142854,-1.0485714285714285,-0.8895918367346939,1,0,1,0.4302762829059782,0.0313986794861317,0.2857142857142857,0.2857142857142857,0.2857142857142857,1.0,-0.8571428571428572,-0.8571428571428572,4.142857142857142,4.142857142857142,1.0,2.0,-1.0,5.0,0,0,1
12.0,0.0,12.0,0.0,1.0,0.0,1.0,0.0,,,,right,0.9436874999664724,413.6124071998056,xp7,413.6124071998056,None,402.5684920998756,406.07302299980074,False,6.0,['r'],True,0.2857142857142857,0.2857142857142857,0.0,0.0,2.0,0.5445684476282007,-0.0694900810376628,wait_cost,0.0,5.0,410.8141914999578,None,xp7,2,2023-04-13_15h27.31.475,threat_forest,2021.2.3,60.00787303700493,False,55.0,0.2928571428571428,0.35357142857142854,-1.0485714285714285,-0.8895918367346939,1,0,0,-0.0579602058129769,-0.0694900810376628,0.2857142857142857,0.2857142857142857,0.2857142857142857,1.0,-0.8571428571428572,-0.8571428571428572,5.142857142857142,5.142857142857142,1.0,2.0,1.0,6.0,0,0,1
12.0,0.0,12.0,0.0,2.0,0.0,2.0,0.0,,,,right,0.812126100063324,419.8231655999553,xp7,419.8231655999553,None,402.5684920998756,406.07302299980074,False,5.0,['r'],True,0.2857142857142857,0.2857142857142857,0.0,0.0,2.0,0.5445684476282007,0.0689652861783781,wait_cost,0.0,4.0,416.5922017998528,None,xp7,2,2023-04-13_15h27.31.475,threat_forest,2021.2.3,60.00787303700493,False,55.0,0.2928571428571428,0.35357142857142854,-1.0485714285714285,-0.8895918367346939,1,0,0,-0.2080996552330918,0.0689652861783781,0.2857142857142857,0.2857142857142857,0.2857142857142857,1.0,-0.8571428571428572,-0.8571428571428572,4.142857142857142,4.142857142857142,1.0,2.0,-1.0,5.0,0,0,1
12.0,0.0,12.0,0.0,3.0,0.0,3.0,0.0,,,,right,0.9169212998822333,424.5402545998804,xp7,420.6554624999408,422.6697357997764,424.5402545998804,None,True,4.0,['r'],False,0.24,0.3,0.2,2.0,2.0,0.9003120349047065,-0.0141113842565596,unsucc_cost,1.0,2.0,422.6697357997764,None,xp7,2,2023-04-13_15h27.31.475,threat_forest,2021.2.3,60.00787303700493,True,55.0,0.2928571428571428,0.35357142857142854,-1.0485714285714285,-0.8895918367346939,0,0,1,-0.08673363387411102,-0.0141113842565596,0.24,0.24,0.3,0.8,-1.4,-1.24,2.76,2.76,0.0,2.0,-1.0,4.0,0,0,0
12.0,0.0,12.0,0.0,4.0,0.0,4.0,0.0,,,,right,1.245509000029415,429.0145302999299,xp7,420.6554624999408,422.6697357997764,429.0145302999299,None,True,2.0,['r'],False,0.24,0.3,0.2,2.0,2.0,0.9003120349047065,-0.0228571428571429,unsucc_cost,1.0,0.0,427.4986795999576,None,xp7,2,2023-04-13_15h27.31.475,threat_forest,2021.2.3,60.00787303700493,True,55.0,0.2928571428571428,0.35357142857142854,-1.0485714285714285,-0.8895918367346939,0,0,1,0.21954428173125645,-0.0228571428571429,0.24,0.24,0.3,0.8,-1.4,-1.24,0.76,0.76,0.0,2.0,-1.0,2.0,0,0,0
13.0,0.0,13.0,0.0,0.0,0.0,0.0,0.0,434.5119883997832,438.0221382998861,None,left,1.1023533998522907,440.4368932999205,xp7,440.4368932999205,None,434.5119883997832,438.02213829988614,True,4.0,['p'],True,0.25,0.5,0.5,2.0,2.0,0.9463946303571862,-0.0085880818517447,fight_cost,0.0,1.0,,,xp7,2,2023-04-13_15h27.31.475,threat_forest,2021.2.3,60.00787303700493,True,70.0,0.41666666666666663,0.3547619047619047,-1.0833333333333335,-1.065952380952381,0,0,1,0.09744734884196403,-0.0085880818517447,0.25,0.25,0.5,0.5,-1.5,-1.5,2.5,2.5,1.0,2.0,-1.0,4.0,0,0,0
13.0,0.0,13.0,0.0,1.0,0.0,1.0,0.0,,,,left,1.967761700041592,447.2810337999836,xp7,447.2810337999836,None,434.5119883997832,438.02213829988614,True,1.0,['p'],True,0.25,0.5,0.5,2.0,2.0,0.9463946303571862,0.0553943021797839,fight_cost,0.0,0.0,443.5835057999939,None,xp7,2,2023-04-13_15h27.31.475,threat_forest,2021.2.3,60.00787303700493,True,70.0,0.41666666666666663,0.3547619047619047,-1.0833333333333335,-1.065952380952381,0,0,1,0.6768967039211534,0.0553943021797839,1.0,0.25,0.5,0.5,-1.5,-1.5,-0.5,0.0,1.0,2.0,-1.0,1.0,1,0,0
14.0,0.0,14.0,0.0,0.0,0.0,0.0,0.0,453.8359364999924,457.3377424997743,None,left,0.938427599845454,458.4033902999945,xp7,458.4033902999945,None,453.8359364999924,457.3377424997743,True,5.0,['r'],True,0.5555555555555556,0.6666666666666666,0.1666666666666666,1.0,2.0,0.8929352898779306,0.0304669022621303,fight_cost,0.0,2.0,,,xp7,2,2023-04-13_15h27.31.475,threat_forest,2021.2.3,60.00787303700493,True,51.0,0.5555555555555556,0.4861111111111111,-0.2376543209876542,-0.6604938271604939,1,1,1,-0.06354957047536906,0.0304669022621303,0.5555555555555556,0.5555555555555556,0.6666666666666666,0.8333333333333334,0.16666666666666674,0.05555555555555569,5.055555555555555,5.055555555555555,1.0,2.0,-1.0,5.0,0,1,1
14.0,0.0,14.0,0.0,1.0,0.0,1.0,0.0,,,,left,0.96235779998824,464.4981085998006,xp7,464.4981085998006,None,453.8359364999924,457.3377424997743,True,2.0,['r'],True,0.5555555555555556,0.6666666666666666,0.1666666666666666,1.0,2.0,0.8929352898779306,0.0825086185077658,unsucc_cost,0.0,0.0,461.3836600999348,None,xp7,2,2023-04-13_15h27.31.475,threat_forest,2021.2.3,60.00787303700493,True,51.0,0.5555555555555556,0.4861111111111111,-0.2376543209876542,-0.6604938271604939,1,1,1,-0.03836896400682522,0.0825086185077658,0.5555555555555556,0.5555555555555556,0.6666666666666666,0.8333333333333334,0.16666666666666674,0.05555555555555569,2.055555555555556,2.055555555555556,1.0,2.0,-1.0,2.0,0,1,1
15.0,0.0,15.0,0.0,0.0,0.0,0.0,0.0,468.7878562998958,472.27930159983225,None,right,2.1598959998227656,475.2043444998562,xp7,475.2043444998562,None,468.7878562998958,472.27930159983225,False,5.0,['p'],True,0.4166666666666667,0.5,0.1666666666666666,1.0,2.0,0.9358932809493992,0.0277169847623575,wait_cost,0.0,4.0,,,xp7,2,2023-04-13_15h27.31.475,threat_forest,2021.2.3,60.00787303700493,False,22.0,0.41666666666666663,0.4861111111111111,-0.7129629629629629,-0.47530864197530853,0,0,0,0.7700600723067093,0.0277169847623575,0.4166666666666667,0.4166666666666667,0.5,0.8333333333333334,-0.4999999999999998,-0.4999999999999998,4.5,4.5,1.0,2.0,-1.0,5.0,0,0,0
15.0,0.0,15.0,0.0,1.0,0.0,1.0,0.0,,,,left,0.9610919000115246,480.33280669990927,xp7,480.33280669990927,None,468.7878562998958,472.27930159983225,True,4.0,['p'],True,0.4166666666666667,0.5,0.1666666666666666,1.0,2.0,0.9358932809493992,0.0740380070829472,unsucc_cost,0.0,2.0,479.4003109999466,None,xp7,2,2023-04-13_15h27.31.475,threat_forest,2021.2.3,60.00787303700493,True,22.0,0.41666666666666663,0.4861111111111111,-0.7129629629629629,-0.47530864197530853,0,0,1,-0.039685245019518194,0.0740380070829472,0.4166666666666667,0.4166666666666667,0.5,0.8333333333333334,-0.4999999999999998,-0.4999999999999998,3.5,3.5,1.0,2.0,-1.0,4.0,0,0,0
15.0,0.0,15.0,0.0,2.0,0.0,2.0,0.0,,,,left,2.2249567001126707,484.030924399849,xp7,481.3152550999075,483.3296982999891,484.030924399849,None,False,2.0,['p'],False,0.2962962962962963,0.3333333333333333,0.1111111111111111,1.0,2.0,0.8325252476189534,-0.0199136464224679,wait_cost,1.0,1.0,483.3296982999891,None,xp7,2,2023-04-13_15h27.31.475,threat_forest,2021.2.3,60.00787303700493,False,22.0,0.41666666666666663,0.4861111111111111,-0.7129629629629629,-0.47530864197530853,0,0,0,0.7997374548053243,-0.0199136464224679,0.2962962962962963,0.2962962962962963,0.3333333333333333,0.8888888888888888,-1.0000000000000002,-0.925925925925926,1.074074074074074,1.074074074074074,0.0,2.0,-1.0,2.0,0,0,0
15.0,0.0,15.0,0.0,3.0,0.0,3.0,0.0,,,,right,1.0258480999618769,490.2069804999046,xp7,481.3152550999075,483.3296982999891,490.2069804999046,None,True,1.0,['p'],False,0.2962962962962963,0.3333333333333333,0.1111111111111111,1.0,2.0,0.8325252476189534,0.1589252146522379,unsucc_cost,1.0,0.0,488.2917102999054,None,xp7,2,2023-04-13_15h27.31.475,threat_forest,2021.2.3,60.00787303700493,True,22.0,0.41666666666666663,0.4861111111111111,-0.7129629629629629,-0.47530864197530853,0,0,1,0.025519685068569945,0.1589252146522379,1.0,0.2962962962962963,0.3333333333333333,0.8888888888888888,-1.0000000000000002,-0.925925925925926,0.07407407407407396,0.07407407407407396,0.0,2.0,-1.0,1.0,1,0,0
16.0,0.0,16.0,0.0,0.0,0.0,0.0,0.0,495.8784845999908,499.3815392998513,None,right,1.1608088000211865,500.6640865998343,xp7,495.8784845999908,499.3815392998513,500.6640865998343,None,True,4.0,['p'],False,0.375,0.5,0.25,1.0,1.0,0.9850568223215076,0.033201148802433,unsucc_cost,1.0,2.0,,,xp7,2,2023-04-13_15h27.31.475,threat_forest,2021.2.3,60.00787303700493,True,11.0,0.35,0.3833333333333333,-1.3425000000000002,-1.0277314814814815,0,0,1,0.14911700355599247,0.033201148802433,0.375,0.375,0.5,0.75,-1.25,-1.125,2.875,2.875,0.0,1.0,-1.0,4.0,0,0,0
16.0,0.0,16.0,0.0,1.0,0.0,1.0,0.0,,,,right,1.2240958001930269,506.8293447999749,xp7,506.8293447999749,None,501.84628609986976,503.86049329978414,False,2.0,['p'],True,0.18,0.2,0.1,1.0,1.0,0.7058405977926203,-0.0065236749060059,wait_cost,0.0,1.0,503.86049329978414,None,xp7,2,2023-04-13_15h27.31.475,threat_forest,2021.2.3,60.00787303700493,False,11.0,0.35,0.3833333333333333,-1.3425000000000002,-1.0277314814814815,0,0,0,0.20220244915890184,-0.0065236749060059,0.18,0.18,0.2,0.9,-1.7000000000000002,-1.5600000000000003,0.4399999999999997,0.4399999999999997,1.0,1.0,-1.0,2.0,0,0,0
16.0,0.0,16.0,0.0,2.0,0.0,2.0,0.0,,,,right,1.2028771000914276,513.0688891999889,xp7,508.0737266999204,510.08838769979775,513.0688891999889,None,True,1.0,['p'],False,0.375,0.5,0.25,1.0,1.0,0.9850568223215076,0.0428220840454101,unsucc_cost,1.0,0.0,510.08838769979775,None,xp7,2,2023-04-13_15h27.31.475,threat_forest,2021.2.3,60.00787303700493,True,11.0,0.35,0.3833333333333333,-1.3425000000000002,-1.0277314814814815,0,0,1,0.184716270586224,0.0428220840454101,1.0,0.375,0.5,0.75,-1.25,-1.125,-0.125,0.0,0.0,1.0,-1.0,1.0,1,0,0
17.0,0.0,17.0,0.0,0.0,0.0,0.0,0.0,518.6203846998978,522.1267747997772,None,left,1.1332412001211196,525.3411982997786,xp7,525.3411982997786,None,518.6203846998978,522.1267747997772,True,4.0,['r'],True,0.5,0.5,0.0,0.0,2.0,0.6309297535714574,0.0723560159877321,succ_gain,0.0,6.0,,,xp7,2,2023-04-13_15h27.31.475,threat_forest,2021.2.3,60.00787303700493,True,14.0,0.5357142857142857,0.44285714285714284,-0.326530612244898,-0.8345153061224491,1,1,1,0.125081845638692,0.0723560159877321,0.5,0.5,0.5,1.0,0.0,0.0,4.0,4.0,1.0,2.0,-1.0,4.0,0,1,1
17.0,0.0,17.0,0.0,1.0,0.0,1.0,0.0,,,,right,1.3431826999876648,531.0853156999219,xp7,531.0853156999219,None,518.6203846998978,522.1267747997772,False,6.0,['r'],True,0.5,0.5,0.0,0.0,2.0,0.6309297535714574,-0.0173681026789934,wait_cost,0.0,5.0,528.520768399816,None,xp7,2,2023-04-13_15h27.31.475,threat_forest,2021.2.3,60.00787303700493,False,14.0,0.5357142857142857,0.44285714285714284,-0.326530612244898,-0.8345153061224491,1,1,0,0.29504194699877473,-0.0173681026789934,0.5,0.5,0.5,1.0,0.0,0.0,6.0,6.0,1.0,2.0,1.0,6.0,0,1,1
17.0,0.0,17.0,0.0,2.0,0.0,2.0,0.0,,,,left,1.9560316000133755,537.5494556999765,xp7,532.4508690999355,534.4653018999379,537.5494556999765,None,False,5.0,['r'],False,0.4081632653061224,0.5714285714285714,0.2857142857142857,2.0,2.0,0.9885754083994552,-0.0126763486945585,wait_cost,1.0,4.0,534.4653018999379,None,xp7,2,2023-04-13_15h27.31.475,threat_forest,2021.2.3,60.00787303700493,False,14.0,0.5357142857142857,0.44285714285714284,-0.326530612244898,-0.8345153061224491,1,0,0,0.6709177269081892,-0.0126763486945585,0.4081632653061224,0.4081632653061224,0.5714285714285714,0.7142857142857143,-0.5714285714285715,-0.653061224489796,4.346938775510204,4.346938775510204,0.0,2.0,-1.0,5.0,0,0,1
17.0,0.0,17.0,0.0,3.0,0.0,3.0,0.0,,,,right,2.385305400006473,544.3896831998136,xp7,532.4508690999355,534.4653018999379,544.3896831998136,None,True,4.0,['r'],False,0.4081632653061224,0.5714285714285714,0.2857142857142857,2.0,2.0,0.9885754083994552,-0.0002517703993597,succ_gain,1.0,6.0,541.542044099886,None,xp7,2,2023-04-13_15h27.31.475,threat_forest,2021.2.3,60.00787303700493,True,14.0,0.5357142857142857,0.44285714285714284,-0.326530612244898,-0.8345153061224491,1,0,1,0.869327166459742,-0.0002517703993597,0.4081632653061224,0.4081632653061224,0.5714285714285714,0.7142857142857143,-0.5714285714285715,-0.653061224489796,3.3469387755102042,3.3469387755102042,0.0,2.0,-1.0,4.0,0,0,1
17.0,0.0,17.0,0.0,4.0,0.0,4.0,0.0,,,,left,0.7143655000254512,550.3841421999969,xp7,532.4508690999355,534.4653018999379,550.3841421999969,None,False,6.0,['r'],False,0.4081632653061224,0.5714285714285714,0.2857142857142857,2.0,2.0,0.9885754083994552,-0.1036844767061343,wait_cost,1.0,5.0,548.8184657997917,None,xp7,2,2023-04-13_15h27.31.475,threat_forest,2021.2.3,60.00787303700493,False,14.0,0.5357142857142857,0.44285714285714284,-0.326530612244898,-0.8345153061224491,1,0,0,-0.33636054282356576,-0.1036844767061343,0.0,0.4081632653061224,0.5714285714285714,0.7142857142857143,-0.5714285714285715,-0.653061224489796,5.346938775510204,5.346938775510204,0.0,2.0,1.0,6.0,0,0,1
17.0,0.0,17.0,0.0,5.0,0.0,5.0,0.0,,,,right,0.6355435999576002,555.6791760998312,xp7,555.6791760998312,None,551.1167840999551,553.1311332997866,False,5.0,['r'],True,0.5,0.5,0.0,0.0,2.0,0.6309297535714574,0.0,wait_cost,0.0,4.0,553.1311332997866,None,xp7,2,2023-04-13_15h27.31.475,threat_forest,2021.2.3,60.00787303700493,False,14.0,0.5357142857142857,0.44285714285714284,-0.326530612244898,-0.8345153061224491,1,1,0,-0.45327458337697085,0.0,0.0,0.5,0.5,1.0,0.0,0.0,5.0,5.0,1.0,2.0,-1.0,5.0,0,1,1
17.0,0.0,17.0,0.0,6.0,0.0,6.0,0.0,,,,left,0.7198844000231475,560.3270131999161,xp7,556.3451918999199,558.3595635998063,560.3270131999161,None,False,4.0,['r'],False,0.4081632653061224,0.5714285714285714,0.2857142857142857,2.0,2.0,0.9885754083994552,-0.1559766763848396,wait_cost,1.0,3.0,558.3595635998063,None,xp7,2,2023-04-13_15h27.31.475,threat_forest,2021.2.3,60.00787303700493,False,14.0,0.5357142857142857,0.44285714285714284,-0.326530612244898,-0.8345153061224491,1,0,0,-0.32866463538586016,-0.1559766763848396,0.0,0.4081632653061224,0.5714285714285714,0.7142857142857143,-0.5714285714285715,-0.653061224489796,3.3469387755102042,3.3469387755102042,0.0,2.0,-1.0,4.0,0,0,1
17.0,0.0,17.0,0.0,7.0,0.0,7.0,0.0,,,,left,0.8533499999903142,564.2878286999185,xp7,556.3451918999199,558.3595635998063,564.2878286999185,None,False,3.0,['r'],False,0.4081632653061224,0.5714285714285714,0.2857142857142857,2.0,2.0,0.9885754083994552,-0.2857142857142857,wait_cost,1.0,2.0,563.0885204998776,None,xp7,2,2023-04-13_15h27.31.475,threat_forest,2021.2.3,60.00787303700493,False,14.0,0.5357142857142857,0.44285714285714284,-0.326530612244898,-0.8345153061224491,1,0,0,-0.15858549912872125,-0.2857142857142857,0.0,0.4081632653061224,0.5714285714285714,0.7142857142857143,-0.5714285714285715,-0.653061224489796,2.3469387755102042,2.3469387755102042,0.0,2.0,-1.0,3.0,0,0,1
0.0,0.0,0.0,0.0,0.0,0.0,0.0,0.0,17.22618760005571,20.73405490000732,None,right,1.554980600019917,21.38107700017281,xp7,21.38107700017281,None,17.22618760005571,20.734054900007322,False,4.0,['r'],True,0.4444444444444445,0.6666666666666666,0.3333333333333333,1.0,1.0,0.9656336071428248,0.0440100594421581,wait_cost,0.0,3.0,,,xp7,3,2023-04-13_15h37.41.808,threat_forest,2021.2.3,60.0670588996695,False,56.0,0.4444444444444444,0.49007936507936506,-1.1666666666666667,-0.7465986394557824,0,0,0,0.44146306968193705,0.0440100594421581,0.4444444444444445,0.4444444444444445,0.6666666666666666,0.6666666666666667,-1.0,-1.0,3.0,3.0,1.0,1.0,-1.0,4.0,0,0,0
0.0,0.0,0.0,0.0,1.0,0.0,1.0,0.0,,,,left,1.0347921999637038,26.58385580009781,xp7,22.96744170016609,24.979951300192624,26.58385580009781,None,False,3.0,['r'],False,0.2222222222222222,0.2222222222222222,0.0,0.0,1.0,0.4821593609696809,0.0200659621670138,wait_cost,1.0,2.0,24.979951300192624,None,xp7,3,2023-04-13_15h37.41.808,threat_forest,2021.2.3,60.0670588996695,False,56.0,0.4444444444444444,0.49007936507936506,-1.1666666666666667,-0.7465986394557824,0,0,0,0.034200633577810405,0.0200659621670138,0.2222222222222222,0.2222222222222222,0.2222222222222222,1.0,-1.3333333333333335,-1.3333333333333335,1.6666666666666665,1.6666666666666665,0.0,1.0,-1.0,3.0,0,0,0
0.0,0.0,0.0,0.0,2.0,0.0,2.0,0.0,,,,left,1.6389011000283062,30.9915123002138,xp7,22.96744170016609,24.979951300192624,30.9915123002138,None,False,2.0,['r'],False,0.2222222222222222,0.2222222222222222,0.0,0.0,1.0,0.4821593609696809,-0.0035436671239141,wait_cost,1.0,1.0,29.65896030003205,None,xp7,3,2023-04-13_15h37.41.808,threat_forest,2021.2.3,60.0670588996695,False,56.0,0.4444444444444444,0.49007936507936506,-1.1666666666666667,-0.7465986394557824,0,0,0,0.49402595628658114,-0.0035436671239141,0.2222222222222222,0.2222222222222222,0.2222222222222222,1.0,-1.3333333333333335,-1.3333333333333335,0.6666666666666665,0.6666666666666665,0.0,1.0,-1.0,2.0,0,0,0
0.0,0.0,0.0,0.0,3.0,0.0,3.0,0.0,,,,right,0.873503299895674,35.53771070018411,xp7,22.96744170016609,24.979951300192624,35.53771070018411,None,True,1.0,['r'],False,0.2222222222222222,0.2222222222222222,0.0,0.0,1.0,0.4821593609696809,0.0390946502057613,unsucc_cost,1.0,0.0,34.67098020017147,None,xp7,3,2023-04-13_15h37.41.808,threat_forest,2021.2.3,60.0670588996695,True,56.0,0.4444444444444444,0.49007936507936506,-1.1666666666666667,-0.7465986394557824,0,0,1,-0.1352433716296161,0.0390946502057613,1.0,0.2222222222222222,0.2222222222222222,1.0,-1.3333333333333335,-1.3333333333333335,-0.3333333333333335,0.0,0.0,1.0,-1.0,1.0,1,0,0
1.0,0.0,1.0,0.0,0.0,0.0,0.0,0.0,39.41212460002862,42.91328640002757,None,right,1.0030958000570536,44.07923530018888,xp7,39.41212460002862,42.91328640002757,44.07923530018888,None,True,4.0,['p'],False,0.4444444444444445,0.6666666666666666,0.3333333333333333,1.0,2.0,0.9656336071428248,0.0662691154803637,fight_cost,1.0,1.0,,,xp7,3,2023-04-13_15h37.41.808,threat_forest,2021.2.3,60.0670588996695,True,25.0,0.4444444444444444,0.4444444444444444,-0.8333333333333334,-1.0,1,1,1,0.0030910179351770458,0.0662691154803637,0.4444444444444445,0.4444444444444445,0.6666666666666666,0.6666666666666667,-0.3333333333333335,-0.5555555555555556,3.4444444444444446,3.4444444444444446,0.0,2.0,-1.0,4.0,0,1,1
1.0,0.0,1.0,0.0,1.0,0.0,1.0,0.0,,,,right,2.465509200002998,49.17438960005529,xp7,39.41212460002862,42.91328640002757,49.17438960005529,None,True,1.0,['p'],False,0.4444444444444445,0.6666666666666666,0.3333333333333333,1.0,2.0,0.9656336071428248,0.1330589849108368,fight_cost,1.0,0.0,47.12596660014242,None,xp7,3,2023-04-13_15h37.41.808,threat_forest,2021.2.3,60.0670588996695,True,25.0,0.4444444444444444,0.4444444444444444,-0.8333333333333334,-1.0,1,1,1,0.9023983581709236,0.1330589849108368,1.0,0.4444444444444445,0.6666666666666666,0.6666666666666667,-0.3333333333333335,-0.5555555555555556,0.4444444444444444,0.4444444444444444,0.0,2.0,-1.0,1.0,1,1,1
2.0,0.0,2.0,0.0,0.0,0.0,0.0,0.0,55.69691150006838,59.20070120017044,None,left,0.8980775000527501,59.847861300222576,xp7,59.847861300222576,None,55.69691150006838,59.20070120017044,True,4.0,['p'],True,0.4166666666666667,0.5,0.1666666666666666,1.0,1.0,0.9358932809493992,0.0414014973705713,succ_gain,0.0,5.0,,,xp7,3,2023-04-13_15h37.41.808,threat_forest,2021.2.3,60.0670588996695,True,16.0,0.4,0.4222222222222222,-1.1033333333333333,-0.9683333333333333,1,0,1,-0.10749891144975843,0.0414014973705713,0.4166666666666667,0.4166666666666667,0.5,0.8333333333333334,-0.9999999999999998,-0.9166666666666665,3.0833333333333335,3.0833333333333335,1.0,1.0,-1.0,4.0,0,0,1
2.0,0.0,2.0,0.0,1.0,0.0,1.0,0.0,,,,right,0.9496613000519574,63.71090470021591,xp7,63.71090470021591,None,55.69691150006838,59.20070120017044,False,5.0,['p'],True,0.4166666666666667,0.5,0.1666666666666666,1.0,1.0,0.9358932809493992,0.063434907157536,wait_cost,0.0,4.0,62.7783039000351,None,xp7,3,2023-04-13_15h37.41.808,threat_forest,2021.2.3,60.0670588996695,False,16.0,0.4,0.4222222222222222,-1.1033333333333333,-0.9683333333333333,1,0,0,-0.05164988421924564,0.063434907157536,0.4166666666666667,0.4166666666666667,0.5,0.8333333333333334,-0.9999999999999998,-0.9166666666666665,4.083333333333334,4.083333333333334,1.0,1.0,1.0,5.0,0,0,1
2.0,0.0,2.0,0.0,2.0,0.0,2.0,0.0,,,,left,0.5986603000201285,68.88921140017919,xp7,68.88921140017919,None,55.69691150006838,59.20070120017044,True,4.0,['p'],True,0.4166666666666667,0.5,0.1666666666666666,1.0,1.0,0.9358932809493992,0.06050919627572,unsucc_cost,0.0,2.0,66.70762800006196,None,xp7,3,2023-04-13_15h37.41.808,threat_forest,2021.2.3,60.0670588996695,True,16.0,0.4,0.4222222222222222,-1.1033333333333333,-0.9683333333333333,1,0,1,-0.5130609535549039,0.06050919627572,0.4166666666666667,0.4166666666666667,0.5,0.8333333333333334,-0.9999999999999998,-0.9166666666666665,3.0833333333333335,3.0833333333333335,1.0,1.0,-1.0,4.0,0,0,1
2.0,0.0,2.0,0.0,3.0,0.0,3.0,0.0,,,,left,0.7569347999524325,73.46831040014513,xp7,73.46831040014513,None,55.69691150006838,59.20070120017044,True,2.0,['p'],True,0.4166666666666667,0.5,0.1666666666666666,1.0,1.0,0.9358932809493992,0.0468307870370371,succ_gain,0.0,3.0,71.51981540000997,None,xp7,3,2023-04-13_15h37.41.808,threat_forest,2021.2.3,60.0670588996695,True,16.0,0.4,0.4222222222222222,-1.1033333333333333,-0.9683333333333333,1,0,1,-0.2784781587752737,0.0468307870370371,0.4166666666666667,0.4166666666666667,0.5,0.8333333333333334,-0.9999999999999998,-0.9166666666666665,1.0833333333333335,1.0833333333333335,1.0,1.0,-1.0,2.0,0,0,1
2.0,0.0,2.0,0.0,4.0,0.0,4.0,0.0,,,,left,1.4564270998816935,78.23462700005621,xp7,74.2515113002155,76.26535500003956,78.23462700005621,None,False,3.0,['p'],False,0.27,0.3,0.1,1.0,1.0,0.7963326591781347,-0.0278060000000001,wait_cost,1.0,2.0,76.26535500003956,None,xp7,3,2023-04-13_15h37.41.808,threat_forest,2021.2.3,60.0670588996695,False,16.0,0.4,0.4222222222222222,-1.1033333333333333,-0.9683333333333333,0,0,0,0.37598624459019797,-0.0278060000000001,0.27,0.27,0.3,0.9,-1.4,-1.29,1.71,1.71,0.0,1.0,1.0,3.0,0,0,0
2.0,0.0,2.0,0.0,5.0,0.0,5.0,0.0,,,,left,1.5844538998790083,83.8264141001273,xp7,74.2515113002155,76.26535500003956,83.8264141001273,None,False,2.0,['p'],False,0.27,0.3,0.1,1.0,1.0,0.7963326591781347,-0.0733333333333333,wait_cost,1.0,1.0,81.72699840017594,None,xp7,3,2023-04-13_15h37.41.808,threat_forest,2021.2.3,60.0670588996695,False,16.0,0.4,0.4222222222222222,-1.1033333333333333,-0.9683333333333333,0,0,0,0.4602398052976973,-0.0733333333333333,0.27,0.27,0.3,0.9,-1.4,-1.29,0.71,0.71,0.0,1.0,-1.0,2.0,0,0,0
