miniblock.thisRepN,miniblock.thisTrialN,miniblock.thisN,miniblock.thisIndex,day.thisRepN,day.thisTrialN,day.thisN,day.thisIndex,forest.started,fixation_forest.started,fixation_forest.stopped,key_resp.keys,key_resp.rt,key_resp.started,Subject_ID,weather_left.started,weather_left.stopped,weather_right.started,weather_right.stopped,foraging T/F,in_LP,p/r heuristic,good_weather.T/F,p_succ_correct,p_succ_uncorrected,r_threat,n_oponents,gain_if_succ,weather_entropy,OP_value_difference,action_outcome,forest_side_L=0_R=1,out_LP,fixation_day.started,fixation_day.stopped,participant,session,date,expName,psychopyVersion,frameRate,foraging T/F NaNs,fora_NR,forest_mean_p,mvt_cutoff_p,forest_mean_ev,mvt_cutoff_ev,mvt_policy_eg,mvt_policy_p,fora_response,logRT,optimal policy values,multi-heuristic policy,** $\mathit{p}$ success,* $\mathit{p}$ gain,* $\mathit{r}$ predator,expected gain naive,expected gain correct,expected state no bounds,expected state with bounds,weather type,gain magnitude,win stay lose shift,continuous energy state,** binary energy state,** wait when safe,$\mathit{p}$ success based MVT,marginal value,$\mathit{OP}$ values + cap
0.0,0.0,0.0,0.0,0.0,0.0,0.0,0.0,36.38254209999286,39.88762389999465,,right,0.8289640000002692,42.07951640000101,rn14,36.38254209999286,39.88762389999465,42.07951640000101,,True,4.0,['r'],False,0.345679012345679,0.4444444444444444,0.2222222222222222,2.0,2.0,0.9685033186841367,0.0005482667043862,succ_gain,1.0,6.0,,,rn14,1,2023-03-30_11h23.48.840,threat_forest,2021.2.3,60.09442035514424,True,52.0,0.43650793650793646,0.43650793650793646,-0.5626102292768962,-0.5626102292768962,0,0,1.0,-0.18757855060367937,0.0005482667043862,0.345679012345679,0.345679012345679,0.4444444444444444,0.2222222222222222,0.11111111111111105,0.16049382716049376,4.160493827160494,4.160493827160494,0.0,2.0,,4.0,0,1,0,0,0.0005482667043862
0.0,0.0,0.0,0.0,1.0,0.0,1.0,0.0,,,,right,0.8139475000061793,47.12651449999248,rn14,47.12651449999248,,42.92695880000247,44.94129200000316,False,6.0,['r'],True,0.4285714285714285,0.4285714285714285,0.0,0.0,2.0,0.6216097450797565,-0.0377659661652755,wait_cost,0.0,5.0,44.94129200000316,,rn14,1,2023-03-30_11h23.48.840,threat_forest,2021.2.3,60.09442035514424,False,52.0,0.43650793650793646,0.43650793650793646,-0.5626102292768962,-0.5626102292768962,1,0,0.0,-0.205859411366478,-0.0377659661652755,0.4285714285714285,0.4285714285714285,0.4285714285714285,0.0,0.714285714285714,0.714285714285714,6.7142857142857135,6.7142857142857135,1.0,2.0,1.0,6.0,0,1,0,1,-0.0377659661652755
0.0,0.0,0.0,0.0,2.0,0.0,2.0,0.0,,,,right,1.4846581000019796,50.54011190000165,rn14,47.972159999990254,49.98648399999365,50.54011190000165,,True,5.0,['r'],False,0.345679012345679,0.4444444444444444,0.2222222222222222,2.0,2.0,0.9685033186841367,-0.0045127077489298,figh_cost,1.0,2.0,49.98648399999365,,rn14,1,2023-03-30_11h23.48.840,threat_forest,2021.2.3,60.09442035514424,True,52.0,0.43650793650793646,0.43650793650793646,-0.5626102292768962,-0.5626102292768962,0,0,1.0,0.39518451005745525,-0.0045127077489298,0.345679012345679,0.345679012345679,0.4444444444444444,0.2222222222222222,0.11111111111111105,0.16049382716049376,5.160493827160494,5.160493827160494,0.0,2.0,-1.0,5.0,0,1,0,0,-0.0045127077489298
0.0,0.0,0.0,0.0,3.0,0.0,3.0,0.0,,,,left,1.1660002999997232,55.28232329999446,rn14,47.972159999990254,49.98648399999365,55.28232329999446,,False,2.0,['r'],False,0.345679012345679,0.4444444444444444,0.2222222222222222,2.0,2.0,0.9685033186841367,-0.0056321942339038,wait_cost,1.0,1.0,54.06602169999678,,rn14,1,2023-03-30_11h23.48.840,threat_forest,2021.2.3,60.09442035514424,False,52.0,0.43650793650793646,0.43650793650793646,-0.5626102292768962,-0.5626102292768962,0,0,0.0,0.15357934521791008,-0.0056321942339038,0.345679012345679,0.345679012345679,0.4444444444444444,0.2222222222222222,0.11111111111111105,0.16049382716049376,2.1604938271604937,2.1604938271604937,0.0,2.0,-1.0,2.0,0,1,0,0,-0.0056321942339038
0.0,0.0,0.0,0.0,4.0,0.0,4.0,0.0,,,,left,0.5951901000080397,61.00991609999619,rn14,61.00991609999619,,56.48085100000026,58.49525779999385,True,1.0,['r'],True,0.4285714285714285,0.4285714285714285,0.0,0.0,2.0,0.6216097450797565,0.2491588248076028,unsucc_cost,0.0,0.0,58.49525779999385,,rn14,1,2023-03-30_11h23.48.840,threat_forest,2021.2.3,60.09442035514424,True,52.0,0.43650793650793646,0.43650793650793646,-0.5626102292768962,-0.5626102292768962,1,0,1.0,-0.5188744286525941,0.2491588248076028,1.0,0.4285714285714285,0.4285714285714285,0.0,0.714285714285714,0.714285714285714,1.714285714285714,1.714285714285714,1.0,2.0,-1.0,1.0,1,1,0,1,0.625
1.0,0.0,1.0,0.0,0.0,0.0,0.0,0.0,67.09967219999817,70.60064279999642,,right,1.014569000006304,74.33093440000084,rn14,67.09967219999817,70.60064279999642,74.33093440000084,,True,4.0,['p'],False,0.2448979591836734,0.2857142857142857,0.1428571428571428,1.0,1.0,0.8400769154957735,0.0039960293469888,figh_cost,1.0,1.0,,,rn14,1,2023-03-30_11h23.48.840,threat_forest,2021.2.3,60.09442035514424,True,13.0,0.47619047619047616,0.4563492063492063,-1.2040816326530612,-0.8833459309649787,0,0,1.0,0.01446389177701357,0.0039960293469888,0.2448979591836734,0.2448979591836734,0.2857142857142857,0.1428571428571428,-0.5714285714285712,-0.40816326530612246,3.5918367346938775,3.5918367346938775,0.0,1.0,-1.0,4.0,0,1,0,0,0.0039960293469888
1.0,0.0,1.0,0.0,1.0,0.0,1.0,0.0,,,,right,1.3871768999961205,79.74244950000138,rn14,67.09967219999817,70.60064279999642,79.74244950000138,,True,1.0,['p'],False,0.2448979591836734,0.2857142857142857,0.1428571428571428,1.0,1.0,0.8400769154957735,0.0206995466331703,unsucc_cost,1.0,0.0,77.37761789999786,,rn14,1,2023-03-30_11h23.48.840,threat_forest,2021.2.3,60.09442035514424,True,13.0,0.47619047619047616,0.4563492063492063,-1.2040816326530612,-0.8833459309649787,0,0,1.0,0.32727067465355847,0.0206995466331703,1.0,0.2448979591836734,0.2857142857142857,0.1428571428571428,-0.5714285714285712,-0.40816326530612246,0.5918367346938775,1.0,0.0,1.0,-1.0,1.0,1,1,0,0,0.625
2.0,0.0,2.0,0.0,0.0,0.0,0.0,0.0,84.71147690000362,88.21745899999223,,left,0.7025846000033198,91.49852919999104,rn14,91.49852919999104,,84.71147690000362,88.21745899999223,True,5.0,['r'],True,0.4,0.4,0.0,0.0,1.0,0.6126016192893442,0.0454165613168723,unsucc_cost,0.0,3.0,,,rn14,1,2023-03-30_11h23.48.840,threat_forest,2021.2.3,60.09442035514424,True,7.0,0.45,0.4630952380952381,-1.0666666666666667,-1.135374149659864,1,0,1.0,-0.3529894579740024,0.0454165613168723,0.4,0.4,0.4,0.0,0.20000000000000007,0.20000000000000007,5.2,5.2,1.0,1.0,-1.0,5.0,0,1,0,1,0.0454165613168723
2.0,0.0,2.0,0.0,1.0,0.0,1.0,0.0,,,,right,1.0535966000024928,97.96007699999608,rn14,92.23080799999298,94.24517449999983,97.96007699999608,,True,3.0,['r'],False,0.3333333333333333,0.5,0.3333333333333333,2.0,1.0,1.0,0.0216859945130315,figh_cost,1.0,0.0,94.24517449999983,,rn14,1,2023-03-30_11h23.48.840,threat_forest,2021.2.3,60.09442035514424,True,7.0,0.45,0.4630952380952381,-1.0666666666666667,-1.135374149659864,0,0,1.0,0.05220964441296197,0.0216859945130315,0.3333333333333333,0.3333333333333333,0.5,0.3333333333333333,-0.5,-0.3333333333333335,2.6666666666666665,2.6666666666666665,0.0,1.0,-1.0,3.0,0,1,0,0,0.0216859945130315
3.0,0.0,3.0,0.0,0.0,0.0,0.0,0.0,103.39702289999695,106.90002619998997,,right,0.9687339999945834,108.2495357000007,rn14,103.39702289999695,106.90002619998997,108.2495357000007,,True,5.0,['p'],False,0.375,0.5,0.25,1.0,2.0,0.9850568223215076,0.0256486737394332,succ_gain,1.0,6.0,,,rn14,1,2023-03-30_11h23.48.840,threat_forest,2021.2.3,60.09442035514424,True,45.0,0.35,0.4,-0.9750000000000001,-1.0208333333333335,1,0,1.0,-0.03176521458559671,0.0256486737394332,0.375,0.375,0.5,0.25,0.25,0.25,5.25,5.25,0.0,2.0,-1.0,5.0,0,1,0,1,0.0256486737394332
3.0,0.0,3.0,0.0,1.0,0.0,1.0,0.0,,,,right,1.2536743999953617,114.6764916999964,rn14,103.39702289999695,106.90002619998997,114.6764916999964,,True,6.0,['p'],False,0.375,0.5,0.25,1.0,2.0,0.9850568223215076,-0.0734960487365723,succ_gain,1.0,6.0,111.26263630000176,,rn14,1,2023-03-30_11h23.48.840,threat_forest,2021.2.3,60.09442035514424,True,45.0,0.35,0.4,-0.9750000000000001,-1.0208333333333335,1,0,1.0,0.22607875936955255,-0.0734960487365723,0.375,0.375,0.5,0.25,0.25,0.25,6.25,6.25,0.0,2.0,1.0,6.0,0,1,0,1,-0.0734960487365723
3.0,0.0,3.0,0.0,2.0,0.0,2.0,0.0,,,,right,0.8730901000089943,119.85485839999455,rn14,103.39702289999695,106.90002619998997,119.85485839999455,,True,6.0,['p'],False,0.375,0.5,0.25,1.0,2.0,0.9850568223215076,0.0593289184570313,unsucc_cost,1.0,4.0,117.97300959999848,,rn14,1,2023-03-30_11h23.48.840,threat_forest,2021.2.3,60.09442035514424,True,45.0,0.35,0.4,-0.9750000000000001,-1.0208333333333335,1,0,1.0,-0.1357165211267009,0.0593289184570313,0.375,0.375,0.5,0.25,0.25,0.25,6.25,6.25,0.0,2.0,-1.0,6.0,0,1,0,1,0.0593289184570313
3.0,0.0,3.0,0.0,3.0,0.0,3.0,0.0,,,,right,0.9129822999966564,125.3167614999984,rn14,103.39702289999695,106.90002619998997,125.3167614999984,,True,4.0,['p'],False,0.375,0.5,0.25,1.0,2.0,0.9850568223215076,0.07561669921875,succ_gain,1.0,6.0,122.76885619999666,,rn14,1,2023-03-30_11h23.48.840,threat_forest,2021.2.3,60.09442035514424,True,45.0,0.35,0.4,-0.9750000000000001,-1.0208333333333335,1,0,1.0,-0.09103878521621311,0.07561669921875,0.375,0.375,0.5,0.25,0.25,0.25,4.25,4.25,0.0,2.0,-1.0,4.0,0,1,0,1,0.07561669921875
3.0,0.0,3.0,0.0,4.0,0.0,4.0,0.0,,,,right,1.9519851000077324,128.85013269999763,rn14,128.85013269999763,,126.24895090000064,128.2634235000005,False,6.0,['p'],True,0.2,0.2,0.0,0.0,2.0,0.4554859150035951,0.0,wait_cost,0.0,5.0,128.2634235000005,,rn14,1,2023-03-30_11h23.48.840,threat_forest,2021.2.3,60.09442035514424,False,45.0,0.35,0.4,-0.9750000000000001,-1.0208333333333335,0,0,0.0,0.6688468547690077,0.0,0.0,0.2,0.2,0.0,-0.20000000000000018,-0.20000000000000018,5.8,5.8,1.0,2.0,1.0,6.0,0,0,0,0,-0.84
3.0,0.0,3.0,0.0,5.0,0.0,5.0,0.0,,,,left,1.0643972999969264,134.09262349999335,rn14,134.09262349999335,,126.24895090000064,128.2634235000005,True,5.0,['p'],True,0.2,0.2,0.0,0.0,2.0,0.4554859150035951,0.0,unsucc_cost,0.0,3.0,132.84240839999984,,rn14,1,2023-03-30_11h23.48.840,threat_forest,2021.2.3,60.09442035514424,True,45.0,0.35,0.4,-0.9750000000000001,-1.0208333333333335,0,0,1.0,0.06240872347493142,0.0,0.0,0.2,0.2,0.0,-0.20000000000000018,-0.20000000000000018,4.8,4.8,1.0,2.0,-1.0,5.0,0,0,0,0,-0.84
3.0,0.0,3.0,0.0,6.0,0.0,6.0,0.0,,,,right,1.0296572000079325,140.18604299999424,rn14,140.18604299999424,,126.24895090000064,128.2634235000005,False,3.0,['p'],True,0.2,0.2,0.0,0.0,2.0,0.4554859150035951,-0.5700000000000001,wait_cost,0.0,2.0,137.1883001999959,,rn14,1,2023-03-30_11h23.48.840,threat_forest,2021.2.3,60.09442035514424,False,45.0,0.35,0.4,-0.9750000000000001,-1.0208333333333335,0,0,0.0,0.02922593131988669,-0.5700000000000001,0.0,0.2,0.2,0.0,-0.20000000000000018,-0.20000000000000018,2.8,2.8,1.0,2.0,-1.0,3.0,0,0,0,0,-0.84
3.0,0.0,3.0,0.0,7.0,0.0,7.0,0.0,,,,left,1.870057899999665,145.91390390000015,rn14,141.23506759999145,143.24934880000365,145.91390390000015,,False,2.0,['p'],False,0.375,0.5,0.25,1.0,2.0,0.9850568223215076,-0.625,wait_cost,1.0,1.0,143.24934880000365,,rn14,1,2023-03-30_11h23.48.840,threat_forest,2021.2.3,60.09442035514424,False,45.0,0.35,0.4,-0.9750000000000001,-1.0208333333333335,1,0,0.0,0.6259693929538307,-0.625,0.0,0.375,0.5,0.25,0.25,0.25,2.25,2.25,0.0,2.0,-1.0,2.0,0,0,0,1,-0.84
4.0,0.0,4.0,0.0,0.0,0.0,0.0,0.0,152.06720560000394,155.57112389999384,,left,1.64138400000229,158.47217239999736,rn14,158.47217239999736,,152.06720560000394,155.57112389999384,True,4.0,['p'],True,0.1728395061728395,0.2222222222222222,0.2222222222222222,2.0,2.0,0.8571721972794328,-0.0108631914718901,figh_cost,0.0,1.0,,,rn14,1,2023-03-30_11h23.48.840,threat_forest,2021.2.3,60.09442035514424,True,59.0,0.3611111111111111,0.3555555555555555,-1.1404320987654322,-1.0577160493827162,0,0,1.0,0.49553978839107093,-0.0108631914718901,0.1728395061728395,0.1728395061728395,0.2222222222222222,0.2222222222222222,-0.7777777777777777,-0.5308641975308643,3.4691358024691357,3.4691358024691357,1.0,2.0,-1.0,4.0,0,1,0,0,-0.0108631914718901
4.0,0.0,4.0,0.0,1.0,0.0,1.0,0.0,,,,right,0.7925622999900952,162.73142389999705,rn14,160.13406640000176,162.1484408999968,162.73142389999705,,True,1.0,['p'],False,0.375,0.5,0.25,1.0,2.0,0.9850568223215076,0.0773829730009039,figh_cost,1.0,0.0,162.1484408999968,,rn14,1,2023-03-30_11h23.48.840,threat_forest,2021.2.3,60.09442035514424,True,59.0,0.3611111111111111,0.3555555555555555,-1.1404320987654322,-1.0577160493827162,1,1,1.0,-0.2324841643455772,0.0773829730009039,1.0,0.375,0.5,0.25,0.25,0.25,1.25,1.25,0.0,2.0,-1.0,1.0,1,1,1,1,0.625
5.0,0.0,5.0,0.0,0.0,0.0,0.0,0.0,169.07189009999274,172.57199379999656,,right,0.7433884000056423,175.0892085999949,rn14,169.07189009999274,172.57199379999656,175.0892085999949,,True,5.0,['p'],False,0.48,0.6,0.2,1.0,1.0,0.9455672104350704,0.0603064788559827,succ_gain,1.0,6.0,,,rn14,1,2023-03-30_11h23.48.840,threat_forest,2021.2.3,60.09442035514424,True,4.0,0.4666666666666667,0.41388888888888886,-0.9911111111111113,-1.0657716049382717,1,1,1.0,-0.29653662521484436,0.0603064788559827,0.48,0.48,0.6,0.2,0.19999999999999984,0.23999999999999977,5.24,5.24,0.0,1.0,-1.0,5.0,0,1,1,1,0.0603064788559827
5.0,0.0,5.0,0.0,1.0,0.0,1.0,0.0,,,,right,1.3963918999943417,178.74012679999578,rn14,178.74012679999578,,175.8525568999903,177.867010499991,False,6.0,['p'],True,0.2962962962962963,0.3333333333333333,0.1111111111111111,1.0,1.0,0.8325252476189534,-0.1377614848417467,wait_cost,0.0,5.0,177.867010499991,,rn14,1,2023-03-30_11h23.48.840,threat_forest,2021.2.3,60.09442035514424,False,4.0,0.4666666666666667,0.41388888888888886,-0.9911111111111113,-1.0657716049382717,0,0,0.0,0.3338916955976762,-0.1377614848417467,0.2962962962962963,0.2962962962962963,0.3333333333333333,0.1111111111111111,-0.3333333333333335,-0.22222222222222232,5.777777777777778,5.777777777777778,1.0,1.0,1.0,6.0,0,1,0,0,-0.1377614848417467
5.0,0.0,5.0,0.0,2.0,0.0,2.0,0.0,,,,right,0.8785651000071084,185.8610742000019,rn14,180.16537940000129,182.1796364000038,185.8610742000019,,True,5.0,['p'],False,0.48,0.6,0.2,1.0,1.0,0.9455672104350704,0.0867185088675958,succ_gain,1.0,6.0,182.1796364000038,,rn14,1,2023-03-30_11h23.48.840,threat_forest,2021.2.3,60.09442035514424,True,4.0,0.4666666666666667,0.41388888888888886,-0.9911111111111113,-1.0657716049382717,1,1,1.0,-0.12946527050677192,0.0867185088675958,0.48,0.48,0.6,0.2,0.19999999999999984,0.23999999999999977,5.24,5.24,0.0,1.0,-1.0,5.0,0,1,1,1,0.0867185088675958
5.0,0.0,5.0,0.0,3.0,0.0,3.0,0.0,,,,right,0.6549980999989202,192.25395339999525,rn14,180.16537940000129,182.1796364000038,192.25395339999525,,True,6.0,['p'],False,0.48,0.6,0.2,1.0,1.0,0.9455672104350704,-0.2272256068282274,unsucc_cost,1.0,4.0,188.77346549999493,,rn14,1,2023-03-30_11h23.48.840,threat_forest,2021.2.3,60.09442035514424,True,4.0,0.4666666666666667,0.41388888888888886,-0.9911111111111113,-1.0657716049382717,1,1,1.0,-0.42312294411609963,-0.2272256068282274,0.0,0.48,0.6,0.2,0.19999999999999984,0.23999999999999977,6.24,6.24,0.0,1.0,1.0,6.0,0,0,1,1,-0.84
5.0,0.0,5.0,0.0,4.0,0.0,4.0,0.0,,,,right,1.3005335999914678,196.3013862999942,rn14,196.3013862999942,,192.9366803000012,194.9510650000011,False,4.0,['p'],True,0.2962962962962963,0.3333333333333333,0.1111111111111111,1.0,1.0,0.8325252476189534,0.0069872275567748,wait_cost,0.0,3.0,194.9510650000011,,rn14,1,2023-03-30_11h23.48.840,threat_forest,2021.2.3,60.09442035514424,False,4.0,0.4666666666666667,0.41388888888888886,-0.9911111111111113,-1.0657716049382717,0,0,0.0,0.262774641783099,0.0069872275567748,0.2962962962962963,0.2962962962962963,0.3333333333333333,0.1111111111111111,-0.3333333333333335,-0.22222222222222232,3.7777777777777777,3.7777777777777777,1.0,1.0,-1.0,4.0,0,1,0,0,0.0069872275567748
5.0,0.0,5.0,0.0,5.0,0.0,5.0,0.0,,,,right,1.076921100000618,200.87979619999533,rn14,197.6323621999909,199.6467100000009,200.87979619999533,,True,3.0,['p'],False,0.48,0.6,0.2,1.0,1.0,0.9455672104350704,0.1701333333333333,succ_gain,1.0,4.0,199.6467100000009,,rn14,1,2023-03-30_11h23.48.840,threat_forest,2021.2.3,60.09442035514424,True,4.0,0.4666666666666667,0.41388888888888886,-0.9911111111111113,-1.0657716049382717,1,1,1.0,0.07410613643832512,0.1701333333333333,0.48,0.48,0.6,0.2,0.19999999999999984,0.23999999999999977,3.2399999999999998,3.2399999999999998,0.0,1.0,-1.0,3.0,0,1,1,1,0.1701333333333333
5.0,0.0,5.0,0.0,6.0,0.0,6.0,0.0,,,,right,0.6301024999993388,206.77674619999016,rn14,206.77674619999016,,201.97815759999503,203.99257899999796,False,4.0,['p'],True,0.2962962962962963,0.3333333333333333,0.1111111111111111,1.0,1.0,0.8325252476189534,-0.0679835390946502,wait_cost,0.0,3.0,203.99257899999796,,rn14,1,2023-03-30_11h23.48.840,threat_forest,2021.2.3,60.09442035514424,False,4.0,0.4666666666666667,0.41388888888888886,-0.9911111111111113,-1.0657716049382717,0,0,0.0,-0.46187277441886104,-0.0679835390946502,0.0,0.2962962962962963,0.3333333333333333,0.1111111111111111,-0.3333333333333335,-0.22222222222222232,3.7777777777777777,3.7777777777777777,1.0,1.0,1.0,4.0,0,0,0,0,-0.84
5.0,0.0,5.0,0.0,7.0,0.0,7.0,0.0,,,,left,0.7899891999986721,211.12754380000115,rn14,207.4229717999988,209.43748680000132,211.12754380000115,,False,3.0,['p'],False,0.48,0.6,0.2,1.0,1.0,0.9455672104350704,-0.2,wait_cost,1.0,2.0,209.43748680000132,,rn14,1,2023-03-30_11h23.48.840,threat_forest,2021.2.3,60.09442035514424,False,4.0,0.4666666666666667,0.41388888888888886,-0.9911111111111113,-1.0657716049382717,1,1,0.0,-0.2357360045022741,-0.2,0.0,0.48,0.6,0.2,0.19999999999999984,0.23999999999999977,3.2399999999999998,3.2399999999999998,0.0,1.0,-1.0,3.0,0,0,1,1,-0.84
6.0,0.0,6.0,0.0,0.0,0.0,0.0,0.0,216.7267152999993,220.22747250000248,,left,1.2636217000108445,222.7116595999978,rn14,222.7116595999978,,216.7267152999993,220.22747250000248,True,5.0,['r'],True,0.46875,0.625,0.25,2.0,1.0,0.9634951148421658,-0.0023436289892617,figh_cost,0.0,2.0,,,rn14,1,2023-03-30_11h23.48.840,threat_forest,2021.2.3,60.09442035514424,True,38.0,0.6125,0.5395833333333333,-0.5218750000000001,-0.7564930555555557,0,0,1.0,0.23398196296298024,-0.0023436289892617,0.46875,0.46875,0.625,0.25,0.125,0.15625,5.15625,5.15625,1.0,1.0,-1.0,5.0,0,1,0,0,-0.0023436289892617
6.0,0.0,6.0,0.0,1.0,0.0,1.0,0.0,,,,right,0.7144932000082918,229.3192826000013,rn14,224.00757609998985,226.02205309999408,229.3192826000013,,True,2.0,['r'],False,0.6,0.6,0.0,0.0,1.0,0.6126016192893442,0.0828427075234651,succ_gain,1.0,3.0,226.02205309999408,,rn14,1,2023-03-30_11h23.48.840,threat_forest,2021.2.3,60.09442035514424,True,38.0,0.6125,0.5395833333333333,-0.5218750000000001,-0.7564930555555557,1,1,1.0,-0.3361817987907547,0.0828427075234651,0.6,0.6,0.6,0.0,0.7999999999999999,0.7999999999999999,2.8,2.8,0.0,1.0,-1.0,2.0,0,1,1,1,0.0828427075234651
6.0,0.0,6.0,0.0,2.0,0.0,2.0,0.0,,,,right,1.1035780000092927,232.85085580000305,rn14,232.85085580000305,,230.05189479999532,232.0663598999963,False,3.0,['r'],True,0.46875,0.625,0.25,2.0,1.0,0.9634951148421658,0.0420991256654262,wait_cost,0.0,2.0,232.0663598999963,,rn14,1,2023-03-30_11h23.48.840,threat_forest,2021.2.3,60.09442035514424,False,38.0,0.6125,0.5395833333333333,-0.5218750000000001,-0.7564930555555557,0,0,0.0,0.09855762841174392,0.0420991256654262,0.46875,0.46875,0.625,0.25,0.125,0.15625,3.15625,3.15625,1.0,1.0,1.0,3.0,0,1,0,0,0.0420991256654262
6.0,0.0,6.0,0.0,3.0,0.0,3.0,0.0,,,,right,0.6293017999996664,237.678044699991,rn14,233.98160590000043,235.99601039999104,237.678044699991,,True,2.0,['r'],False,0.6,0.6,0.0,0.0,1.0,0.6126016192893442,0.0834363281249999,succ_gain,1.0,3.0,235.99601039999104,,rn14,1,2023-03-30_11h23.48.840,threat_forest,2021.2.3,60.09442035514424,True,38.0,0.6125,0.5395833333333333,-0.5218750000000001,-0.7564930555555557,1,1,1.0,-0.4631443281328784,0.0834363281249999,0.6,0.6,0.6,0.0,0.7999999999999999,0.7999999999999999,2.8,2.8,0.0,1.0,-1.0,2.0,0,1,1,1,0.0834363281249999
6.0,0.0,6.0,0.0,4.0,0.0,4.0,0.0,,,,right,0.8422713999898406,241.0916140999907,rn14,233.98160590000043,235.99601039999104,241.0916140999907,,True,3.0,['r'],False,0.6,0.6,0.0,0.0,1.0,0.6126016192893442,0.154048828125,unsucc_cost,1.0,1.0,240.34195349999936,,rn14,1,2023-03-30_11h23.48.840,threat_forest,2021.2.3,60.09442035514424,True,38.0,0.6125,0.5395833333333333,-0.5218750000000001,-0.7564930555555557,1,1,1.0,-0.17165298889734074,0.154048828125,0.6,0.6,0.6,0.0,0.7999999999999999,0.7999999999999999,3.8,3.8,0.0,1.0,1.0,3.0,0,1,1,1,0.154048828125
6.0,0.0,6.0,0.0,5.0,0.0,5.0,0.0,,,,left,1.594007599996985,244.85748369999052,rn14,244.85748369999052,,241.95737829999416,243.9719044999947,True,1.0,['r'],True,0.46875,0.625,0.25,2.0,1.0,0.9634951148421658,0.265869140625,unsucc_cost,0.0,0.0,243.9719044999947,,rn14,1,2023-03-30_11h23.48.840,threat_forest,2021.2.3,60.09442035514424,True,38.0,0.6125,0.5395833333333333,-0.5218750000000001,-0.7564930555555557,0,0,1.0,0.4662513482343138,0.265869140625,1.0,0.46875,0.625,0.25,0.125,0.15625,1.15625,1.15625,1.0,1.0,-1.0,1.0,1,1,0,0,0.625
7.0,0.0,7.0,0.0,0.0,0.0,0.0,0.0,252.1575324000005,255.66093949999777,,right,1.476666299990029,256.28054859999975,rn14,256.28054859999975,,252.1575324000005,255.66093949999777,False,5.0,['p'],True,0.18,0.2,0.1,1.0,2.0,0.7058405977926203,-0.0324991432968132,wait_cost,0.0,4.0,,,rn14,1,2023-03-30_11h23.48.840,threat_forest,2021.2.3,60.09442035514424,False,41.0,0.43333333333333335,0.5229166666666667,-0.9677777777777778,-0.744826388888889,0,0,0.0,0.38978704707515366,-0.0324991432968132,0.18,0.18,0.2,0.1,-0.5000000000000002,-0.3800000000000001,4.62,4.62,1.0,2.0,-1.0,5.0,0,1,0,0,-0.0324991432968132
7.0,0.0,7.0,0.0,1.0,0.0,1.0,0.0,,,,right,1.2692804000107571,262.7218266999989,rn14,262.7218266999989,,252.1575324000005,255.66093949999777,False,4.0,['p'],True,0.18,0.2,0.1,1.0,2.0,0.7058405977926203,0.0073549610652169,wait_cost,0.0,3.0,259.79038520000177,,rn14,1,2023-03-30_11h23.48.840,threat_forest,2021.2.3,60.09442035514424,False,41.0,0.43333333333333335,0.5229166666666667,-0.9677777777777778,-0.744826388888889,0,0,0.0,0.23845012571927265,0.0073549610652169,0.18,0.18,0.2,0.1,-0.5000000000000002,-0.3800000000000001,3.62,3.62,1.0,2.0,-1.0,4.0,0,1,0,0,0.0073549610652169
7.0,0.0,7.0,0.0,2.0,0.0,2.0,0.0,,,,right,0.661705799997435,268.182942799991,rn14,264.0202262999956,266.03450090000115,268.182942799991,,True,3.0,['p'],False,0.4444444444444445,0.6666666666666666,0.3333333333333333,1.0,2.0,0.9656336071428248,0.1096367459228776,succ_gain,1.0,5.0,266.03450090000115,,rn14,1,2023-03-30_11h23.48.840,threat_forest,2021.2.3,60.09442035514424,True,41.0,0.43333333333333335,0.5229166666666667,-0.9677777777777778,-0.744826388888889,1,0,1.0,-0.4129342327049186,0.1096367459228776,0.4444444444444445,0.4444444444444445,0.6666666666666666,0.3333333333333333,0.6666666666666665,0.4444444444444444,3.4444444444444446,3.4444444444444446,0.0,2.0,-1.0,3.0,0,1,0,1,0.1096367459228776
7.0,0.0,7.0,0.0,3.0,0.0,3.0,0.0,,,,right,0.7752454000001308,272.332570700004,rn14,272.332570700004,,268.86558369999693,270.8800889999984,False,5.0,['p'],True,0.18,0.2,0.1,1.0,2.0,0.7058405977926203,-0.0095682962962963,wait_cost,0.0,4.0,270.8800889999984,,rn14,1,2023-03-30_11h23.48.840,threat_forest,2021.2.3,60.09442035514424,False,41.0,0.43333333333333335,0.5229166666666667,-0.9677777777777778,-0.744826388888889,0,0,0.0,-0.25457565458882997,-0.0095682962962963,0.18,0.18,0.2,0.1,-0.5000000000000002,-0.3800000000000001,4.62,4.62,1.0,2.0,1.0,5.0,0,1,0,0,-0.0095682962962963
7.0,0.0,7.0,0.0,4.0,0.0,4.0,0.0,,,,right,0.6343652000068687,278.27353720000247,rn14,273.12846680000075,275.14271230000304,278.27353720000247,,True,4.0,['p'],False,0.4444444444444445,0.6666666666666666,0.3333333333333333,1.0,2.0,0.9656336071428248,0.1732790123456791,succ_gain,1.0,6.0,275.14271230000304,,rn14,1,2023-03-30_11h23.48.840,threat_forest,2021.2.3,60.09442035514424,True,41.0,0.43333333333333335,0.5229166666666667,-0.9677777777777778,-0.744826388888889,1,0,1.0,-0.45513046513634514,0.1732790123456791,0.4444444444444445,0.4444444444444445,0.6666666666666666,0.3333333333333333,0.6666666666666665,0.4444444444444444,4.444444444444445,4.444444444444445,0.0,2.0,-1.0,4.0,0,1,0,1,0.1732790123456791
7.0,0.0,7.0,0.0,5.0,0.0,5.0,0.0,,,,left,0.58292739999888,284.4844085999939,rn14,273.12846680000075,275.14271230000304,284.4844085999939,,False,6.0,['p'],False,0.4444444444444445,0.6666666666666666,0.3333333333333333,1.0,2.0,0.9656336071428248,0.0,wait_cost,1.0,5.0,280.95399019999604,,rn14,1,2023-03-30_11h23.48.840,threat_forest,2021.2.3,60.09442035514424,False,41.0,0.43333333333333335,0.5229166666666667,-0.9677777777777778,-0.744826388888889,1,0,0.0,-0.5396926286897455,0.0,0.0,0.4444444444444445,0.6666666666666666,0.3333333333333333,0.6666666666666665,0.4444444444444444,6.444444444444445,6.444444444444445,0.0,2.0,1.0,6.0,0,0,0,1,-0.84
7.0,0.0,7.0,0.0,6.0,0.0,6.0,0.0,,,,left,0.6549514999933308,290.21225169999525,rn14,273.12846680000075,275.14271230000304,290.21225169999525,,False,5.0,['p'],False,0.4444444444444445,0.6666666666666666,0.3333333333333333,1.0,2.0,0.9656336071428248,0.0,wait_cost,1.0,4.0,287.09828369999013,,rn14,1,2023-03-30_11h23.48.840,threat_forest,2021.2.3,60.09442035514424,False,41.0,0.43333333333333335,0.5229166666666667,-0.9677777777777778,-0.744826388888889,1,0,0.0,-0.4231940919001203,0.0,0.0,0.4444444444444445,0.6666666666666666,0.3333333333333333,0.6666666666666665,0.4444444444444444,5.444444444444445,5.444444444444445,0.0,2.0,-1.0,5.0,0,0,0,1,-0.84
7.0,0.0,7.0,0.0,7.0,0.0,7.0,0.0,,,,right,0.5816324000043096,294.6445260999899,rn14,294.6445260999899,,290.89502480000374,292.9094505999965,False,4.0,['p'],True,0.18,0.2,0.1,1.0,2.0,0.7058405977926203,0.0,wait_cost,0.0,3.0,292.9094505999965,,rn14,1,2023-03-30_11h23.48.840,threat_forest,2021.2.3,60.09442035514424,False,41.0,0.43333333333333335,0.5229166666666667,-0.9677777777777778,-0.744826388888889,0,0,0.0,-0.5419166459164262,0.0,0.0,0.18,0.2,0.1,-0.5000000000000002,-0.3800000000000001,3.62,3.62,1.0,2.0,-1.0,4.0,0,0,0,0,-0.84
8.0,0.0,8.0,0.0,0.0,0.0,0.0,0.0,298.5339860999957,302.02646670000104,,right,0.8271359000063967,304.9819259999931,rn14,298.5339860999957,302.02646670000104,304.9819259999931,,True,5.0,['r'],False,0.2857142857142857,0.2857142857142857,0.0,0.0,2.0,0.5445684476282007,0.0313986794861317,succ_gain,1.0,6.0,,,rn14,1,2023-03-30_11h23.48.840,threat_forest,2021.2.3,60.09442035514424,True,55.0,0.2928571428571428,0.3630952380952381,-1.0485714285714285,-1.008174603174603,1,0,1.0,-0.1897862685515896,0.0313986794861317,0.2857142857142857,0.2857142857142857,0.2857142857142857,0.0,0.1428571428571428,0.1428571428571428,5.142857142857142,5.142857142857142,0.0,2.0,-1.0,5.0,0,1,0,1,0.0313986794861317
8.0,0.0,8.0,0.0,1.0,0.0,1.0,0.0,,,,right,1.4531806000013603,310.7245757999917,rn14,310.7245757999917,,305.83125380000274,307.84542689999216,False,6.0,['r'],True,0.24,0.3,0.2,2.0,2.0,0.9003120349047065,-0.1069245545540785,wait_cost,0.0,5.0,307.84542689999216,,rn14,1,2023-03-30_11h23.48.840,threat_forest,2021.2.3,60.09442035514424,False,55.0,0.2928571428571428,0.3630952380952381,-1.0485714285714285,-1.008174603174603,0,0,0.0,0.3737546714281259,-0.1069245545540785,0.24,0.24,0.3,0.2,-0.3999999999999999,-0.24,5.76,5.76,1.0,2.0,1.0,6.0,0,1,0,0,-0.1069245545540785
8.0,0.0,8.0,0.0,2.0,0.0,2.0,0.0,,,,right,0.8490958000038518,316.1215523999999,rn14,316.1215523999999,,305.83125380000274,307.84542689999216,False,5.0,['r'],True,0.24,0.3,0.2,2.0,2.0,0.9003120349047065,-0.0038576902717201,wait_cost,0.0,4.0,314.2229107000021,,rn14,1,2023-03-30_11h23.48.840,threat_forest,2021.2.3,60.09442035514424,False,55.0,0.2928571428571428,0.3630952380952381,-1.0485714285714285,-1.008174603174603,0,0,0.0,-0.1635832603983665,-0.0038576902717201,0.24,0.24,0.3,0.2,-0.3999999999999999,-0.24,4.76,4.76,1.0,2.0,-1.0,5.0,0,1,0,0,-0.0038576902717201
8.0,0.0,8.0,0.0,3.0,0.0,3.0,0.0,,,,right,1.067412600008538,319.91780260000087,rn14,316.9874257999909,319.0017802999937,319.91780260000087,,True,4.0,['r'],False,0.2857142857142857,0.2857142857142857,0.0,0.0,2.0,0.5445684476282007,0.0512979591836735,unsucc_cost,1.0,2.0,319.0017802999937,,rn14,1,2023-03-30_11h23.48.840,threat_forest,2021.2.3,60.09442035514424,True,55.0,0.2928571428571428,0.3630952380952381,-1.0485714285714285,-1.008174603174603,1,0,1.0,0.06523758924052066,0.0512979591836735,0.2857142857142857,0.2857142857142857,0.2857142857142857,0.0,0.1428571428571428,0.1428571428571428,4.142857142857142,4.142857142857142,0.0,2.0,-1.0,4.0,0,1,0,1,0.0512979591836735
8.0,0.0,8.0,0.0,4.0,0.0,4.0,0.0,,,,left,2.090807600005064,326.81408219999867,rn14,326.81408219999867,,321.0169472999987,323.031229500004,True,2.0,['r'],True,0.24,0.3,0.2,2.0,2.0,0.9003120349047065,-0.0228571428571429,figh_cost,0.0,0.0,323.031229500004,,rn14,1,2023-03-30_11h23.48.840,threat_forest,2021.2.3,60.09442035514424,True,55.0,0.2928571428571428,0.3630952380952381,-1.0485714285714285,-1.008174603174603,0,0,1.0,0.7375504028247047,-0.0228571428571429,0.24,0.24,0.3,0.2,-0.3999999999999999,-0.24,1.76,1.76,1.0,2.0,-1.0,2.0,0,1,0,0,-0.0228571428571429
9.0,0.0,9.0,0.0,0.0,0.0,0.0,0.0,334.27818280000065,337.7841974999901,,left,0.6467888999904972,340.23238269999274,rn14,340.23238269999274,,334.27818280000065,337.7841974999901,True,4.0,['r'],True,0.25,0.25,0.0,0.0,1.0,0.5118595071429148,0.013244588621374,unsucc_cost,0.0,2.0,,,rn14,1,2023-03-30_11h23.48.840,threat_forest,2021.2.3,60.09442035514424,True,20.0,0.4583333333333333,0.3755952380952381,-1.625,-1.3367857142857142,1,0,1.0,-0.43573531285115485,0.013244588621374,0.25,0.25,0.25,0.0,-0.25,-0.25,3.75,3.75,1.0,1.0,-1.0,4.0,0,1,0,1,0.013244588621374
9.0,0.0,9.0,0.0,1.0,0.0,1.0,0.0,,,,right,0.4684717000054661,346.60954589999164,rn14,340.89834220000193,342.9126316000038,346.60954589999164,,True,2.0,['r'],False,0.2222222222222222,0.6666666666666666,0.6666666666666666,2.0,1.0,0.77250688571426,0.0020522694729823,unsucc_cost,1.0,0.0,342.9126316000038,,rn14,1,2023-03-30_11h23.48.840,threat_forest,2021.2.3,60.09442035514424,True,20.0,0.4583333333333333,0.3755952380952381,-1.625,-1.3367857142857142,0,0,1.0,-0.7582795846661073,0.0020522694729823,0.2222222222222222,0.2222222222222222,0.6666666666666666,0.6666666666666666,-1.0,-1.0,1.0,1.0,0.0,1.0,-1.0,2.0,0,1,0,0,0.0020522694729823
10.0,0.0,10.0,0.0,0.0,0.0,0.0,0.0,350.96875620000355,354.4670793999976,,right,1.0426896999997552,358.0842496999976,rn14,350.96875620000355,354.4670793999976,358.0842496999976,,True,4.0,['p'],False,0.3950617283950617,0.4444444444444444,0.1111111111111111,1.0,2.0,0.8733423231021583,0.0168321275219163,succ_gain,1.0,6.0,,,rn14,1,2023-03-30_11h23.48.840,threat_forest,2021.2.3,60.09442035514424,True,51.0,0.5555555555555556,0.5069444444444444,-0.2376543209876542,-0.9313271604938271,1,0,1.0,0.041803624563561126,0.0168321275219163,0.3950617283950617,0.3950617283950617,0.4444444444444444,0.1111111111111111,0.4444444444444444,0.4691358024691359,4.469135802469136,4.469135802469136,0.0,2.0,-1.0,4.0,0,1,0,1,0.0168321275219163
10.0,0.0,10.0,0.0,1.0,0.0,1.0,0.0,,,,right,1.1307355000026291,363.3773063999979,rn14,350.96875620000355,354.4670793999976,363.3773063999979,,True,6.0,['p'],False,0.3950617283950617,0.4444444444444444,0.1111111111111111,1.0,2.0,0.8733423231021583,-0.0448036713827231,unsucc_cost,1.0,4.0,361.162221999999,,rn14,1,2023-03-30_11h23.48.840,threat_forest,2021.2.3,60.09442035514424,True,51.0,0.5555555555555556,0.5069444444444444,-0.2376543209876542,-0.9313271604938271,1,0,1.0,0.12286830594858497,-0.0448036713827231,0.3950617283950617,0.3950617283950617,0.4444444444444444,0.1111111111111111,0.4444444444444444,0.4691358024691359,6.469135802469136,6.469135802469136,0.0,2.0,1.0,6.0,0,1,0,1,-0.0448036713827231
10.0,0.0,10.0,0.0,2.0,0.0,2.0,0.0,,,,right,0.7190611000114586,369.1052609000035,rn14,350.96875620000355,354.4670793999976,369.1052609000035,,True,4.0,['p'],False,0.3950617283950617,0.4444444444444444,0.1111111111111111,1.0,2.0,0.8733423231021583,0.0125899016646355,succ_gain,1.0,6.0,366.5407040999999,,rn14,1,2023-03-30_11h23.48.840,threat_forest,2021.2.3,60.09442035514424,True,51.0,0.5555555555555556,0.5069444444444444,-0.2376543209876542,-0.9313271604938271,1,0,1.0,-0.32980894571798597,0.0125899016646355,0.3950617283950617,0.3950617283950617,0.4444444444444444,0.1111111111111111,0.4444444444444444,0.4691358024691359,4.469135802469136,4.469135802469136,0.0,2.0,-1.0,4.0,0,1,0,1,0.0125899016646355
10.0,0.0,10.0,0.0,3.0,0.0,3.0,0.0,,,,left,1.2985506999975769,374.7000015999947,rn14,350.96875620000355,354.4670793999976,374.7000015999947,,False,6.0,['p'],False,0.3950617283950617,0.4444444444444444,0.1111111111111111,1.0,2.0,0.8733423231021583,-0.1662308233651524,wait_cost,1.0,5.0,371.8690127000009,,rn14,1,2023-03-30_11h23.48.840,threat_forest,2021.2.3,60.09442035514424,False,51.0,0.5555555555555556,0.5069444444444444,-0.2376543209876542,-0.9313271604938271,1,0,0.0,0.2612487964085449,-0.1662308233651524,0.0,0.3950617283950617,0.4444444444444444,0.1111111111111111,0.4444444444444444,0.4691358024691359,6.469135802469136,6.469135802469136,0.0,2.0,1.0,6.0,0,0,0,1,-0.84
10.0,0.0,10.0,0.0,4.0,0.0,4.0,0.0,,,,left,1.1411238000000594,379.4457159000012,rn14,350.96875620000355,354.4670793999976,379.4457159000012,,False,5.0,['p'],False,0.3950617283950617,0.4444444444444444,0.1111111111111111,1.0,2.0,0.8733423231021583,-0.2223920435194122,wait_cost,1.0,4.0,378.0299154999957,,rn14,1,2023-03-30_11h23.48.840,threat_forest,2021.2.3,60.09442035514424,False,51.0,0.5555555555555556,0.5069444444444444,-0.2376543209876542,-0.9313271604938271,1,0,0.0,0.13201356630878505,-0.2223920435194122,0.0,0.3950617283950617,0.4444444444444444,0.1111111111111111,0.4444444444444444,0.4691358024691359,5.469135802469136,5.469135802469136,0.0,2.0,-1.0,5.0,0,0,0,1,-0.84
10.0,0.0,10.0,0.0,5.0,0.0,5.0,0.0,,,,left,0.7194091999990633,383.2587177999958,rn14,350.96875620000355,354.4670793999976,383.2587177999958,,False,4.0,['p'],False,0.3950617283950617,0.4444444444444444,0.1111111111111111,1.0,2.0,0.8733423231021583,-0.2975918305136412,wait_cost,1.0,3.0,382.6255969999911,,rn14,1,2023-03-30_11h23.48.840,threat_forest,2021.2.3,60.09442035514424,False,51.0,0.5555555555555556,0.5069444444444444,-0.2376543209876542,-0.9313271604938271,1,0,0.0,-0.3293249593688801,-0.2975918305136412,0.0,0.3950617283950617,0.4444444444444444,0.1111111111111111,0.4444444444444444,0.4691358024691359,4.469135802469136,4.469135802469136,0.0,2.0,-1.0,4.0,0,0,0,1,-0.84
10.0,0.0,10.0,0.0,6.0,0.0,6.0,0.0,,,,left,0.5426373000082094,387.0562613999937,rn14,387.0562613999937,,384.008038400003,386.0224165999971,True,3.0,['p'],True,0.5555555555555556,0.6666666666666666,0.1666666666666666,1.0,2.0,0.8929352898779306,-0.3124142661179698,succ_gain,0.0,5.0,386.0224165999971,,rn14,1,2023-03-30_11h23.48.840,threat_forest,2021.2.3,60.09442035514424,True,51.0,0.5555555555555556,0.5069444444444444,-0.2376543209876542,-0.9313271604938271,1,1,1.0,-0.6113141380160433,-0.3124142661179698,0.0,0.5555555555555556,0.6666666666666666,0.1666666666666666,1.1666666666666667,1.0555555555555558,4.055555555555555,4.055555555555555,1.0,2.0,-1.0,3.0,0,0,1,1,-0.84
10.0,0.0,10.0,0.0,7.0,0.0,7.0,0.0,,,,left,1.527787900005933,393.31758039999113,rn14,387.62130879999313,389.6356015999918,393.31758039999113,,False,5.0,['p'],False,0.3950617283950617,0.4444444444444444,0.1111111111111111,1.0,2.0,0.8733423231021583,0.0,wait_cost,1.0,4.0,389.6356015999918,,rn14,1,2023-03-30_11h23.48.840,threat_forest,2021.2.3,60.09442035514424,False,51.0,0.5555555555555556,0.5069444444444444,-0.2376543209876542,-0.9313271604938271,1,0,0.0,0.4238208722128415,0.0,0.0,0.3950617283950617,0.4444444444444444,0.1111111111111111,0.4444444444444444,0.4691358024691359,5.469135802469136,5.469135802469136,0.0,2.0,1.0,5.0,0,0,0,1,-0.84
11.0,0.0,11.0,0.0,0.0,0.0,0.0,0.0,399.1146153000009,402.6236358000024,,left,1.559924500004854,405.0051119999989,rn14,405.0051119999989,,399.1146153000009,402.6236358000024,True,4.0,['r'],True,0.36,0.6,0.4,2.0,1.0,0.9801625908629508,0.0090639294214999,figh_cost,0.0,1.0,,,rn14,1,2023-03-30_11h23.48.840,threat_forest,2021.2.3,60.09442035514424,True,0.0,0.55,0.5527777777777778,-0.9100000000000001,-0.5738271604938272,0,0,1.0,0.44463742265746625,0.0090639294214999,0.36,0.36,0.6,0.4,-0.40000000000000036,-0.3200000000000003,3.6799999999999997,3.6799999999999997,1.0,1.0,-1.0,4.0,0,1,0,0,0.0090639294214999
11.0,0.0,11.0,0.0,1.0,0.0,1.0,0.0,,,,left,0.8845823000010569,412.3481198999944,rn14,412.3481198999944,,399.1146153000009,402.6236358000024,True,1.0,['r'],True,0.36,0.6,0.4,2.0,1.0,0.9801625908629508,0.0554677811999999,figh_cost,0.0,0.0,408.6013126999897,,rn14,1,2023-03-30_11h23.48.840,threat_forest,2021.2.3,60.09442035514424,True,0.0,0.55,0.5527777777777778,-0.9100000000000001,-0.5738271604938272,0,0,1.0,-0.12263972279053503,0.0554677811999999,1.0,0.36,0.6,0.4,-0.40000000000000036,-0.3200000000000003,0.6799999999999997,1.0,1.0,1.0,-1.0,1.0,1,1,0,0,0.625
12.0,0.0,12.0,0.0,0.0,0.0,0.0,0.0,418.4664150000026,421.97221019999415,,right,1.0278218000021295,425.6201998000033,rn14,418.4664150000026,421.97221019999415,425.6201998000033,,True,4.0,['r'],False,0.3333333333333333,0.3333333333333333,0.0,0.0,2.0,0.5793801642856949,0.0501512138139916,unsucc_cost,1.0,2.0,,,rn14,1,2023-03-30_11h23.48.840,threat_forest,2021.2.3,60.09442035514424,True,46.0,0.3666666666666667,0.45833333333333337,-1.0533333333333335,-0.9816666666666668,1,0,1.0,0.027441805705336317,0.0501512138139916,0.3333333333333333,0.3333333333333333,0.3333333333333333,0.0,0.33333333333333315,0.33333333333333315,4.333333333333333,4.333333333333333,0.0,2.0,-1.0,4.0,0,1,0,1,0.0501512138139916
12.0,0.0,12.0,0.0,1.0,0.0,1.0,0.0,,,,right,0.7612435999908485,430.7143500999955,rn14,418.4664150000026,421.97221019999415,430.7143500999955,,True,2.0,['r'],False,0.3333333333333333,0.3333333333333333,0.0,0.0,2.0,0.5793801642856949,0.0282073652674897,unsucc_cost,1.0,0.0,428.6825865999999,,rn14,1,2023-03-30_11h23.48.840,threat_forest,2021.2.3,60.09442035514424,True,46.0,0.3666666666666667,0.45833333333333337,-1.0533333333333335,-0.9816666666666668,1,0,1.0,-0.272801867230352,0.0282073652674897,0.3333333333333333,0.3333333333333333,0.3333333333333333,0.0,0.33333333333333315,0.33333333333333315,2.333333333333333,2.333333333333333,0.0,2.0,-1.0,2.0,0,1,0,1,0.0282073652674897
13.0,0.0,13.0,0.0,0.0,0.0,0.0,0.0,437.0857163000037,440.5881017999927,,right,1.1702874999900814,441.3714667000022,rn14,437.0857163000037,440.5881017999927,441.3714667000022,,True,4.0,['r'],False,0.2040816326530612,0.2857142857142857,0.2857142857142857,2.0,2.0,0.9335459102197724,-0.0038600655291852,unsucc_cost,1.0,2.0,,,rn14,1,2023-03-30_11h23.48.840,threat_forest,2021.2.3,60.09442035514424,True,17.0,0.26785714285714285,0.31726190476190474,-1.2346938775510203,-1.144013605442177,0,0,1.0,0.15724944511110542,-0.0038600655291852,0.2040816326530612,0.2040816326530612,0.2857142857142857,0.2857142857142857,-0.7142857142857144,-0.46938775510204067,3.5306122448979593,3.5306122448979593,0.0,2.0,-1.0,4.0,0,1,0,0,-0.0038600655291852
13.0,0.0,13.0,0.0,1.0,0.0,1.0,0.0,,,,right,1.813080700012506,445.56715370000165,rn14,445.56715370000165,,442.56997529999353,444.5843431999965,False,2.0,['r'],True,0.25,0.25,0.0,0.0,2.0,0.5118595071429148,0.0114206737974505,wait_cost,0.0,1.0,444.5843431999965,,rn14,1,2023-03-30_11h23.48.840,threat_forest,2021.2.3,60.09442035514424,False,17.0,0.26785714285714285,0.31726190476190474,-1.2346938775510203,-1.144013605442177,1,0,0.0,0.5950274426477858,0.0114206737974505,0.25,0.25,0.25,0.0,0.0,0.0,2.0,2.0,1.0,2.0,-1.0,2.0,0,1,0,1,0.0114206737974505
13.0,0.0,13.0,0.0,2.0,0.0,2.0,0.0,,,,left,0.8821616000059294,450.4628778999904,rn14,450.4628778999904,,442.56997529999353,444.5843431999965,True,1.0,['r'],True,0.25,0.25,0.0,0.0,2.0,0.5118595071429148,0.0699967163129748,unsucc_cost,0.0,0.0,449.4130956000008,,rn14,1,2023-03-30_11h23.48.840,threat_forest,2021.2.3,60.09442035514424,True,17.0,0.26785714285714285,0.31726190476190474,-1.2346938775510203,-1.144013605442177,1,0,1.0,-0.1253800197967018,0.0699967163129748,1.0,0.25,0.25,0.0,0.0,0.0,1.0,1.0,1.0,2.0,-1.0,1.0,1,1,0,1,0.625
14.0,0.0,14.0,0.0,0.0,0.0,0.0,0.0,454.7031722999964,458.19366209999134,,right,0.9175021999981254,458.9046967000031,rn14,454.7031722999964,458.19366209999134,458.9046967000031,,True,5.0,['p'],False,0.24,0.4,0.4,2.0,2.0,0.9801625908629508,0.0016114560000002,succ_gain,1.0,6.0,,,rn14,1,2023-03-30_11h23.48.840,threat_forest,2021.2.3,60.09442035514424,True,65.0,0.30000000000000004,0.2839285714285714,-1.5000000000000002,-1.3673469387755102,0,0,1.0,-0.08610030123816612,0.0016114560000002,0.24,0.24,0.4,0.4,-0.6000000000000001,-0.44000000000000017,4.56,4.56,0.0,2.0,-1.0,5.0,0,1,0,0,0.0016114560000002
14.0,0.0,14.0,0.0,1.0,0.0,1.0,0.0,,,,right,0.9014039000030608,464.7215507999936,rn14,464.7215507999936,,459.853850200001,461.8682203999924,False,6.0,['p'],True,0.16,0.2,0.2,2.0,2.0,0.8198746470064713,-0.08017472,wait_cost,0.0,5.0,461.8682203999924,,rn14,1,2023-03-30_11h23.48.840,threat_forest,2021.2.3,60.09442035514424,False,65.0,0.30000000000000004,0.2839285714285714,-1.5000000000000002,-1.3673469387755102,0,0,0.0,-0.10380184212849136,-0.08017472,0.16,0.16,0.2,0.2,-0.8000000000000003,-0.5600000000000003,5.4399999999999995,5.4399999999999995,1.0,2.0,1.0,6.0,0,1,0,0,-0.08017472
14.0,0.0,14.0,0.0,2.0,0.0,2.0,0.0,,,,right,1.5289478000049712,468.7621299000021,rn14,468.7621299000021,,459.853850200001,461.8682203999924,False,5.0,['p'],True,0.16,0.2,0.2,2.0,2.0,0.8198746470064713,0.0009920000000001,wait_cost,0.0,4.0,467.662679999994,,rn14,1,2023-03-30_11h23.48.840,threat_forest,2021.2.3,60.09442035514424,False,65.0,0.30000000000000004,0.2839285714285714,-1.5000000000000002,-1.3673469387755102,0,0,0.0,0.42457978640663624,0.0009920000000001,0.16,0.16,0.2,0.2,-0.8000000000000003,-0.5600000000000003,4.4399999999999995,4.4399999999999995,1.0,2.0,-1.0,5.0,0,1,0,0,0.0009920000000001
14.0,0.0,14.0,0.0,3.0,0.0,3.0,0.0,,,,left,1.1775805999932345,474.3737974999967,rn14,474.3737974999967,,459.853850200001,461.8682203999924,True,4.0,['p'],True,0.16,0.2,0.2,2.0,2.0,0.8198746470064713,0.0127999999999998,succ_gain,0.0,6.0,472.3250016999955,,rn14,1,2023-03-30_11h23.48.840,threat_forest,2021.2.3,60.09442035514424,True,65.0,0.30000000000000004,0.2839285714285714,-1.5000000000000002,-1.3673469387755102,0,0,1.0,0.163461994666246,0.0127999999999998,0.16,0.16,0.2,0.2,-0.8000000000000003,-0.5600000000000003,3.4399999999999995,3.4399999999999995,1.0,2.0,-1.0,4.0,0,1,0,0,0.0127999999999998
14.0,0.0,14.0,0.0,4.0,0.0,4.0,0.0,,,,right,0.5449679000012111,480.3523037999985,rn14,480.3523037999985,,459.853850200001,461.8682203999924,False,6.0,['p'],True,0.16,0.2,0.2,2.0,2.0,0.8198746470064713,-0.14,wait_cost,0.0,5.0,477.5867586999957,,rn14,1,2023-03-30_11h23.48.840,threat_forest,2021.2.3,60.09442035514424,False,65.0,0.30000000000000004,0.2839285714285714,-1.5000000000000002,-1.3673469387755102,0,0,0.0,-0.6070283851338586,-0.14,0.0,0.16,0.2,0.2,-0.8000000000000003,-0.5600000000000003,5.4399999999999995,5.4399999999999995,1.0,2.0,1.0,6.0,0,0,0,0,-0.84
14.0,0.0,14.0,0.0,5.0,0.0,5.0,0.0,,,,left,1.0112369999988005,486.0799107999919,rn14,480.9174416000024,482.9347118000005,486.0799107999919,,False,5.0,['p'],False,0.24,0.4,0.4,2.0,2.0,0.9801625908629508,-0.312,wait_cost,1.0,4.0,482.9347118000005,,rn14,1,2023-03-30_11h23.48.840,threat_forest,2021.2.3,60.09442035514424,False,65.0,0.30000000000000004,0.2839285714285714,-1.5000000000000002,-1.3673469387755102,0,0,0.0,0.01117433392973846,-0.312,0.0,0.24,0.4,0.4,-0.6000000000000001,-0.44000000000000017,4.56,4.56,0.0,2.0,-1.0,5.0,0,0,0,0,-0.84
14.0,0.0,14.0,0.0,6.0,0.0,6.0,0.0,,,,right,0.612771200001589,492.2932665999979,rn14,492.2932665999979,,487.1115472999954,489.1283604999917,False,4.0,['p'],True,0.16,0.2,0.2,2.0,2.0,0.8198746470064713,-0.16,wait_cost,0.0,3.0,489.1283604999917,,rn14,1,2023-03-30_11h23.48.840,threat_forest,2021.2.3,60.09442035514424,False,65.0,0.30000000000000004,0.2839285714285714,-1.5000000000000002,-1.3673469387755102,0,0,0.0,-0.4897636590466082,-0.16,0.0,0.16,0.2,0.2,-0.8000000000000003,-0.5600000000000003,3.4399999999999995,3.4399999999999995,1.0,2.0,-1.0,4.0,0,0,0,0,-0.84
14.0,0.0,14.0,0.0,7.0,0.0,7.0,0.0,,,,right,0.687496899990947,498.16794669999217,rn14,498.16794669999217,,487.1115472999954,489.1283604999917,False,3.0,['p'],True,0.16,0.2,0.2,2.0,2.0,0.8198746470064713,-0.2,wait_cost,0.0,2.0,494.93723959999625,,rn14,1,2023-03-30_11h23.48.840,threat_forest,2021.2.3,60.09442035514424,False,65.0,0.30000000000000004,0.2839285714285714,-1.5000000000000002,-1.3673469387755102,0,0,0.0,-0.37469795855565385,-0.2,0.0,0.16,0.2,0.2,-0.8000000000000003,-0.5600000000000003,2.4399999999999995,2.4399999999999995,1.0,2.0,-1.0,3.0,0,0,0,0,-0.84
15.0,0.0,15.0,0.0,0.0,0.0,0.0,0.0,502.62677649999387,506.1264070999896,,left,1.579974799999036,509.0747535999981,rn14,509.0747535999981,,502.62677649999387,506.1264070999896,True,4.0,['p'],True,0.2222222222222222,0.3333333333333333,0.3333333333333333,2.0,2.0,0.9656336071428248,0.0156420001646662,unsucc_cost,0.0,2.0,,,rn14,1,2023-03-30_11h23.48.840,threat_forest,2021.2.3,60.09442035514424,True,63.0,0.26666666666666666,0.2833333333333333,-1.5022222222222226,-1.5011111111111113,1,0,1.0,0.4574088975439841,0.0156420001646662,0.2222222222222222,0.2222222222222222,0.3333333333333333,0.3333333333333333,-0.666666666666667,-0.44444444444444464,3.5555555555555554,3.5555555555555554,1.0,2.0,-1.0,4.0,0,1,0,1,0.0156420001646662
15.0,0.0,15.0,0.0,1.0,0.0,1.0,0.0,,,,left,1.4188626000104705,515.2552485999913,rn14,510.67286789999343,512.6873619999969,515.2552485999913,,False,2.0,['p'],False,0.16,0.2,0.2,2.0,2.0,0.8198746470064713,-0.0035317610797812,wait_cost,1.0,1.0,512.6873619999969,,rn14,1,2023-03-30_11h23.48.840,threat_forest,2021.2.3,60.09442035514424,False,63.0,0.26666666666666666,0.2833333333333333,-1.5022222222222226,-1.5011111111111113,0,0,0.0,0.3498555647444361,-0.0035317610797812,0.16,0.16,0.2,0.2,-0.8000000000000003,-0.5600000000000003,1.4399999999999997,1.4399999999999997,0.0,2.0,-1.0,2.0,0,1,0,0,-0.0035317610797812
15.0,0.0,15.0,0.0,2.0,0.0,2.0,0.0,,,,left,0.6888353999966057,522.3785568000021,rn14,522.3785568000021,,516.7008533999906,518.7150865000003,True,1.0,['p'],True,0.2222222222222222,0.3333333333333333,0.3333333333333333,2.0,2.0,0.9656336071428248,0.0504359153923011,unsucc_cost,0.0,0.0,518.7150865000003,,rn14,1,2023-03-30_11h23.48.840,threat_forest,2021.2.3,60.09442035514424,True,63.0,0.26666666666666666,0.2833333333333333,-1.5022222222222226,-1.5011111111111113,1,0,1.0,-0.372752933465933,0.0504359153923011,1.0,0.2222222222222222,0.3333333333333333,0.3333333333333333,-0.666666666666667,-0.44444444444444464,0.5555555555555554,1.0,1.0,2.0,-1.0,1.0,1,1,0,1,0.625
16.0,0.0,16.0,0.0,0.0,0.0,0.0,0.0,526.9525365000009,530.4540140000026,,left,1.5593815999891376,533.50186389999,rn14,533.50186389999,,526.9525365000009,530.4540140000026,True,4.0,['p'],True,0.4444444444444445,0.6666666666666666,0.3333333333333333,1.0,2.0,0.9656336071428248,0.064046602155505,succ_gain,0.0,6.0,,,rn14,1,2023-03-30_11h23.48.840,threat_forest,2021.2.3,60.09442035514424,True,1.0,0.4833333333333333,0.375,-0.7877777777777778,-1.1450000000000002,1,1,1.0,0.4442893324067536,0.064046602155505,0.4444444444444445,0.4444444444444445,0.6666666666666666,0.3333333333333333,0.6666666666666665,0.4444444444444444,4.444444444444445,4.444444444444445,1.0,2.0,-1.0,4.0,0,1,1,1,0.064046602155505
16.0,0.0,16.0,0.0,1.0,0.0,1.0,0.0,,,,right,0.4409217000065837,538.5301283000008,rn14,538.5301283000008,,526.9525365000009,530.4540140000026,False,6.0,['p'],True,0.4444444444444445,0.6666666666666666,0.3333333333333333,1.0,2.0,0.9656336071428248,-0.0704457173777337,wait_cost,0.0,5.0,537.0978211000038,,rn14,1,2023-03-30_11h23.48.840,threat_forest,2021.2.3,60.09442035514424,False,1.0,0.4833333333333333,0.375,-0.7877777777777778,-1.1450000000000002,1,1,0.0,-0.818887970304816,-0.0704457173777337,0.4444444444444445,0.4444444444444445,0.6666666666666666,0.3333333333333333,0.6666666666666665,0.4444444444444444,6.444444444444445,6.444444444444445,1.0,2.0,1.0,6.0,0,1,1,1,-0.0704457173777337
16.0,0.0,16.0,0.0,2.0,0.0,2.0,0.0,,,,right,1.5699776000110433,543.0962318999955,rn14,538.9963397999963,541.010804199992,543.0962318999955,,True,5.0,['p'],False,0.27,0.3,0.1,1.0,2.0,0.7963326591781347,0.0041028475611568,unsucc_cost,1.0,3.0,541.010804199992,,rn14,1,2023-03-30_11h23.48.840,threat_forest,2021.2.3,60.09442035514424,True,1.0,0.4833333333333333,0.375,-0.7877777777777778,-1.1450000000000002,1,0,1.0,0.45106135174954515,0.0041028475611568,0.27,0.27,0.3,0.1,-0.10000000000000009,-0.020000000000000018,4.98,4.98,0.0,2.0,-1.0,5.0,0,1,0,1,0.0041028475611568
16.0,0.0,16.0,0.0,3.0,0.0,3.0,0.0,,,,left,1.5479263000015635,548.2551107000036,rn14,538.9963397999963,541.010804199992,548.2551107000036,,False,3.0,['p'],False,0.27,0.3,0.1,1.0,2.0,0.7963326591781347,-0.0161841808487654,wait_cost,1.0,2.0,546.7054938999936,,rn14,1,2023-03-30_11h23.48.840,threat_forest,2021.2.3,60.09442035514424,False,1.0,0.4833333333333333,0.375,-0.7877777777777778,-1.1450000000000002,1,0,0.0,0.43691616421604057,-0.0161841808487654,0.27,0.27,0.3,0.1,-0.10000000000000009,-0.020000000000000018,2.98,2.98,0.0,2.0,-1.0,3.0,0,1,0,1,-0.0161841808487654
16.0,0.0,16.0,0.0,4.0,0.0,4.0,0.0,,,,left,0.6661375999974553,553.0166809999937,rn14,553.0166809999937,,549.819699899992,551.8340300999989,True,2.0,['p'],True,0.4444444444444445,0.6666666666666666,0.3333333333333333,1.0,2.0,0.9656336071428248,0.0872222222222222,unsucc_cost,0.0,0.0,551.8340300999989,,rn14,1,2023-03-30_11h23.48.840,threat_forest,2021.2.3,60.09442035514424,True,1.0,0.4833333333333333,0.375,-0.7877777777777778,-1.1450000000000002,1,1,1.0,-0.4062590231791671,0.0872222222222222,0.4444444444444445,0.4444444444444445,0.6666666666666666,0.3333333333333333,0.6666666666666665,0.4444444444444444,2.4444444444444446,2.4444444444444446,1.0,2.0,-1.0,2.0,0,1,1,1,0.0872222222222222
17.0,0.0,17.0,0.0,0.0,0.0,0.0,0.0,556.5869636999996,560.0930032000033,,right,0.9050790999899618,563.8238455999963,rn14,556.5869636999996,560.0930032000033,563.8238455999963,,True,5.0,['r'],False,0.4081632653061224,0.5714285714285714,0.2857142857142857,2.0,1.0,0.9885754083994552,-0.0004231906775603,succ_gain,1.0,6.0,,,rn14,1,2023-03-30_11h23.48.840,threat_forest,2021.2.3,60.09442035514424,True,35.0,0.5357142857142857,0.5095238095238095,-0.7806122448979592,-0.7841950113378685,0,0,1.0,-0.0997329357978319,-0.0004231906775603,0.4081632653061224,0.4081632653061224,0.5714285714285714,0.2857142857142857,-0.1428571428571428,-0.061224489795918435,4.938775510204081,4.938775510204081,0.0,1.0,-1.0,5.0,0,1,0,0,-0.0004231906775603
17.0,0.0,17.0,0.0,1.0,0.0,1.0,0.0,,,,right,1.274366600002395,568.0193101999903,rn14,568.0193101999903,,564.7557338999904,566.7701871000027,False,6.0,['r'],True,0.5,0.5,0.0,0.0,1.0,0.6309297535714574,-0.0434388067740604,wait_cost,0.0,5.0,566.7701871000027,,rn14,1,2023-03-30_11h23.48.840,threat_forest,2021.2.3,60.09442035514424,False,35.0,0.5357142857142857,0.5095238095238095,-0.7806122448979592,-0.7841950113378685,1,0,0.0,0.24244927086033302,-0.0434388067740604,0.5,0.5,0.5,0.0,0.5,0.5,6.5,6.5,1.0,1.0,1.0,6.0,0,1,0,1,-0.0434388067740604
17.0,0.0,17.0,0.0,2.0,0.0,2.0,0.0,,,,right,0.819621399990865,572.9158211000031,rn14,569.3180107999942,571.3325025999948,572.9158211000031,,True,5.0,['r'],False,0.4081632653061224,0.5714285714285714,0.2857142857142857,2.0,1.0,0.9885754083994552,-0.0007263192497883,unsucc_cost,1.0,3.0,571.3325025999948,,rn14,1,2023-03-30_11h23.48.840,threat_forest,2021.2.3,60.09442035514424,True,35.0,0.5357142857142857,0.5095238095238095,-0.7806122448979592,-0.7841950113378685,0,0,1.0,-0.19891275267169942,-0.0007263192497883,0.4081632653061224,0.4081632653061224,0.5714285714285714,0.2857142857142857,-0.1428571428571428,-0.061224489795918435,4.938775510204081,4.938775510204081,0.0,1.0,-1.0,5.0,0,1,0,0,-0.0007263192497883
17.0,0.0,17.0,0.0,3.0,0.0,3.0,0.0,,,,left,0.6177396999992197,578.3599178000004,rn14,578.3599178000004,,573.763955699993,575.7783559999953,True,3.0,['r'],True,0.5,0.5,0.0,0.0,1.0,0.6309297535714574,0.1629165462519868,succ_gain,0.0,4.0,575.7783559999953,,rn14,1,2023-03-30_11h23.48.840,threat_forest,2021.2.3,60.09442035514424,True,35.0,0.5357142857142857,0.5095238095238095,-0.7806122448979592,-0.7841950113378685,1,0,1.0,-0.4816881076652578,0.1629165462519868,0.5,0.5,0.5,0.0,0.5,0.5,3.5,3.5,1.0,1.0,-1.0,3.0,0,1,0,1,0.1629165462519868
17.0,0.0,17.0,0.0,4.0,0.0,4.0,0.0,,,,left,1.52650910000375,582.4072525999945,rn14,579.0089834999962,581.0234562999976,582.4072525999945,,False,4.0,['r'],False,0.4081632653061224,0.5714285714285714,0.2857142857142857,2.0,1.0,0.9885754083994552,-0.0210180282025346,wait_cost,1.0,3.0,581.0234562999976,,rn14,1,2023-03-30_11h23.48.840,threat_forest,2021.2.3,60.09442035514424,False,35.0,0.5357142857142857,0.5095238095238095,-0.7806122448979592,-0.7841950113378685,0,0,0.0,0.42298349452697565,-0.0210180282025346,0.4081632653061224,0.4081632653061224,0.5714285714285714,0.2857142857142857,-0.1428571428571428,-0.061224489795918435,3.9387755102040813,3.9387755102040813,0.0,1.0,1.0,4.0,0,1,0,0,-0.0210180282025346
17.0,0.0,17.0,0.0,5.0,0.0,5.0,0.0,,,,right,1.958376700000372,588.383539100003,rn14,579.0089834999962,581.0234562999976,588.383539100003,,True,3.0,['r'],False,0.4081632653061224,0.5714285714285714,0.2857142857142857,2.0,1.0,0.9885754083994552,0.0701270304039983,succ_gain,1.0,4.0,585.9687324999977,,rn14,1,2023-03-30_11h23.48.840,threat_forest,2021.2.3,60.09442035514424,True,35.0,0.5357142857142857,0.5095238095238095,-0.7806122448979592,-0.7841950113378685,0,0,1.0,0.6721159157979641,0.0701270304039983,0.4081632653061224,0.4081632653061224,0.5714285714285714,0.2857142857142857,-0.1428571428571428,-0.061224489795918435,2.9387755102040813,2.9387755102040813,0.0,1.0,-1.0,3.0,0,1,0,0,0.0701270304039983
17.0,0.0,17.0,0.0,6.0,0.0,6.0,0.0,,,,left,0.7168032000045059,595.9433754999918,rn14,579.0089834999962,581.0234562999976,595.9433754999918,,False,4.0,['r'],False,0.4081632653061224,0.5714285714285714,0.2857142857142857,2.0,1.0,0.9885754083994552,-0.1559766763848396,wait_cost,1.0,3.0,592.379469099993,,rn14,1,2023-03-30_11h23.48.840,threat_forest,2021.2.3,60.09442035514424,False,35.0,0.5357142857142857,0.5095238095238095,-0.7806122448979592,-0.7841950113378685,0,0,0.0,-0.3329539530393808,-0.1559766763848396,0.0,0.4081632653061224,0.5714285714285714,0.2857142857142857,-0.1428571428571428,-0.061224489795918435,3.9387755102040813,3.9387755102040813,0.0,1.0,1.0,4.0,0,0,0,0,-0.84
17.0,0.0,17.0,0.0,7.0,0.0,7.0,0.0,,,,right,1.1156257999973604,601.8542433999974,rn14,601.8542433999974,,596.6925082999951,598.7069582999975,False,3.0,['r'],True,0.5,0.5,0.0,0.0,1.0,0.6309297535714574,0.0,wait_cost,0.0,2.0,598.7069582999975,,rn14,1,2023-03-30_11h23.48.840,threat_forest,2021.2.3,60.09442035514424,False,35.0,0.5357142857142857,0.5095238095238095,-0.7806122448979592,-0.7841950113378685,1,0,0.0,0.10941550307007848,0.0,0.0,0.5,0.5,0.0,0.5,0.5,3.5,3.5,1.0,1.0,-1.0,3.0,0,0,0,1,-0.84
0.0,0.0,0.0,0.0,0.0,0.0,0.0,0.0,11.397007499996109,14.909245599992571,,left,0.7838053999876138,18.61807599999884,rn14,18.61807599999884,,11.397007499996109,14.909245599992571,True,5.0,['r'],True,0.5,0.5,0.0,0.0,2.0,0.6309297535714574,0.0898892961248285,unsucc_cost,0.0,3.0,,,rn14,2,2023-03-30_11h34.20.266,threat_forest,2021.2.3,60.107315601480906,True,49.0,0.5833333333333333,0.5595238095238095,-0.888888888888889,-0.8347505668934241,1,0,1.0,-0.24359450374351044,0.0898892961248285,0.5,0.5,0.5,0.0,1.0,1.0,6.0,6.0,1.0,2.0,-1.0,5.0,0,1,0,1,0.0898892961248285
0.0,0.0,0.0,0.0,1.0,0.0,1.0,0.0,,,,left,0.8420909999986179,23.651360200005,rn14,23.651360200005,,11.397007499996109,14.909245599992571,True,3.0,['r'],True,0.5,0.5,0.0,0.0,2.0,0.6309297535714574,0.1821844993141289,succ_gain,0.0,5.0,21.436538099995232,,rn14,2,2023-03-30_11h34.20.266,threat_forest,2021.2.3,60.107315601480906,True,49.0,0.5833333333333333,0.5595238095238095,-0.888888888888889,-0.8347505668934241,1,0,1.0,-0.17186719457174154,0.1821844993141289,0.5,0.5,0.5,0.0,1.0,1.0,4.0,4.0,1.0,2.0,-1.0,3.0,0,1,0,1,0.1821844993141289
0.0,0.0,0.0,0.0,2.0,0.0,2.0,0.0,,,,left,1.324596999998903,29.01340799999889,rn14,29.01340799999889,,11.397007499996109,14.909245599992571,True,5.0,['r'],True,0.5,0.5,0.0,0.0,2.0,0.6309297535714574,0.1222993827160493,unsucc_cost,0.0,3.0,26.53177859999414,,rn14,2,2023-03-30_11h34.20.266,threat_forest,2021.2.3,60.107315601480906,True,49.0,0.5833333333333333,0.5595238095238095,-0.888888888888889,-0.8347505668934241,1,0,1.0,0.28110826223068197,0.1222993827160493,0.5,0.5,0.5,0.0,1.0,1.0,6.0,6.0,1.0,2.0,1.0,5.0,0,1,0,1,0.1222993827160493
0.0,0.0,0.0,0.0,3.0,0.0,3.0,0.0,,,,left,1.9449320999992776,35.14063019999594,rn14,30.3615984999924,32.37627779999457,35.14063019999594,,False,3.0,['r'],False,0.2222222222222222,0.6666666666666666,0.6666666666666666,2.0,2.0,0.77250688571426,-0.186042524005487,wait_cost,1.0,2.0,32.37627779999457,,rn14,2,2023-03-30_11h34.20.266,threat_forest,2021.2.3,60.107315601480906,False,49.0,0.5833333333333333,0.5595238095238095,-0.888888888888889,-0.8347505668934241,0,0,0.0,0.6652270664349621,-0.186042524005487,0.2222222222222222,0.2222222222222222,0.6666666666666666,0.6666666666666666,-0.3333333333333335,-0.7777777777777779,2.2222222222222223,2.2222222222222223,0.0,2.0,-1.0,3.0,0,1,0,0,-0.186042524005487
0.0,0.0,0.0,0.0,4.0,0.0,4.0,0.0,,,,left,0.7873627000080887,41.91791229999217,rn14,41.91791229999217,,37.105410699994536,39.1199806999939,True,2.0,['r'],True,0.5,0.5,0.0,0.0,2.0,0.6309297535714574,0.1388888888888888,succ_gain,0.0,4.0,39.1199806999939,,rn14,2,2023-03-30_11h34.20.266,threat_forest,2021.2.3,60.107315601480906,True,49.0,0.5833333333333333,0.5595238095238095,-0.888888888888889,-0.8347505668934241,1,0,1.0,-0.23906627267901465,0.1388888888888888,0.5,0.5,0.5,0.0,1.0,1.0,3.0,3.0,1.0,2.0,-1.0,2.0,0,1,0,1,0.1388888888888888
0.0,0.0,0.0,0.0,5.0,0.0,5.0,0.0,,,,left,0.6114815000037197,45.71432309999364,rn14,42.73361070000101,44.74809649999952,45.71432309999364,,False,4.0,['r'],False,0.2222222222222222,0.6666666666666666,0.6666666666666666,2.0,2.0,0.77250688571426,-0.4891975308641975,wait_cost,1.0,3.0,44.74809649999952,,rn14,2,2023-03-30_11h34.20.266,threat_forest,2021.2.3,60.107315601480906,False,49.0,0.5833333333333333,0.5595238095238095,-0.888888888888889,-0.8347505668934241,0,0,0.0,-0.4918705777815338,-0.4891975308641975,0.0,0.2222222222222222,0.6666666666666666,0.6666666666666666,-0.3333333333333335,-0.7777777777777779,3.2222222222222223,3.2222222222222223,0.0,2.0,1.0,4.0,0,0,0,0,-0.84
0.0,0.0,0.0,0.0,6.0,0.0,6.0,0.0,,,,left,0.8267443999939132,52.04190129999188,rn14,42.73361070000101,44.74809649999952,52.04190129999188,,False,3.0,['r'],False,0.2222222222222222,0.6666666666666666,0.6666666666666666,2.0,2.0,0.77250688571426,-0.7376543209876543,wait_cost,1.0,2.0,48.36137189999863,,rn14,2,2023-03-30_11h34.20.266,threat_forest,2021.2.3,60.107315601480906,False,49.0,0.5833333333333333,0.5595238095238095,-0.888888888888889,-0.8347505668934241,0,0,0.0,-0.19025970066127235,-0.7376543209876543,0.0,0.2222222222222222,0.6666666666666666,0.6666666666666666,-0.3333333333333335,-0.7777777777777779,2.2222222222222223,2.2222222222222223,0.0,2.0,-1.0,3.0,0,0,0,0,-0.84
0.0,0.0,0.0,0.0,7.0,0.0,7.0,0.0,,,,right,1.0158417000056943,56.32114569999976,rn14,56.32114569999976,,52.89076799999748,54.90522649999184,False,2.0,['r'],True,0.5,0.5,0.0,0.0,2.0,0.6309297535714574,-0.5,wait_cost,0.0,1.0,54.90522649999184,,rn14,2,2023-03-30_11h34.20.266,threat_forest,2021.2.3,60.107315601480906,False,49.0,0.5833333333333333,0.5595238095238095,-0.888888888888889,-0.8347505668934241,1,0,0.0,0.015717529936096417,-0.5,0.0,0.5,0.5,0.0,1.0,1.0,3.0,3.0,1.0,2.0,-1.0,2.0,0,0,0,1,-0.84
1.0,0.0,1.0,0.0,0.0,0.0,0.0,0.0,62.086751700000605,65.58546030000434,,right,0.9400367000052938,68.54512799999793,rn14,62.086751700000605,65.58546030000434,68.54512799999793,,True,4.0,['p'],False,0.27,0.3,0.1,1.0,1.0,0.7963326591781347,0.0055810462338896,unsucc_cost,1.0,2.0,,,rn14,2,2023-03-30_11h34.20.266,threat_forest,2021.2.3,60.107315601480906,True,16.0,0.4,0.49166666666666664,-1.1033333333333333,-0.9961111111111112,0,0,1.0,-0.06183636192140512,0.0055810462338896,0.27,0.27,0.3,0.1,-0.3999999999999999,-0.29000000000000004,3.71,3.71,0.0,1.0,-1.0,4.0,0,1,0,0,0.0055810462338896
1.0,0.0,1.0,0.0,1.0,0.0,1.0,0.0,,,,left,1.0438378999970157,72.65620840000338,rn14,62.086751700000605,65.58546030000434,72.65620840000338,,False,2.0,['p'],False,0.27,0.3,0.1,1.0,1.0,0.7963326591781347,-0.000610685306858,wait_cost,1.0,1.0,71.523016799998,,rn14,2,2023-03-30_11h34.20.266,threat_forest,2021.2.3,60.107315601480906,False,16.0,0.4,0.49166666666666664,-1.1033333333333333,-0.9961111111111112,0,0,0.0,0.04290420920299956,-0.000610685306858,0.27,0.27,0.3,0.1,-0.3999999999999999,-0.29000000000000004,1.71,1.71,0.0,1.0,-1.0,2.0,0,1,0,0,-0.000610685306858
1.0,0.0,1.0,0.0,2.0,0.0,2.0,0.0,,,,right,0.930502200004412,78.33410369999183,rn14,62.086751700000605,65.58546030000434,78.33410369999183,,True,1.0,['p'],False,0.27,0.3,0.1,1.0,1.0,0.7963326591781347,0.0415481562499999,fight_cost,1.0,0.0,75.73577489999298,,rn14,2,2023-03-30_11h34.20.266,threat_forest,2021.2.3,60.107315601480906,True,16.0,0.4,0.49166666666666664,-1.1033333333333333,-0.9961111111111112,0,0,1.0,-0.07203083857762718,0.0415481562499999,1.0,0.27,0.3,0.1,-0.3999999999999999,-0.29000000000000004,0.71,1.0,0.0,1.0,-1.0,1.0,1,1,0,0,0.625
2.0,0.0,2.0,0.0,0.0,0.0,0.0,0.0,83.36720589999459,86.87529310000536,,right,1.4787935000058496,90.22405560000334,rn14,83.36720589999459,86.87529310000536,90.22405560000334,,True,4.0,['r'],False,0.4081632653061224,0.5714285714285714,0.2857142857142857,2.0,1.0,0.9885754083994552,0.0257810571799274,fight_cost,1.0,1.0,,,rn14,2,2023-03-30_11h34.20.266,threat_forest,2021.2.3,60.107315601480906,True,27.0,0.5357142857142857,0.46785714285714286,-0.7806122448979592,-0.9419727891156462,0,0,1.0,0.39122655261886047,0.0257810571799274,0.4081632653061224,0.4081632653061224,0.5714285714285714,0.2857142857142857,-0.1428571428571428,-0.061224489795918435,3.9387755102040813,3.9387755102040813,0.0,1.0,-1.0,4.0,0,1,0,0,0.0257810571799274
2.0,0.0,2.0,0.0,1.0,0.0,1.0,0.0,,,,right,1.491672899996047,95.35154079999484,rn14,83.36720589999459,86.87529310000536,95.35154079999484,,True,1.0,['r'],False,0.4081632653061224,0.5714285714285714,0.2857142857142857,2.0,1.0,0.9885754083994552,0.0740676203180814,unsucc_cost,1.0,0.0,93.73551929999668,,rn14,2,2023-03-30_11h34.20.266,threat_forest,2021.2.3,60.107315601480906,True,27.0,0.5357142857142857,0.46785714285714286,-0.7806122448979592,-0.9419727891156462,0,0,1.0,0.3998982418182776,0.0740676203180814,1.0,0.4081632653061224,0.5714285714285714,0.2857142857142857,-0.1428571428571428,-0.061224489795918435,0.9387755102040816,1.0,0.0,1.0,-1.0,1.0,1,1,0,0,0.625
3.0,0.0,3.0,0.0,0.0,0.0,0.0,0.0,99.49189089999707,102.98815609999292,,left,1.2949425999977393,106.57429150000098,rn14,106.57429150000098,,99.49189089999707,102.98815609999292,True,5.0,['p'],True,0.2777777777777778,0.3333333333333333,0.1666666666666666,1.0,2.0,0.8929352898779304,0.0176126680216173,unsucc_cost,0.0,3.0,,,rn14,2,2023-03-30_11h34.20.266,threat_forest,2021.2.3,60.107315601480906,True,37.0,0.26666666666666666,0.4011904761904762,-1.1277777777777778,-0.9541950113378685,0,0,1.0,0.2584663698430791,0.0176126680216173,0.2777777777777778,0.2777777777777778,0.3333333333333333,0.1666666666666666,-0.16666666666666652,-0.05555555555555558,4.944444444444445,4.944444444444445,1.0,2.0,-1.0,5.0,0,1,0,0,0.0176126680216173
3.0,0.0,3.0,0.0,1.0,0.0,1.0,0.0,,,,right,1.411041600003955,111.75437850000162,rn14,107.8894297999941,109.90383880000444,111.75437850000162,,True,3.0,['p'],False,0.2,0.2,0.0,0.0,2.0,0.4554859150035951,0.0423369907978965,unsucc_cost,1.0,1.0,109.90383880000444,,rn14,2,2023-03-30_11h34.20.266,threat_forest,2021.2.3,60.107315601480906,True,37.0,0.26666666666666666,0.4011904761904762,-1.1277777777777778,-0.9541950113378685,0,0,1.0,0.3443281550753035,0.0423369907978965,0.2,0.2,0.2,0.0,-0.20000000000000018,-0.20000000000000018,2.8,2.8,0.0,2.0,-1.0,3.0,0,1,0,0,0.0423369907978965
3.0,0.0,3.0,0.0,2.0,0.0,2.0,0.0,,,,left,1.6207033000100637,118.34666769999605,rn14,118.34666769999605,,113.18441630000598,115.19887120000205,True,1.0,['p'],True,0.2777777777777778,0.3333333333333333,0.1666666666666666,1.0,2.0,0.8929352898779304,0.0843845143440192,fight_cost,0.0,0.0,115.19887120000205,,rn14,2,2023-03-30_11h34.20.266,threat_forest,2021.2.3,60.107315601480906,True,37.0,0.26666666666666666,0.4011904761904762,-1.1277777777777778,-0.9541950113378685,0,0,1.0,0.48286019084328935,0.0843845143440192,1.0,0.2777777777777778,0.3333333333333333,0.1666666666666666,-0.16666666666666652,-0.05555555555555558,0.9444444444444444,1.0,1.0,2.0,-1.0,1.0,1,1,0,0,0.625
4.0,0.0,4.0,0.0,0.0,0.0,0.0,0.0,124.90237749999504,128.39843370000017,,right,1.485841599991545,131.0038654999953,rn14,131.0038654999953,,124.90237749999504,128.39843370000017,False,4.0,['p'],True,0.5185185185185185,0.6666666666666666,0.2222222222222222,2.0,2.0,0.9327883776363328,0.0236802094142134,wait_cost,0.0,3.0,,,rn14,2,2023-03-30_11h34.20.266,threat_forest,2021.2.3,60.107315601480906,False,60.0,0.6458333333333333,0.45624999999999993,0.17592592592592587,-0.475925925925926,1,1,0.0,0.3959813457226396,0.0236802094142134,0.5185185185185185,0.5185185185185185,0.6666666666666666,0.2222222222222222,0.9999999999999999,0.8518518518518517,4.851851851851852,4.851851851851852,1.0,2.0,-1.0,4.0,0,1,1,1,0.0236802094142134
4.0,0.0,4.0,0.0,1.0,0.0,1.0,0.0,,,,left,1.2876429000025382,136.862389300004,rn14,136.862389300004,,124.90237749999504,128.39843370000017,True,3.0,['p'],True,0.5185185185185185,0.6666666666666666,0.2222222222222222,2.0,2.0,0.9327883776363328,0.0775141179228561,succ_gain,0.0,5.0,134.5306425000017,,rn14,2,2023-03-30_11h34.20.266,threat_forest,2021.2.3,60.107315601480906,True,60.0,0.6458333333333333,0.45624999999999993,0.17592592592592587,-0.475925925925926,1,1,1.0,0.25281333769002085,0.0775141179228561,0.5185185185185185,0.5185185185185185,0.6666666666666666,0.2222222222222222,0.9999999999999999,0.8518518518518517,3.8518518518518516,3.8518518518518516,1.0,2.0,-1.0,3.0,0,1,1,1,0.0775141179228561
4.0,0.0,4.0,0.0,2.0,0.0,2.0,0.0,,,,left,1.3927844999998342,143.20653139999197,rn14,143.20653139999197,,124.90237749999504,128.39843370000017,True,5.0,['p'],True,0.5185185185185185,0.6666666666666666,0.2222222222222222,2.0,2.0,0.9327883776363328,-0.0020736371183338,fight_cost,0.0,2.0,140.19216350000352,,rn14,2,2023-03-30_11h34.20.266,threat_forest,2021.2.3,60.107315601480906,True,60.0,0.6458333333333333,0.45624999999999993,0.17592592592592587,-0.475925925925926,1,1,1.0,0.3313049807481105,-0.0020736371183338,0.5185185185185185,0.5185185185185185,0.6666666666666666,0.2222222222222222,0.9999999999999999,0.8518518518518517,5.851851851851852,5.851851851851852,1.0,2.0,1.0,5.0,0,1,1,1,-0.0020736371183338
4.0,0.0,4.0,0.0,3.0,0.0,3.0,0.0,,,,right,0.5722440999961691,147.95190759999969,rn14,144.62170249999326,146.6360377999954,147.95190759999969,,True,2.0,['p'],False,0.625,0.625,0.0,0.0,2.0,0.6021808102656677,0.0850764152838109,succ_gain,1.0,4.0,146.6360377999954,,rn14,2,2023-03-30_11h34.20.266,threat_forest,2021.2.3,60.107315601480906,True,60.0,0.6458333333333333,0.45624999999999993,0.17592592592592587,-0.475925925925926,1,1,1.0,-0.5581896303884233,0.0850764152838109,0.625,0.625,0.625,0.0,1.5,1.5,3.5,3.5,0.0,2.0,-1.0,2.0,0,1,1,1,0.0850764152838109
4.0,0.0,4.0,0.0,4.0,0.0,4.0,0.0,,,,right,0.6213409999909345,152.9497235000017,rn14,152.9497235000017,,148.55135809999774,150.56573740000022,False,4.0,['p'],True,0.5185185185185185,0.6666666666666666,0.2222222222222222,2.0,2.0,0.9327883776363328,0.0476305298353909,wait_cost,0.0,3.0,150.56573740000022,,rn14,2,2023-03-30_11h34.20.266,threat_forest,2021.2.3,60.107315601480906,False,60.0,0.6458333333333333,0.45624999999999993,0.17592592592592587,-0.475925925925926,1,1,0.0,-0.475875233439632,0.0476305298353909,0.5185185185185185,0.5185185185185185,0.6666666666666666,0.2222222222222222,0.9999999999999999,0.8518518518518517,4.851851851851852,4.851851851851852,1.0,2.0,1.0,4.0,0,1,1,1,0.0476305298353909
4.0,0.0,4.0,0.0,5.0,0.0,5.0,0.0,,,,left,1.394654100004118,157.77599320000445,rn14,153.59671709999384,155.6110787999933,157.77599320000445,,False,3.0,['p'],False,0.625,0.625,0.0,0.0,2.0,0.6021808102656677,0.2410300925925925,wait_cost,1.0,2.0,155.6110787999933,,rn14,2,2023-03-30_11h34.20.266,threat_forest,2021.2.3,60.107315601480906,False,60.0,0.6458333333333333,0.45624999999999993,0.17592592592592587,-0.475925925925926,1,1,0.0,0.3326464275406174,0.2410300925925925,0.625,0.625,0.625,0.0,1.5,1.5,4.5,4.5,0.0,2.0,-1.0,3.0,0,1,1,1,0.2410300925925925
4.0,0.0,4.0,0.0,6.0,0.0,6.0,0.0,,,,right,0.6439413000043714,161.838917999994,rn14,153.59671709999384,155.6110787999933,161.838917999994,,True,2.0,['p'],False,0.625,0.625,0.0,0.0,2.0,0.6021808102656677,0.0532407407407407,succ_gain,1.0,4.0,161.20576909999363,,rn14,2,2023-03-30_11h34.20.266,threat_forest,2021.2.3,60.107315601480906,True,60.0,0.6458333333333333,0.45624999999999993,0.17592592592592587,-0.475925925925926,1,1,1.0,-0.4401477060936466,0.0532407407407407,0.625,0.625,0.625,0.0,1.5,1.5,3.5,3.5,0.0,2.0,-1.0,2.0,0,1,1,1,0.0532407407407407
4.0,0.0,4.0,0.0,7.0,0.0,7.0,0.0,,,,right,0.6514675000071293,168.31834179999714,rn14,168.31834179999714,,162.50511519999418,164.51944200000435,False,4.0,['p'],True,0.5185185185185185,0.6666666666666666,0.2222222222222222,2.0,2.0,0.9327883776363328,0.0,wait_cost,0.0,3.0,164.51944200000435,,rn14,2,2023-03-30_11h34.20.266,threat_forest,2021.2.3,60.107315601480906,False,60.0,0.6458333333333333,0.45624999999999993,0.17592592592592587,-0.475925925925926,1,1,0.0,-0.42852776853162966,0.0,0.0,0.5185185185185185,0.6666666666666666,0.2222222222222222,0.9999999999999999,0.8518518518518517,4.851851851851852,4.851851851851852,1.0,2.0,1.0,4.0,0,0,1,1,-0.84
5.0,0.0,5.0,0.0,0.0,0.0,0.0,0.0,173.50418360000185,177.0077006999927,,left,0.7578932000033092,178.69027839999762,rn14,178.69027839999762,,173.50418360000185,177.0077006999927,True,5.0,['p'],True,0.4444444444444445,0.6666666666666666,0.3333333333333333,1.0,2.0,0.9656336071428248,0.0253949986159629,fight_cost,0.0,2.0,,,rn14,2,2023-03-30_11h34.20.266,threat_forest,2021.2.3,60.107315601480906,True,15.0,0.4833333333333333,0.5645833333333332,-0.8977777777777778,-0.360925925925926,0,0,1.0,-0.27721280035995294,0.0253949986159629,0.4444444444444445,0.4444444444444445,0.6666666666666666,0.3333333333333333,0.6666666666666665,0.4444444444444444,5.444444444444445,5.444444444444445,1.0,2.0,-1.0,5.0,0,1,0,0,0.0253949986159629
5.0,0.0,5.0,0.0,1.0,0.0,1.0,0.0,,,,left,0.9356838000094284,185.23363220000465,rn14,185.23363220000465,,173.50418360000185,177.0077006999927,True,2.0,['p'],True,0.4444444444444445,0.6666666666666666,0.3333333333333333,1.0,2.0,0.9656336071428248,0.0688626821412724,succ_gain,0.0,4.0,181.4868878999987,,rn14,2,2023-03-30_11h34.20.266,threat_forest,2021.2.3,60.107315601480906,True,15.0,0.4833333333333333,0.5645833333333332,-0.8977777777777778,-0.360925925925926,0,0,1.0,-0.06647768008149271,0.0688626821412724,0.4444444444444445,0.4444444444444445,0.6666666666666666,0.3333333333333333,0.6666666666666665,0.4444444444444444,2.4444444444444446,2.4444444444444446,1.0,2.0,-1.0,2.0,0,1,0,0,0.0688626821412724
5.0,0.0,5.0,0.0,2.0,0.0,2.0,0.0,,,,left,1.588786100008292,189.1685373999935,rn14,186.1994834999932,188.2139399000007,189.1685373999935,,False,4.0,['p'],False,0.24,0.3,0.2,2.0,2.0,0.9003120349047065,-0.0457004540527358,wait_cost,1.0,3.0,188.2139399000007,,rn14,2,2023-03-30_11h34.20.266,threat_forest,2021.2.3,60.107315601480906,False,15.0,0.4833333333333333,0.5645833333333332,-0.8977777777777778,-0.360925925925926,0,0,0.0,0.46297026553453136,-0.0457004540527358,0.24,0.24,0.3,0.2,-0.3999999999999999,-0.24,3.76,3.76,0.0,2.0,1.0,4.0,0,1,0,0,-0.0457004540527358
5.0,0.0,5.0,0.0,3.0,0.0,3.0,0.0,,,,left,0.7006984999898123,193.74283119999745,rn14,193.74283119999745,,190.77861989999656,192.79291750000263,True,3.0,['p'],True,0.4444444444444445,0.6666666666666666,0.3333333333333333,1.0,2.0,0.9656336071428248,0.0873158750190519,succ_gain,0.0,5.0,192.79291750000263,,rn14,2,2023-03-30_11h34.20.266,threat_forest,2021.2.3,60.107315601480906,True,15.0,0.4833333333333333,0.5645833333333332,-0.8977777777777778,-0.360925925925926,0,0,1.0,-0.355677584338906,0.0873158750190519,0.4444444444444445,0.4444444444444445,0.6666666666666666,0.3333333333333333,0.6666666666666665,0.4444444444444444,3.4444444444444446,3.4444444444444446,1.0,2.0,-1.0,3.0,0,1,0,0,0.0873158750190519
5.0,0.0,5.0,0.0,4.0,0.0,4.0,0.0,,,,left,0.4787332999985665,199.32488990000277,rn14,194.47507020000197,196.48948329999985,199.32488990000277,,False,5.0,['p'],False,0.24,0.3,0.2,2.0,2.0,0.9003120349047065,-0.4147346172839505,wait_cost,1.0,4.0,196.48948329999985,,rn14,2,2023-03-30_11h34.20.266,threat_forest,2021.2.3,60.107315601480906,False,15.0,0.4833333333333333,0.5645833333333332,-0.8977777777777778,-0.360925925925926,0,0,0.0,-0.7366116216052119,-0.4147346172839505,0.0,0.24,0.3,0.2,-0.3999999999999999,-0.24,4.76,4.76,0.0,2.0,1.0,5.0,0,0,0,0,-0.84
5.0,0.0,5.0,0.0,5.0,0.0,5.0,0.0,,,,right,0.5859126000141259,204.1993397000042,rn14,204.1993397000042,,199.8202171000012,201.8344107000012,False,4.0,['p'],True,0.4444444444444445,0.6666666666666666,0.3333333333333333,1.0,2.0,0.9656336071428248,-0.354074074074074,wait_cost,0.0,3.0,201.8344107000012,,rn14,2,2023-03-30_11h34.20.266,threat_forest,2021.2.3,60.107315601480906,False,15.0,0.4833333333333333,0.5645833333333332,-0.8977777777777778,-0.360925925925926,0,0,0.0,-0.534584647262178,-0.354074074074074,0.0,0.4444444444444445,0.6666666666666666,0.3333333333333333,0.6666666666666665,0.4444444444444444,4.444444444444445,4.444444444444445,1.0,2.0,-1.0,4.0,0,0,0,0,-0.84
5.0,0.0,5.0,0.0,6.0,0.0,6.0,0.0,,,,left,0.4931620999996084,209.91320759999508,rn14,204.81547899999717,206.82980099999983,209.91320759999508,,False,3.0,['p'],False,0.24,0.3,0.2,2.0,2.0,0.9003120349047065,-0.5683555555555555,wait_cost,1.0,2.0,206.82980099999983,,rn14,2,2023-03-30_11h34.20.266,threat_forest,2021.2.3,60.107315601480906,False,15.0,0.4833333333333333,0.5645833333333332,-0.8977777777777778,-0.360925925925926,0,0,0.0,-0.7069173557387457,-0.5683555555555555,0.0,0.24,0.3,0.2,-0.3999999999999999,-0.24,2.76,2.76,0.0,2.0,-1.0,3.0,0,0,0,0,-0.84
5.0,0.0,5.0,0.0,7.0,0.0,7.0,0.0,,,,left,0.8180502000031993,213.60781139999744,rn14,204.81547899999717,206.82980099999983,213.60781139999744,,False,2.0,['p'],False,0.24,0.3,0.2,2.0,2.0,0.9003120349047065,-0.76,wait_cost,1.0,1.0,212.4412202999956,,rn14,2,2023-03-30_11h34.20.266,threat_forest,2021.2.3,60.107315601480906,False,15.0,0.4833333333333333,0.5645833333333332,-0.8977777777777778,-0.360925925925926,0,0,0.0,-0.200831575065337,-0.76,0.0,0.24,0.3,0.2,-0.3999999999999999,-0.24,1.76,1.76,0.0,2.0,-1.0,2.0,0,0,0,0,-0.84
6.0,0.0,6.0,0.0,0.0,0.0,0.0,0.0,217.36386579999817,220.86712749999424,,left,1.0202009000058752,222.93450999999183,rn14,222.93450999999183,,217.36386579999817,220.86712749999424,True,5.0,['p'],True,0.1975308641975308,0.2222222222222222,0.1111111111111111,1.0,1.0,0.7461067557824965,-0.0426399353164329,unsucc_cost,0.0,3.0,,,rn14,2,2023-03-30_11h34.20.266,threat_forest,2021.2.3,60.107315601480906,True,5.0,0.4444444444444444,0.46388888888888885,-1.259259259259259,-1.0785185185185184,0,0,1.0,0.01999956869202354,-0.0426399353164329,0.1975308641975308,0.1975308641975308,0.2222222222222222,0.1111111111111111,-0.6666666666666667,-0.5185185185185184,4.481481481481482,4.481481481481482,1.0,1.0,-1.0,5.0,0,1,0,0,-0.0426399353164329
6.0,0.0,6.0,0.0,1.0,0.0,1.0,0.0,,,,right,0.8672823000088101,226.62821789999725,rn14,223.9808462999936,225.99521839999943,226.62821789999725,,True,3.0,['p'],False,0.4444444444444445,0.6666666666666666,0.3333333333333333,1.0,1.0,0.9656336071428248,0.0515398167286913,fight_cost,1.0,0.0,225.99521839999943,,rn14,2,2023-03-30_11h34.20.266,threat_forest,2021.2.3,60.107315601480906,True,5.0,0.4444444444444444,0.46388888888888885,-1.259259259259259,-1.0785185185185184,1,0,1.0,-0.14239074965308338,0.0515398167286913,0.4444444444444445,0.4444444444444445,0.6666666666666666,0.3333333333333333,0.0,0.0,3.0,3.0,0.0,1.0,-1.0,3.0,0,1,0,1,0.0515398167286913
7.0,0.0,7.0,0.0,0.0,0.0,0.0,0.0,231.5642031000025,235.07007729999896,,right,0.6646139000076801,237.58766999999352,rn14,231.5642031000025,235.07007729999896,237.58766999999352,,True,4.0,['p'],False,0.4444444444444445,0.6666666666666666,0.3333333333333333,2.0,2.0,0.9656336071428248,0.0111006869633694,succ_gain,1.0,6.0,,,rn14,2,2023-03-30_11h34.20.266,threat_forest,2021.2.3,60.107315601480906,True,47.0,0.6333333333333333,0.5388888888888889,-0.07777777777777783,-0.6685185185185185,1,0,1.0,-0.40854900843280806,0.0111006869633694,0.4444444444444445,0.4444444444444445,0.6666666666666666,0.3333333333333333,0.6666666666666665,0.4444444444444444,4.444444444444445,4.444444444444445,0.0,2.0,-1.0,4.0,0,1,0,1,0.0111006869633694
7.0,0.0,7.0,0.0,1.0,0.0,1.0,0.0,,,,left,0.9093222000083188,244.0454344000027,rn14,244.0454344000027,,238.28604449999693,240.29866079999192,True,6.0,['p'],True,0.6,0.6,0.0,0.0,2.0,0.6126016192893442,-0.0046270987654321,succ_gain,0.0,6.0,240.29866079999192,,rn14,2,2023-03-30_11h34.20.266,threat_forest,2021.2.3,60.107315601480906,True,47.0,0.6333333333333333,0.5388888888888889,-0.07777777777777783,-0.6685185185185185,1,1,1.0,-0.09505579215445631,-0.0046270987654321,0.6,0.6,0.6,0.0,1.4,1.4,7.4,7.0,1.0,2.0,1.0,6.0,0,1,1,1,-0.0046270987654321
7.0,0.0,7.0,0.0,2.0,0.0,2.0,0.0,,,,left,1.180714300004183,247.80851649999383,rn14,247.80851649999383,,238.28604449999693,240.29866079999192,True,6.0,['p'],True,0.6,0.6,0.0,0.0,2.0,0.6126016192893442,0.0736506172839506,unsucc_cost,0.0,4.0,246.99228750000475,,rn14,2,2023-03-30_11h34.20.266,threat_forest,2021.2.3,60.107315601480906,True,47.0,0.6333333333333333,0.5388888888888889,-0.07777777777777783,-0.6685185185185185,1,1,1.0,0.16611959432043052,0.0736506172839506,0.6,0.6,0.6,0.0,1.4,1.4,7.4,7.0,1.0,2.0,-1.0,6.0,0,1,1,1,0.0736506172839506
7.0,0.0,7.0,0.0,3.0,0.0,3.0,0.0,,,,right,0.7398645000066608,252.33862640000007,rn14,249.0074046999944,251.0218307000032,252.33862640000007,,True,4.0,['p'],False,0.4444444444444445,0.6666666666666666,0.3333333333333333,2.0,2.0,0.9656336071428248,0.0033765432098765,unsucc_cost,1.0,2.0,251.0218307000032,,rn14,2,2023-03-30_11h34.20.266,threat_forest,2021.2.3,60.107315601480906,True,47.0,0.6333333333333333,0.5388888888888889,-0.07777777777777783,-0.6685185185185185,1,0,1.0,-0.3012882176493633,0.0033765432098765,0.4444444444444445,0.4444444444444445,0.6666666666666666,0.3333333333333333,0.6666666666666665,0.4444444444444444,4.444444444444445,4.444444444444445,0.0,2.0,-1.0,4.0,0,1,0,1,0.0033765432098765
7.0,0.0,7.0,0.0,4.0,0.0,4.0,0.0,,,,left,0.6271185000077821,257.483210099992,rn14,257.483210099992,,253.10357999999545,255.11808539999765,True,2.0,['p'],True,0.6,0.6,0.0,0.0,2.0,0.6126016192893442,0.0777777777777777,succ_gain,0.0,4.0,255.11808539999765,,rn14,2,2023-03-30_11h34.20.266,threat_forest,2021.2.3,60.107315601480906,True,47.0,0.6333333333333333,0.5388888888888889,-0.07777777777777783,-0.6685185185185185,1,1,1.0,-0.4666197609788418,0.0777777777777777,0.6,0.6,0.6,0.0,1.4,1.4,3.4,3.4,1.0,2.0,-1.0,2.0,0,1,1,1,0.0777777777777777
7.0,0.0,7.0,0.0,5.0,0.0,5.0,0.0,,,,right,0.951733299996704,260.7464039000042,rn14,260.7464039000042,,253.10357999999545,255.11808539999765,False,4.0,['p'],True,0.6,0.6,0.0,0.0,2.0,0.6126016192893442,-0.1755555555555555,wait_cost,0.0,3.0,260.1466361999919,,rn14,2,2023-03-30_11h34.20.266,threat_forest,2021.2.3,60.107315601480906,False,47.0,0.6333333333333333,0.5388888888888889,-0.07777777777777783,-0.6685185185185185,1,1,0.0,-0.049470430501576144,-0.1755555555555555,0.0,0.6,0.6,0.0,1.4,1.4,5.4,5.4,1.0,2.0,1.0,4.0,0,0,1,1,-0.84
7.0,0.0,7.0,0.0,6.0,0.0,6.0,0.0,,,,right,0.576932099997066,266.2751331000036,rn14,266.2751331000036,,253.10357999999545,255.11808539999765,False,3.0,['p'],True,0.6,0.6,0.0,0.0,2.0,0.6126016192893442,-0.1911111111111111,wait_cost,0.0,2.0,263.72669130000577,,rn14,2,2023-03-30_11h34.20.266,threat_forest,2021.2.3,60.107315601480906,False,47.0,0.6333333333333333,0.5388888888888889,-0.07777777777777783,-0.6685185185185185,1,1,0.0,-0.5500306970466611,-0.1911111111111111,0.0,0.6,0.6,0.0,1.4,1.4,4.4,4.4,1.0,2.0,-1.0,3.0,0,0,1,1,-0.84
7.0,0.0,7.0,0.0,7.0,0.0,7.0,0.0,,,,right,1.3883720000012545,272.3355398999993,rn14,272.3355398999993,,253.10357999999545,255.11808539999765,False,2.0,['p'],True,0.6,0.6,0.0,0.0,2.0,0.6126016192893442,-0.4,wait_cost,0.0,1.0,268.88844450000033,,rn14,2,2023-03-30_11h34.20.266,threat_forest,2021.2.3,60.107315601480906,False,47.0,0.6333333333333333,0.5388888888888889,-0.07777777777777783,-0.6685185185185185,1,1,0.0,0.3281318377042203,-0.4,0.0,0.6,0.6,0.0,1.4,1.4,3.4,3.4,1.0,2.0,-1.0,2.0,0,0,1,1,-0.84
8.0,0.0,8.0,0.0,0.0,0.0,0.0,0.0,277.9902704999986,281.4933658999944,,left,1.560422099995776,284.8104330999922,rn14,277.9902704999986,281.4933658999944,284.8104330999922,,False,4.0,['p'],False,0.16,0.2,0.2,2.0,1.0,0.8198746470064713,0.0014137909252576,wait_cost,1.0,3.0,,,rn14,2,2023-03-30_11h34.20.266,threat_forest,2021.2.3,60.107315601480906,False,71.0,0.35,0.49166666666666664,-1.7350000000000003,-0.9063888888888891,0,0,0.0,0.44495636158248186,0.0014137909252576,0.16,0.16,0.2,0.2,-1.0,-0.7200000000000004,3.2799999999999994,3.2799999999999994,0.0,1.0,-1.0,4.0,0,1,0,0,0.0014137909252576
8.0,0.0,8.0,0.0,1.0,0.0,1.0,0.0,,,,left,0.70027490000939,291.0015752000036,rn14,291.0015752000036,,286.3892814999999,288.4036355999997,True,3.0,['p'],True,0.25,0.5,0.5,1.0,1.0,0.9463946303571862,0.0092099508066405,fight_cost,0.0,0.0,288.4036355999997,,rn14,2,2023-03-30_11h34.20.266,threat_forest,2021.2.3,60.107315601480906,True,71.0,0.35,0.49166666666666664,-1.7350000000000003,-0.9063888888888891,0,0,1.0,-0.35628230673168143,0.0092099508066405,0.25,0.25,0.5,0.5,-1.0,-0.75,2.25,2.25,1.0,1.0,-1.0,3.0,0,1,0,0,0.0092099508066405
9.0,0.0,9.0,0.0,0.0,0.0,0.0,0.0,296.18758840000373,299.69306530000176,,left,1.776346200000262,303.39150070000323,rn14,296.18758840000373,299.69306530000176,303.39150070000323,,False,5.0,['r'],False,0.3333333333333333,0.5,0.3333333333333333,2.0,2.0,1.0,-0.0164991778692271,wait_cost,1.0,4.0,,,rn14,2,2023-03-30_11h34.20.266,threat_forest,2021.2.3,60.107315601480906,False,2.0,0.45,0.4,-0.7,-1.2175000000000002,1,0,0.0,0.5745585580057004,-0.0164991778692271,0.3333333333333333,0.3333333333333333,0.5,0.3333333333333333,0.0,0.0,5.0,5.0,0.0,2.0,-1.0,5.0,0,1,0,1,-0.0164991778692271
9.0,0.0,9.0,0.0,1.0,0.0,1.0,0.0,,,,left,0.5637281999952393,309.4009503999987,rn14,309.4009503999987,,305.18819649999205,307.2026530000003,True,4.0,['r'],True,0.4,0.4,0.0,0.0,2.0,0.6126016192893442,0.0736827160493828,succ_gain,0.0,6.0,307.2026530000003,,rn14,2,2023-03-30_11h34.20.266,threat_forest,2021.2.3,60.107315601480906,True,2.0,0.45,0.4,-0.7,-1.2175000000000002,1,0,1.0,-0.5731830585444431,0.0736827160493828,0.4,0.4,0.4,0.0,0.6000000000000001,0.6000000000000001,4.6,4.6,1.0,2.0,-1.0,4.0,0,1,0,1,0.0736827160493828
9.0,0.0,9.0,0.0,2.0,0.0,2.0,0.0,,,,left,0.6079603000107454,314.29891519999364,rn14,309.98370490000525,311.99815549999767,314.29891519999364,,False,6.0,['r'],False,0.3333333333333333,0.5,0.3333333333333333,2.0,2.0,1.0,-0.0006600823045267,wait_cost,1.0,5.0,311.99815549999767,,rn14,2,2023-03-30_11h34.20.266,threat_forest,2021.2.3,60.107315601480906,False,2.0,0.45,0.4,-0.7,-1.2175000000000002,1,0,0.0,-0.49764569518280716,-0.0006600823045267,0.3333333333333333,0.3333333333333333,0.5,0.3333333333333333,0.0,0.0,6.0,6.0,0.0,2.0,1.0,6.0,0,1,0,1,-0.0006600823045267
9.0,0.0,9.0,0.0,3.0,0.0,3.0,0.0,,,,left,0.5877525999967474,318.7426012999931,rn14,309.98370490000525,311.99815549999767,318.7426012999931,,False,5.0,['r'],False,0.3333333333333333,0.5,0.3333333333333333,2.0,2.0,1.0,0.0337037037037036,wait_cost,1.0,4.0,316.9436819999973,,rn14,2,2023-03-30_11h34.20.266,threat_forest,2021.2.3,60.107315601480906,False,2.0,0.45,0.4,-0.7,-1.2175000000000002,1,0,0.0,-0.5314491679277655,0.0337037037037036,0.3333333333333333,0.3333333333333333,0.5,0.3333333333333333,0.0,0.0,5.0,5.0,0.0,2.0,-1.0,5.0,0,1,0,1,0.0337037037037036
9.0,0.0,9.0,0.0,4.0,0.0,4.0,0.0,,,,left,0.584346599993296,322.60579689999577,rn14,322.60579689999577,,319.35828709999623,321.37267989999964,True,4.0,['r'],True,0.4,0.4,0.0,0.0,2.0,0.6126016192893442,0.0922222222222222,unsucc_cost,0.0,2.0,321.37267989999964,,rn14,2,2023-03-30_11h34.20.266,threat_forest,2021.2.3,60.107315601480906,True,2.0,0.45,0.4,-0.7,-1.2175000000000002,1,0,1.0,-0.5372609790621059,0.0922222222222222,0.4,0.4,0.4,0.0,0.6000000000000001,0.6000000000000001,4.6,4.6,1.0,2.0,-1.0,4.0,0,1,0,1,0.0922222222222222
9.0,0.0,9.0,0.0,5.0,0.0,5.0,0.0,,,,left,1.2420386999874609,327.23430609999923,rn14,323.221294899995,325.23579049999535,327.23430609999923,,False,2.0,['r'],False,0.3333333333333333,0.5,0.3333333333333333,2.0,2.0,1.0,-0.0333333333333334,wait_cost,1.0,1.0,325.23579049999535,,rn14,2,2023-03-30_11h34.20.266,threat_forest,2021.2.3,60.107315601480906,False,2.0,0.45,0.4,-0.7,-1.2175000000000002,1,0,0.0,0.2167541424360366,-0.0333333333333334,0.3333333333333333,0.3333333333333333,0.5,0.3333333333333333,0.0,0.0,2.0,2.0,0.0,2.0,-1.0,2.0,0,1,0,1,-0.0333333333333334
9.0,0.0,9.0,0.0,6.0,0.0,6.0,0.0,,,,right,1.330684000000474,332.54642250000325,rn14,323.221294899995,325.23579049999535,332.54642250000325,,True,1.0,['r'],False,0.3333333333333333,0.5,0.3333333333333333,2.0,2.0,1.0,0.3333333333333332,unsucc_cost,1.0,0.0,330.5141883000033,,rn14,2,2023-03-30_11h34.20.266,threat_forest,2021.2.3,60.107315601480906,True,2.0,0.45,0.4,-0.7,-1.2175000000000002,1,0,1.0,0.28569309574873003,0.3333333333333332,1.0,0.3333333333333333,0.5,0.3333333333333333,0.0,0.0,1.0,1.0,0.0,2.0,-1.0,1.0,1,1,0,1,0.625
10.0,0.0,10.0,0.0,0.0,0.0,0.0,0.0,338.94302019999304,342.45319929999823,,left,1.55079829999886,344.23510809999425,rn14,338.94302019999304,342.45319929999823,344.23510809999425,,False,5.0,['r'],False,0.2222222222222222,0.6666666666666666,0.6666666666666666,2.0,2.0,0.77250688571426,-0.0387270176745866,wait_cost,1.0,4.0,,,rn14,2,2023-03-30_11h34.20.266,threat_forest,2021.2.3,60.107315601480906,False,68.0,0.5,0.475,-1.2222222222222223,-0.9611111111111111,0,0,0.0,0.43876983060489255,-0.0387270176745866,0.2222222222222222,0.2222222222222222,0.6666666666666666,0.6666666666666666,-0.3333333333333335,-0.7777777777777779,4.222222222222222,4.222222222222222,0.0,2.0,-1.0,5.0,0,1,0,0,-0.0387270176745866
10.0,0.0,10.0,0.0,1.0,0.0,1.0,0.0,,,,left,0.7444290999992518,349.33023530000355,rn14,349.33023530000355,,345.81690560000425,347.83142200000293,True,4.0,['r'],True,0.3333333333333333,0.3333333333333333,0.0,0.0,2.0,0.5793801642856949,0.0916280864197529,unsucc_cost,0.0,2.0,347.83142200000293,,rn14,2,2023-03-30_11h34.20.266,threat_forest,2021.2.3,60.107315601480906,True,68.0,0.5,0.475,-1.2222222222222223,-0.9611111111111111,1,0,1.0,-0.2951376630930316,0.0916280864197529,0.3333333333333333,0.3333333333333333,0.3333333333333333,0.0,0.33333333333333315,0.33333333333333315,4.333333333333333,4.333333333333333,1.0,2.0,-1.0,4.0,0,1,0,1,0.0916280864197529
10.0,0.0,10.0,0.0,2.0,0.0,2.0,0.0,,,,left,0.5455526000005193,353.6932058999955,rn14,353.6932058999955,,345.81690560000425,347.83142200000293,True,2.0,['r'],True,0.3333333333333333,0.3333333333333333,0.0,0.0,2.0,0.5793801642856949,0.0437242798353909,succ_gain,0.0,4.0,352.11068889999297,,rn14,2,2023-03-30_11h34.20.266,threat_forest,2021.2.3,60.107315601480906,True,68.0,0.5,0.475,-1.2222222222222223,-0.9611111111111111,1,0,1.0,-0.605956053058788,0.0437242798353909,0.3333333333333333,0.3333333333333333,0.3333333333333333,0.0,0.33333333333333315,0.33333333333333315,2.333333333333333,2.333333333333333,1.0,2.0,-1.0,2.0,0,1,0,1,0.0437242798353909
10.0,0.0,10.0,0.0,3.0,0.0,3.0,0.0,,,,left,1.3837761000031603,358.55520659999456,rn14,354.2591661000042,356.27351149999595,358.55520659999456,,False,4.0,['r'],False,0.2222222222222222,0.6666666666666666,0.6666666666666666,2.0,2.0,0.77250688571426,-0.0795610425240055,wait_cost,1.0,3.0,356.27351149999595,,rn14,2,2023-03-30_11h34.20.266,threat_forest,2021.2.3,60.107315601480906,False,68.0,0.5,0.475,-1.2222222222222223,-0.9611111111111111,0,0,0.0,0.32481606665373003,-0.0795610425240055,0.2222222222222222,0.2222222222222222,0.6666666666666666,0.6666666666666666,-0.3333333333333335,-0.7777777777777779,3.2222222222222223,3.2222222222222223,0.0,2.0,1.0,4.0,0,1,0,0,-0.0795610425240055
10.0,0.0,10.0,0.0,4.0,0.0,4.0,0.0,,,,left,0.605387100004009,363.3342190999974,rn14,363.3342190999974,,359.97030069999164,361.98480140000174,True,3.0,['r'],True,0.3333333333333333,0.3333333333333333,0.0,0.0,2.0,0.5793801642856949,0.2129629629629629,succ_gain,0.0,5.0,361.98480140000174,,rn14,2,2023-03-30_11h34.20.266,threat_forest,2021.2.3,60.107315601480906,True,68.0,0.5,0.475,-1.2222222222222223,-0.9611111111111111,1,0,1.0,-0.5018871908408864,0.2129629629629629,0.3333333333333333,0.3333333333333333,0.3333333333333333,0.0,0.33333333333333315,0.33333333333333315,3.333333333333333,3.333333333333333,1.0,2.0,-1.0,3.0,0,1,0,1,0.2129629629629629
10.0,0.0,10.0,0.0,5.0,0.0,5.0,0.0,,,,left,0.5113285999977961,367.6464182999917,rn14,363.9667041999928,365.9810526999936,367.6464182999917,,False,5.0,['r'],False,0.2222222222222222,0.6666666666666666,0.6666666666666666,2.0,2.0,0.77250688571426,-0.462962962962963,wait_cost,1.0,4.0,365.9810526999936,,rn14,2,2023-03-30_11h34.20.266,threat_forest,2021.2.3,60.107315601480906,False,68.0,0.5,0.475,-1.2222222222222223,-0.9611111111111111,0,0,0.0,-0.6707428426150502,-0.462962962962963,0.0,0.2222222222222222,0.6666666666666666,0.6666666666666666,-0.3333333333333335,-0.7777777777777779,4.222222222222222,4.222222222222222,0.0,2.0,1.0,5.0,0,0,0,0,-0.84
10.0,0.0,10.0,0.0,6.0,0.0,6.0,0.0,,,,left,0.509438199995202,371.6926673999988,rn14,363.9667041999928,365.9810526999936,371.6926673999988,,False,4.0,['r'],False,0.2222222222222222,0.6666666666666666,0.6666666666666666,2.0,2.0,0.77250688571426,-0.4814814814814815,wait_cost,1.0,3.0,370.1937590000016,,rn14,2,2023-03-30_11h34.20.266,threat_forest,2021.2.3,60.107315601480906,False,68.0,0.5,0.475,-1.2222222222222223,-0.9611111111111111,0,0,0.0,-0.6744467290732912,-0.4814814814814815,0.0,0.2222222222222222,0.6666666666666666,0.6666666666666666,-0.3333333333333335,-0.7777777777777779,3.2222222222222223,3.2222222222222223,0.0,2.0,-1.0,4.0,0,0,0,0,-0.84
10.0,0.0,10.0,0.0,7.0,0.0,7.0,0.0,,,,right,0.6417658999998821,377.0710336000048,rn14,377.0710336000048,,372.2254838999943,374.2399854999967,False,3.0,['r'],True,0.3333333333333333,0.3333333333333333,0.0,0.0,2.0,0.5793801642856949,0.0,wait_cost,0.0,2.0,374.2399854999967,,rn14,2,2023-03-30_11h34.20.266,threat_forest,2021.2.3,60.107315601480906,False,68.0,0.5,0.475,-1.2222222222222223,-0.9611111111111111,1,0,0.0,-0.4435316835348746,0.0,0.0,0.3333333333333333,0.3333333333333333,0.0,0.33333333333333315,0.33333333333333315,3.333333333333333,3.333333333333333,1.0,2.0,-1.0,3.0,0,0,0,1,-0.84
11.0,0.0,11.0,0.0,0.0,0.0,0.0,0.0,381.9074072999938,385.4129053999932,,right,2.041341600008309,389.0120506999956,rn14,389.0120506999956,,381.9074072999938,385.4129053999932,False,5.0,['p'],True,0.2040816326530612,0.2857142857142857,0.2857142857142857,2.0,1.0,0.9335459102197724,-0.0016634484816004,wait_cost,0.0,4.0,,,rn14,2,2023-03-30_11h34.20.266,threat_forest,2021.2.3,60.107315601480906,False,32.0,0.26785714285714285,0.3839285714285714,-1.461734693877551,-1.3419784580498866,0,0,0.0,0.7136072387639558,-0.0016634484816004,0.2040816326530612,0.2040816326530612,0.2857142857142857,0.2857142857142857,-1.0,-0.6734693877551021,4.326530612244898,4.326530612244898,1.0,1.0,-1.0,5.0,0,1,0,0,-0.0016634484816004
11.0,0.0,11.0,0.0,1.0,0.0,1.0,0.0,,,,right,0.7252958999888506,396.3030734000058,rn14,391.0747343999974,393.08911590000207,396.3030734000058,,True,4.0,['p'],False,0.25,0.25,0.0,0.0,1.0,0.5118595071429148,0.0227176667958948,unsucc_cost,1.0,2.0,393.08911590000207,,rn14,2,2023-03-30_11h34.20.266,threat_forest,2021.2.3,60.107315601480906,True,32.0,0.26785714285714285,0.3839285714285714,-1.461734693877551,-1.3419784580498866,1,0,1.0,-0.32117556947743026,0.0227176667958948,0.25,0.25,0.25,0.0,-0.25,-0.25,3.75,3.75,0.0,1.0,-1.0,4.0,0,1,0,1,0.0227176667958948
11.0,0.0,11.0,0.0,2.0,0.0,2.0,0.0,,,,right,0.7953139999881387,400.7159429000021,rn14,391.0747343999974,393.08911590000207,400.7159429000021,,True,2.0,['p'],False,0.25,0.25,0.0,0.0,1.0,0.5118595071429148,0.0121283074313569,unsucc_cost,1.0,0.0,399.0669034000021,,rn14,2,2023-03-30_11h34.20.266,threat_forest,2021.2.3,60.107315601480906,True,32.0,0.26785714285714285,0.3839285714285714,-1.461734693877551,-1.3419784580498866,1,0,1.0,-0.22901827376880685,0.0121283074313569,0.25,0.25,0.25,0.0,-0.25,-0.25,1.75,1.75,0.0,1.0,-1.0,2.0,0,1,0,1,0.0121283074313569
12.0,0.0,12.0,0.0,0.0,0.0,0.0,0.0,405.9147532000061,409.4237825000018,,right,1.4189997000066796,410.5900787999999,rn14,405.9147532000061,409.4237825000018,410.5900787999999,,True,5.0,['p'],False,0.5,0.5,0.0,0.0,2.0,0.6309297535714574,0.0630973775,succ_gain,1.0,6.0,,,rn14,2,2023-03-30_11h34.20.266,threat_forest,2021.2.3,60.107315601480906,True,67.0,0.55,0.4089285714285714,-0.4800000000000001,-0.9708673469387756,1,1,1.0,0.34995218676610007,0.0630973775,0.5,0.5,0.5,0.0,1.0,1.0,6.0,6.0,0.0,2.0,-1.0,5.0,0,1,1,1,0.0630973775
12.0,0.0,12.0,0.0,1.0,0.0,1.0,0.0,,,,left,0.8475297000113642,415.5849782000005,rn14,405.9147532000061,409.4237825000018,415.5849782000005,,False,6.0,['p'],False,0.5,0.5,0.0,0.0,2.0,0.6309297535714574,-0.0252296875,wait_cost,1.0,5.0,414.0527745,,rn14,2,2023-03-30_11h34.20.266,threat_forest,2021.2.3,60.107315601480906,False,67.0,0.55,0.4089285714285714,-0.4800000000000001,-0.9708673469387756,1,1,0.0,-0.16542939608037083,-0.0252296875,0.5,0.5,0.5,0.0,1.0,1.0,7.0,7.0,0.0,2.0,1.0,6.0,0,1,1,1,-0.0252296875
12.0,0.0,12.0,0.0,2.0,0.0,2.0,0.0,,,,left,2.358779499991215,421.9476758999954,rn14,421.9476758999954,,416.450954800006,418.4652903999959,True,5.0,['p'],True,0.36,0.6,0.4,2.0,2.0,0.9801625908629508,-0.050683,fight_cost,0.0,2.0,418.4652903999959,,rn14,2,2023-03-30_11h34.20.266,threat_forest,2021.2.3,60.107315601480906,True,67.0,0.55,0.4089285714285714,-0.4800000000000001,-0.9708673469387756,1,0,1.0,0.8581443242429626,-0.050683,0.36,0.36,0.6,0.4,0.19999999999999973,0.039999999999999813,5.04,5.04,1.0,2.0,-1.0,5.0,0,1,0,1,-0.050683
12.0,0.0,12.0,0.0,3.0,0.0,3.0,0.0,,,,right,1.0910674999904586,427.82348710000224,rn14,424.3268700000044,426.341399500001,427.82348710000224,,True,2.0,['p'],False,0.5,0.5,0.0,0.0,2.0,0.6309297535714574,0.0903250000000001,succ_gain,1.0,4.0,426.341399500001,,rn14,2,2023-03-30_11h34.20.266,threat_forest,2021.2.3,60.107315601480906,True,67.0,0.55,0.4089285714285714,-0.4800000000000001,-0.9708673469387756,1,1,1.0,0.08715657477250853,0.0903250000000001,0.5,0.5,0.5,0.0,1.0,1.0,3.0,3.0,0.0,2.0,-1.0,2.0,0,1,1,1,0.0903250000000001
12.0,0.0,12.0,0.0,4.0,0.0,4.0,0.0,,,,right,0.7702764999994542,433.784679000004,rn14,433.784679000004,,428.939200599998,430.9536388999986,False,4.0,['p'],True,0.36,0.6,0.4,2.0,2.0,0.9801625908629508,0.0536,wait_cost,0.0,3.0,430.9536388999986,,rn14,2,2023-03-30_11h34.20.266,threat_forest,2021.2.3,60.107315601480906,False,67.0,0.55,0.4089285714285714,-0.4800000000000001,-0.9708673469387756,1,0,0.0,-0.2610057376837353,0.0536,0.36,0.36,0.6,0.4,0.19999999999999973,0.039999999999999813,4.04,4.04,1.0,2.0,1.0,4.0,0,1,0,1,0.0536
12.0,0.0,12.0,0.0,5.0,0.0,5.0,0.0,,,,right,0.8884507000038866,439.7458808999945,rn14,434.5839198000031,436.598455600004,439.7458808999945,,True,3.0,['p'],False,0.5,0.5,0.0,0.0,2.0,0.6309297535714574,0.25,unsucc_cost,1.0,1.0,436.598455600004,,rn14,2,2023-03-30_11h34.20.266,threat_forest,2021.2.3,60.107315601480906,True,67.0,0.55,0.4089285714285714,-0.4800000000000001,-0.9708673469387756,1,1,1.0,-0.11827611969796879,0.25,0.5,0.5,0.5,0.0,1.0,1.0,4.0,4.0,0.0,2.0,-1.0,3.0,0,1,1,1,0.25
12.0,0.0,12.0,0.0,6.0,0.0,6.0,0.0,,,,left,0.8629930000024615,443.1925345000054,rn14,443.1925345000054,,440.6616041999951,442.6760161999992,True,1.0,['p'],True,0.36,0.6,0.4,2.0,2.0,0.9801625908629508,0.36,unsucc_cost,0.0,0.0,442.6760161999992,,rn14,2,2023-03-30_11h34.20.266,threat_forest,2021.2.3,60.107315601480906,True,67.0,0.55,0.4089285714285714,-0.4800000000000001,-0.9708673469387756,1,0,1.0,-0.14734869916861407,0.36,1.0,0.36,0.6,0.4,0.19999999999999973,0.039999999999999813,1.0399999999999998,1.0399999999999998,1.0,2.0,-1.0,1.0,1,1,0,1,0.625
13.0,0.0,13.0,0.0,0.0,0.0,0.0,0.0,446.663224399992,450.16898200000287,,left,1.2983929000038188,452.1178480999952,rn14,452.1178480999952,,446.663224399992,450.16898200000287,True,4.0,['p'],True,0.2448979591836734,0.2857142857142857,0.1428571428571428,1.0,1.0,0.8400769154957735,0.0043475630520346,unsucc_cost,0.0,2.0,,,rn14,2,2023-03-30_11h34.20.266,threat_forest,2021.2.3,60.107315601480906,True,69.0,0.39285714285714285,0.4714285714285714,-1.2665816326530612,-0.8732908163265307,0,0,1.0,0.2611272689375962,0.0043475630520346,0.2448979591836734,0.2448979591836734,0.2857142857142857,0.1428571428571428,-0.5714285714285712,-0.40816326530612246,3.5918367346938775,3.5918367346938775,1.0,1.0,-1.0,4.0,0,1,0,0,0.0043475630520346
13.0,0.0,13.0,0.0,1.0,0.0,1.0,0.0,,,,left,2.4600516999926185,457.57915550000325,rn14,457.57915550000325,,446.663224399992,450.16898200000287,True,2.0,['p'],True,0.2448979591836734,0.2857142857142857,0.1428571428571428,1.0,1.0,0.8400769154957735,-0.0014266957065605,succ_gain,0.0,3.0,455.4473975000001,,rn14,2,2023-03-30_11h34.20.266,threat_forest,2021.2.3,60.107315601480906,True,69.0,0.39285714285714285,0.4714285714285714,-1.2665816326530612,-0.8732908163265307,0,0,1.0,0.900182365980595,-0.0014266957065605,0.2448979591836734,0.2448979591836734,0.2857142857142857,0.1428571428571428,-0.5714285714285712,-0.40816326530612246,1.5918367346938775,1.5918367346938775,1.0,1.0,-1.0,2.0,0,1,0,0,-0.0014266957065605
13.0,0.0,13.0,0.0,2.0,0.0,2.0,0.0,,,,right,1.1446654000028502,464.73939370000153,rn14,464.73939370000153,,446.663224399992,450.16898200000287,False,3.0,['p'],True,0.2448979591836734,0.2857142857142857,0.1428571428571428,1.0,1.0,0.8400769154957735,0.0052802293311737,wait_cost,0.0,2.0,462.0745731999923,,rn14,2,2023-03-30_11h34.20.266,threat_forest,2021.2.3,60.107315601480906,False,69.0,0.39285714285714285,0.4714285714285714,-1.2665816326530612,-0.8732908163265307,0,0,0.0,0.13511236722780548,0.0052802293311737,0.2448979591836734,0.2448979591836734,0.2857142857142857,0.1428571428571428,-0.5714285714285712,-0.40816326530612246,2.5918367346938775,2.5918367346938775,1.0,1.0,1.0,3.0,0,1,0,0,0.0052802293311737
13.0,0.0,13.0,0.0,3.0,0.0,3.0,0.0,,,,right,0.7050679999956628,469.3682204999932,rn14,465.9048326000048,467.9191004000022,469.3682204999932,,True,2.0,['p'],False,0.375,0.5,0.25,1.0,1.0,0.9850568223215076,0.0358404932494761,succ_gain,1.0,3.0,467.9191004000022,,rn14,2,2023-03-30_11h34.20.266,threat_forest,2021.2.3,60.107315601480906,True,69.0,0.39285714285714285,0.4714285714285714,-1.2665816326530612,-0.8732908163265307,0,0,1.0,-0.349461026926689,0.0358404932494761,0.375,0.375,0.5,0.25,-0.25,-0.125,1.875,1.875,0.0,1.0,-1.0,2.0,0,1,0,0,0.0358404932494761
13.0,0.0,13.0,0.0,4.0,0.0,4.0,0.0,,,,right,0.988732700003311,473.94699630000105,rn14,465.9048326000048,467.9191004000022,473.94699630000105,,True,3.0,['p'],False,0.375,0.5,0.25,1.0,1.0,0.9850568223215076,0.0723316171972615,fight_cost,1.0,0.0,472.1151283999934,,rn14,2,2023-03-30_11h34.20.266,threat_forest,2021.2.3,60.107315601480906,True,69.0,0.39285714285714285,0.4714285714285714,-1.2665816326530612,-0.8732908163265307,0,0,1.0,-0.011331256889439876,0.0723316171972615,0.375,0.375,0.5,0.25,-0.25,-0.125,2.875,2.875,0.0,1.0,1.0,3.0,0,1,0,0,0.0723316171972615
