miniblock.thisRepN,miniblock.thisTrialN,miniblock.thisN,miniblock.thisIndex,day.thisRepN,day.thisTrialN,day.thisN,day.thisIndex,forest.started,fixation_forest.started,fixation_forest.stopped,key_resp.keys,key_resp.rt,key_resp.started,Subject_ID,weather_left.started,weather_left.stopped,weather_right.started,weather_right.stopped,foraging T/F,in_LP,p/r heuristic,good_weather.T/F,p_succ_correct,p_succ_uncorrected,r_threat,n_oponents,gain_if_succ,weather_entropy,OP_value_difference,action_outcome,forest_side_L=0_R=1,out_LP,fixation_day.started,fixation_day.stopped,participant,session,date,expName,psychopyVersion,frameRate,foraging T/F NaNs,fora_NR,forest_mean_p,mvt_cutoff_p,forest_mean_ev,mvt_cutoff_ev,mvt_policy_eg,mvt_policy_p,fora_response,logRT,optimal policy values,multi-heuristic policy,** $\mathit{p}$ success,* $\mathit{p}$ gain,* $\mathit{r}$ predator,expected gain naive,expected gain correct,expected state no bounds,expected state with bounds,weather type,gain magnitude,win stay lose shift,continuous energy state,** binary energy state,** wait when safe,$\mathit{p}$ success based MVT,marginal value,$\mathit{OP}$ values + cap
0.0,0.0,0.0,0.0,0.0,0.0,0.0,0.0,24.66317379998509,28.161902699968778,,left,0.7166102000046521,29.976905999996237,ri12,24.66317379998509,28.161902699968778,29.976905999996237,,False,4.0,['p'],False,0.25,0.5,0.5,1.0,1.0,0.9463946303571862,0.0069096320109571,wait_cost,1.0,3.0,,,ri12,1,2023-03-20_13h53.23.493,threat_forest,2021.2.3,60.09893487130529,False,71.0,0.35,0.35,-1.7350000000000003,-1.7350000000000003,0,0,0.0,-0.3332232403238709,0.0069096320109571,0.25,0.25,0.5,0.5,-1.0,-0.75,3.25,3.25,0.0,1.0,,4.0,0,1,0,0,0.0069096320109571
0.0,0.0,0.0,0.0,1.0,0.0,1.0,0.0,,,,right,1.2549220999935642,35.527994700009,ri12,35.527994700009,,30.72646579996217,32.74106369999936,False,3.0,['p'],True,0.16,0.2,0.2,2.0,1.0,0.8198746470064713,0.0047856218393748,wait_cost,0.0,2.0,32.74106369999936,,ri12,1,2023-03-20_13h53.23.493,threat_forest,2021.2.3,60.09893487130529,False,71.0,0.35,0.35,-1.7350000000000003,-1.7350000000000003,1,0,0.0,0.22707349893894282,0.0047856218393748,0.16,0.16,0.2,0.2,-1.0,-0.7200000000000004,2.2799999999999994,2.2799999999999994,1.0,1.0,-1.0,3.0,0,1,0,1,0.0047856218393748
0.0,0.0,0.0,0.0,2.0,0.0,2.0,0.0,,,,right,0.7497033999534324,39.76844089996303,ri12,36.80429199995706,38.81858029996511,39.76844089996303,,True,2.0,['p'],False,0.25,0.5,0.5,1.0,1.0,0.9463946303571862,0.0092707982812499,unsucc_cost,1.0,0.0,38.81858029996511,,ri12,1,2023-03-20_13h53.23.493,threat_forest,2021.2.3,60.09893487130529,True,71.0,0.35,0.35,-1.7350000000000003,-1.7350000000000003,0,0,1.0,-0.2880776173981269,0.0092707982812499,0.25,0.25,0.5,0.5,-1.0,-0.75,1.25,1.25,0.0,1.0,-1.0,2.0,0,1,0,0,0.0092707982812499
1.0,0.0,1.0,0.0,0.0,0.0,0.0,0.0,46.159576200007,49.65847699996084,,right,1.3176400000229478,51.5437143999734,ri12,46.159576200007,49.65847699996084,51.5437143999734,,True,5.0,['r'],False,0.3061224489795918,0.4285714285714285,0.2857142857142857,2.0,2.0,0.9885754083994552,-0.0154423019709537,succ_gain,1.0,6.0,,,ri12,1,2023-03-20_13h53.23.493,threat_forest,2021.2.3,60.09893487130529,True,33.0,0.41428571428571426,0.3821428571428571,-0.7306122448979593,-1.23280612244898,1,0,1.0,0.2758422576649872,-0.0154423019709537,0.3061224489795918,0.3061224489795918,0.4285714285714285,0.2857142857142857,-0.14285714285714324,-0.06122448979591866,4.938775510204081,4.938775510204081,0.0,2.0,-1.0,5.0,0,1,0,1,-0.0154423019709537
1.0,0.0,1.0,0.0,1.0,0.0,1.0,0.0,,,,left,0.6178146000020206,55.5200751000084,ri12,46.159576200007,49.65847699996084,55.5200751000084,,False,6.0,['r'],False,0.3061224489795918,0.4285714285714285,0.2857142857142857,2.0,2.0,0.9885754083994552,-0.1118857253410899,wait_cost,1.0,5.0,54.90366269997321,,ri12,1,2023-03-20_13h53.23.493,threat_forest,2021.2.3,60.09893487130529,False,33.0,0.41428571428571426,0.3821428571428571,-0.7306122448979593,-1.23280612244898,1,0,0.0,-0.4815668665301778,-0.1118857253410899,0.3061224489795918,0.3061224489795918,0.4285714285714285,0.2857142857142857,-0.14285714285714324,-0.06122448979591866,5.938775510204081,5.938775510204081,0.0,2.0,1.0,6.0,0,1,0,1,-0.1118857253410899
1.0,0.0,1.0,0.0,2.0,0.0,2.0,0.0,,,,left,1.001222399994731,59.94924220000394,ri12,59.94924220000394,,56.16958439996233,58.18388510000659,True,5.0,['r'],True,0.4,0.4,0.0,0.0,2.0,0.6126016192893442,0.0900663897782421,unsucc_cost,0.0,3.0,58.18388510000659,,ri12,1,2023-03-20_13h53.23.493,threat_forest,2021.2.3,60.09893487130529,True,33.0,0.41428571428571426,0.3821428571428571,-0.7306122448979593,-1.23280612244898,1,1,1.0,0.0012216534721615816,0.0900663897782421,0.4,0.4,0.4,0.0,0.6000000000000001,0.6000000000000001,5.6,5.6,1.0,2.0,-1.0,5.0,0,1,1,1,0.0900663897782421
1.0,0.0,1.0,0.0,3.0,0.0,3.0,0.0,,,,right,1.196856199996546,66.61607579997508,ri12,60.98167899996042,62.99608149996493,66.61607579997508,,True,3.0,['r'],False,0.3061224489795918,0.4285714285714285,0.2857142857142857,2.0,2.0,0.9885754083994552,0.0061171946785325,unsucc_cost,1.0,1.0,62.99608149996493,,ri12,1,2023-03-20_13h53.23.493,threat_forest,2021.2.3,60.09893487130529,True,33.0,0.41428571428571426,0.3821428571428571,-0.7306122448979593,-1.23280612244898,1,0,1.0,0.179698285688821,0.0061171946785325,0.3061224489795918,0.3061224489795918,0.4285714285714285,0.2857142857142857,-0.14285714285714324,-0.06122448979591866,2.9387755102040813,2.9387755102040813,0.0,2.0,-1.0,3.0,0,1,0,1,0.0061171946785325
1.0,0.0,1.0,0.0,4.0,0.0,4.0,0.0,,,,left,1.080644099973142,71.45513809996191,ri12,71.45513809996191,,67.84193789999699,69.85635029996047,True,1.0,['r'],True,0.4,0.4,0.0,0.0,2.0,0.6126016192893442,0.2124131611828403,succ_gain,0.0,3.0,69.85635029996047,,ri12,1,2023-03-20_13h53.23.493,threat_forest,2021.2.3,60.09893487130529,True,33.0,0.41428571428571426,0.3821428571428571,-0.7306122448979593,-1.23280612244898,1,1,1.0,0.07755725223098625,0.2124131611828403,1.0,0.4,0.4,0.0,0.6000000000000001,0.6000000000000001,1.6,1.6,1.0,2.0,-1.0,1.0,1,1,1,1,0.625
1.0,0.0,1.0,0.0,5.0,0.0,5.0,0.0,,,,right,1.0187097000307404,76.05534909997368,ri12,72.55415019998327,74.56871959997807,76.05534909997368,,True,3.0,['r'],False,0.3061224489795918,0.4285714285714285,0.2857142857142857,2.0,2.0,0.9885754083994552,0.0736984589754268,unsucc_cost,1.0,1.0,74.56871959997807,,ri12,1,2023-03-20_13h53.23.493,threat_forest,2021.2.3,60.09893487130529,True,33.0,0.41428571428571426,0.3821428571428571,-0.7306122448979593,-1.23280612244898,1,0,1.0,0.018536826538453115,0.0736984589754268,0.3061224489795918,0.3061224489795918,0.4285714285714285,0.2857142857142857,-0.14285714285714324,-0.06122448979591866,2.9387755102040813,2.9387755102040813,0.0,2.0,1.0,3.0,0,1,0,1,0.0736984589754268
1.0,0.0,1.0,0.0,6.0,0.0,6.0,0.0,,,,left,0.8995884000323713,79.96479050000198,ri12,79.96479050000198,,77.09981859999243,79.11436989996582,True,1.0,['r'],True,0.4,0.4,0.0,0.0,2.0,0.6126016192893442,0.4,unsucc_cost,0.0,0.0,79.11436989996582,,ri12,1,2023-03-20_13h53.23.493,threat_forest,2021.2.3,60.09893487130529,True,33.0,0.41428571428571426,0.3821428571428571,-0.7306122448979593,-1.23280612244898,1,1,1.0,-0.10581795356395925,0.4,1.0,0.4,0.4,0.0,0.6000000000000001,0.6000000000000001,1.6,1.6,1.0,2.0,-1.0,1.0,1,1,1,1,0.625
2.0,0.0,2.0,0.0,0.0,0.0,0.0,0.0,84.16903879999882,87.67310829996131,,right,1.6930942999897525,90.12319399998523,ri12,90.12319399998523,,84.16903879999882,87.67310829996131,False,4.0,['p'],True,0.18,0.2,0.1,1.0,1.0,0.7058405977926203,-0.0012447101888581,wait_cost,0.0,3.0,,,ri12,1,2023-03-20_13h53.23.493,threat_forest,2021.2.3,60.09893487130529,False,11.0,0.35,0.3821428571428571,-1.3425000000000002,-1.0365561224489799,0,0,0.0,0.5265578015346949,-0.0012447101888581,0.18,0.18,0.2,0.1,-0.7000000000000002,-0.5600000000000003,3.4399999999999995,3.4399999999999995,1.0,1.0,-1.0,4.0,0,1,0,0,-0.0012447101888581
2.0,0.0,2.0,0.0,1.0,0.0,1.0,0.0,,,,right,0.8627309000003152,97.09800790000008,ri12,91.83616649999747,93.85064959997544,97.09800790000008,,True,3.0,['p'],False,0.375,0.5,0.25,1.0,1.0,0.9850568223215076,0.0399199646186828,succ_gain,1.0,4.0,93.85064959997544,,ri12,1,2023-03-20_13h53.23.493,threat_forest,2021.2.3,60.09893487130529,True,11.0,0.35,0.3821428571428571,-1.3425000000000002,-1.0365561224489799,0,0,1.0,-0.14765245575929603,0.0399199646186828,0.375,0.375,0.5,0.25,-0.25,-0.125,2.875,2.875,0.0,1.0,-1.0,3.0,0,1,0,0,0.0399199646186828
2.0,0.0,2.0,0.0,2.0,0.0,2.0,0.0,,,,right,1.1004705999512223,101.9270321999793,ri12,91.83616649999747,93.85064959997544,101.9270321999793,,True,4.0,['p'],False,0.375,0.5,0.25,1.0,1.0,0.9850568223215076,0.0613130855712892,succ_gain,1.0,5.0,99.99482399999395,,ri12,1,2023-03-20_13h53.23.493,threat_forest,2021.2.3,60.09893487130529,True,11.0,0.35,0.3821428571428571,-1.3425000000000002,-1.0365561224489799,0,0,1.0,0.0957379064537129,0.0613130855712892,0.375,0.375,0.5,0.25,-0.25,-0.125,3.875,3.875,0.0,1.0,1.0,4.0,0,1,0,0,0.0613130855712892
2.0,0.0,2.0,0.0,3.0,0.0,3.0,0.0,,,,right,0.8958033999660984,108.21115799999096,ri12,108.21115799999096,,103.05907739995746,105.07348640001146,False,5.0,['p'],True,0.18,0.2,0.1,1.0,1.0,0.7058405977926203,-0.0174536015625,wait_cost,0.0,4.0,105.07348640001146,,ri12,1,2023-03-20_13h53.23.493,threat_forest,2021.2.3,60.09893487130529,False,11.0,0.35,0.3821428571428571,-1.3425000000000002,-1.0365561224489799,0,0,0.0,-0.11003430976392041,-0.0174536015625,0.18,0.18,0.2,0.1,-0.7000000000000002,-0.5600000000000003,4.4399999999999995,4.4399999999999995,1.0,1.0,1.0,5.0,0,1,0,0,-0.0174536015625
2.0,0.0,2.0,0.0,4.0,0.0,4.0,0.0,,,,right,1.0176001999643631,112.13394219998736,ri12,112.13394219998736,,103.05907739995746,105.07348640001146,False,4.0,['p'],True,0.18,0.2,0.1,1.0,1.0,0.7058405977926203,-0.0054778125,wait_cost,0.0,3.0,111.1511160999653,,ri12,1,2023-03-20_13h53.23.493,threat_forest,2021.2.3,60.09893487130529,False,11.0,0.35,0.3821428571428571,-1.3425000000000002,-1.0365561224489799,0,0,0.0,0.01744711010956133,-0.0054778125,0.18,0.18,0.2,0.1,-0.7000000000000002,-0.5600000000000003,3.4399999999999995,3.4399999999999995,1.0,1.0,-1.0,4.0,0,1,0,0,-0.0054778125
2.0,0.0,2.0,0.0,5.0,0.0,5.0,0.0,,,,right,1.360416700015776,118.095120199956,ri12,118.095120199956,,103.05907739995746,105.07348640001146,False,3.0,['p'],True,0.18,0.2,0.1,1.0,1.0,0.7058405977926203,0.0535499999999999,wait_cost,0.0,2.0,115.1973447999917,,ri12,1,2023-03-20_13h53.23.493,threat_forest,2021.2.3,60.09893487130529,False,11.0,0.35,0.3821428571428571,-1.3425000000000002,-1.0365561224489799,0,0,0.0,0.30779104988838774,0.0535499999999999,0.18,0.18,0.2,0.1,-0.7000000000000002,-0.5600000000000003,2.4399999999999995,2.4399999999999995,1.0,1.0,-1.0,3.0,0,1,0,0,0.0535499999999999
2.0,0.0,2.0,0.0,6.0,0.0,6.0,0.0,,,,right,1.2519813000108115,122.45759969996288,ri12,119.47735249996184,121.49154059996364,122.45759969996288,,True,2.0,['p'],False,0.375,0.5,0.25,1.0,1.0,0.9850568223215076,0.0975,succ_gain,1.0,3.0,121.49154059996364,,ri12,1,2023-03-20_13h53.23.493,threat_forest,2021.2.3,60.09893487130529,True,11.0,0.35,0.3821428571428571,-1.3425000000000002,-1.0365561224489799,0,0,1.0,0.22472733647276122,0.0975,0.375,0.375,0.5,0.25,-0.25,-0.125,1.875,1.875,0.0,1.0,-1.0,2.0,0,1,0,0,0.0975
2.0,0.0,2.0,0.0,7.0,0.0,7.0,0.0,,,,right,0.8877021999796852,128.23808839998674,ri12,128.23808839998674,,123.7396741999546,125.75420719996328,False,3.0,['p'],True,0.18,0.2,0.1,1.0,1.0,0.7058405977926203,-0.1,wait_cost,0.0,2.0,125.75420719996328,,ri12,1,2023-03-20_13h53.23.493,threat_forest,2021.2.3,60.09893487130529,False,11.0,0.35,0.3821428571428571,-1.3425000000000002,-1.0365561224489799,0,0,0.0,-0.11911895261907308,-0.1,0.0,0.18,0.2,0.1,-0.7000000000000002,-0.5600000000000003,2.4399999999999995,2.4399999999999995,1.0,1.0,1.0,3.0,0,0,0,0,-0.84
3.0,0.0,3.0,0.0,0.0,0.0,0.0,0.0,132.20350000000326,135.71155439998256,,left,1.044636200007517,138.29494950000662,ri12,138.29494950000662,,132.20350000000326,135.71155439998256,True,4.0,['r'],True,0.4081632653061224,0.5714285714285714,0.2857142857142857,2.0,1.0,0.9885754083994552,0.0257810571799274,figh_cost,0.0,1.0,,,ri12,1,2023-03-20_13h53.23.493,threat_forest,2021.2.3,60.09893487130529,True,27.0,0.5357142857142857,0.44285714285714284,-0.7806122448979592,-1.0615561224489798,1,0,1.0,0.043668690839979214,0.0257810571799274,0.4081632653061224,0.4081632653061224,0.5714285714285714,0.2857142857142857,-0.1428571428571428,-0.061224489795918435,3.9387755102040813,3.9387755102040813,1.0,1.0,-1.0,4.0,0,1,0,1,0.0257810571799274
3.0,0.0,3.0,0.0,1.0,0.0,1.0,0.0,,,,left,1.6700368999736384,144.58686729997862,ri12,144.58686729997862,,132.20350000000326,135.71155439998256,True,1.0,['r'],True,0.4081632653061224,0.5714285714285714,0.2857142857142857,2.0,1.0,0.9885754083994552,0.0740676203180814,succ_gain,0.0,2.0,141.37300510000205,,ri12,1,2023-03-20_13h53.23.493,threat_forest,2021.2.3,60.09893487130529,True,27.0,0.5357142857142857,0.44285714285714284,-0.7806122448979592,-1.0615561224489798,1,0,1.0,0.5128457219771532,0.0740676203180814,1.0,0.4081632653061224,0.5714285714285714,0.2857142857142857,-0.1428571428571428,-0.061224489795918435,0.9387755102040816,1.0,1.0,1.0,-1.0,1.0,1,1,0,1,0.625
3.0,0.0,3.0,0.0,2.0,0.0,2.0,0.0,,,,right,1.3236993000027724,149.0828288999619,ri12,146.28565589996288,148.29968050000025,149.0828288999619,,True,2.0,['r'],False,0.5,0.5,0.0,0.0,1.0,0.6309297535714574,0.0684515063919812,unsucc_cost,1.0,0.0,148.29968050000025,,ri12,1,2023-03-20_13h53.23.493,threat_forest,2021.2.3,60.09893487130529,True,27.0,0.5357142857142857,0.44285714285714284,-0.7806122448979592,-1.0615561224489798,1,1,1.0,0.28043031691881287,0.0684515063919812,0.5,0.5,0.5,0.0,0.5,0.5,2.5,2.5,0.0,1.0,1.0,2.0,0,1,1,1,0.0684515063919812
4.0,0.0,4.0,0.0,0.0,0.0,0.0,0.0,154.98669069999596,158.490202499961,,left,0.8092499999911524,159.75664089998463,ri12,159.75664089998463,,154.98669069999596,158.490202499961,True,4.0,['p'],True,0.375,0.5,0.25,1.0,2.0,0.9850568223215076,0.0640175729863931,succ_gain,0.0,6.0,,,ri12,1,2023-03-20_13h53.23.493,threat_forest,2021.2.3,60.09893487130529,True,59.0,0.3611111111111111,0.4484126984126984,-1.1404320987654322,-0.9605221718316956,1,0,1.0,-0.21164738618671636,0.0640175729863931,0.375,0.375,0.5,0.25,0.25,0.25,4.25,4.25,1.0,2.0,-1.0,4.0,0,1,0,1,0.0640175729863931
4.0,0.0,4.0,0.0,1.0,0.0,1.0,0.0,,,,left,1.038632999989204,164.24022719997447,ri12,160.58858509996207,162.60318119998556,164.24022719997447,,False,6.0,['p'],False,0.1728395061728395,0.2222222222222222,0.2222222222222222,2.0,2.0,0.8571721972794328,-0.10870870610332,wait_cost,1.0,5.0,162.60318119998556,,ri12,1,2023-03-20_13h53.23.493,threat_forest,2021.2.3,60.09893487130529,False,59.0,0.3611111111111111,0.4484126984126984,-1.1404320987654322,-0.9605221718316956,0,0,0.0,0.037905425454224526,-0.10870870610332,0.1728395061728395,0.1728395061728395,0.2222222222222222,0.2222222222222222,-0.7777777777777777,-0.5308641975308643,5.469135802469136,5.469135802469136,0.0,2.0,1.0,6.0,0,1,0,0,-0.10870870610332
4.0,0.0,4.0,0.0,2.0,0.0,2.0,0.0,,,,left,0.9126618999871424,168.0319981999928,ri12,160.58858509996207,162.60318119998556,168.0319981999928,,False,5.0,['p'],False,0.1728395061728395,0.2222222222222222,0.2222222222222222,2.0,2.0,0.8571721972794328,-0.0361377939425744,wait_cost,1.0,4.0,167.315388899995,,ri12,1,2023-03-20_13h53.23.493,threat_forest,2021.2.3,60.09893487130529,False,59.0,0.3611111111111111,0.4484126984126984,-1.1404320987654322,-0.9605221718316956,0,0,0.0,-0.09138978461993728,-0.0361377939425744,0.1728395061728395,0.1728395061728395,0.2222222222222222,0.2222222222222222,-0.7777777777777777,-0.5308641975308643,4.469135802469136,4.469135802469136,0.0,2.0,-1.0,5.0,0,1,0,0,-0.0361377939425744
4.0,0.0,4.0,0.0,3.0,0.0,3.0,0.0,,,,left,1.2264910000376403,173.79309920000378,ri12,160.58858509996207,162.60318119998556,173.79309920000378,,False,4.0,['p'],False,0.1728395061728395,0.2222222222222222,0.2222222222222222,2.0,2.0,0.8571721972794328,-0.0141708501176583,wait_cost,1.0,3.0,170.9785629999824,,ri12,1,2023-03-20_13h53.23.493,threat_forest,2021.2.3,60.09893487130529,False,59.0,0.3611111111111111,0.4484126984126984,-1.1404320987654322,-0.9605221718316956,0,0,0.0,0.20415724676664718,-0.0141708501176583,0.1728395061728395,0.1728395061728395,0.2222222222222222,0.2222222222222222,-0.7777777777777777,-0.5308641975308643,3.4691358024691357,3.4691358024691357,0.0,2.0,-1.0,4.0,0,1,0,0,-0.0141708501176583
4.0,0.0,4.0,0.0,4.0,0.0,4.0,0.0,,,,right,0.8928937999880873,178.50538369995775,ri12,160.58858509996207,162.60318119998556,178.50538369995775,,True,3.0,['p'],False,0.1728395061728395,0.2222222222222222,0.2222222222222222,2.0,2.0,0.8571721972794328,0.0140841716201798,unsucc_cost,1.0,1.0,177.0561668999726,,ri12,1,2023-03-20_13h53.23.493,threat_forest,2021.2.3,60.09893487130529,True,59.0,0.3611111111111111,0.4484126984126984,-1.1404320987654322,-0.9605221718316956,0,0,1.0,-0.1132876301631194,0.0140841716201798,0.1728395061728395,0.1728395061728395,0.2222222222222222,0.2222222222222222,-0.7777777777777777,-0.5308641975308643,2.4691358024691357,2.4691358024691357,0.0,2.0,-1.0,3.0,0,1,0,0,0.0140841716201798
4.0,0.0,4.0,0.0,5.0,0.0,5.0,0.0,,,,left,1.076337899954524,182.25197079998907,ri12,182.25197079998907,,179.4210485999938,181.4354034999851,True,1.0,['p'],True,0.375,0.5,0.25,1.0,2.0,0.9850568223215076,0.375,succ_gain,0.0,3.0,181.4354034999851,,ri12,1,2023-03-20_13h53.23.493,threat_forest,2021.2.3,60.09893487130529,True,59.0,0.3611111111111111,0.4484126984126984,-1.1404320987654322,-0.9605221718316956,1,0,1.0,0.07356444585640541,0.375,1.0,0.375,0.5,0.25,0.25,0.25,1.25,1.25,1.0,2.0,-1.0,1.0,1,1,0,1,0.625
4.0,0.0,4.0,0.0,6.0,0.0,6.0,0.0,,,,left,1.208083199977409,186.99774059996707,ri12,186.99774059996707,,179.4210485999938,181.4354034999851,True,3.0,['p'],True,0.375,0.5,0.25,1.0,2.0,0.9850568223215076,-0.5222800925925926,succ_gain,0.0,5.0,185.36537529999623,,ri12,1,2023-03-20_13h53.23.493,threat_forest,2021.2.3,60.09893487130529,True,59.0,0.3611111111111111,0.4484126984126984,-1.1404320987654322,-0.9605221718316956,1,0,1.0,0.18903497129439195,-0.5222800925925926,0.0,0.375,0.5,0.25,0.25,0.25,3.25,3.25,1.0,2.0,1.0,3.0,0,0,0,1,-0.84
4.0,0.0,4.0,0.0,7.0,0.0,7.0,0.0,,,,right,0.617149600002449,192.7253273999668,ri12,192.7253273999668,,179.4210485999938,181.4354034999851,False,5.0,['p'],True,0.375,0.5,0.25,1.0,2.0,0.9850568223215076,0.0,wait_cost,0.0,4.0,190.2439268999733,,ri12,1,2023-03-20_13h53.23.493,threat_forest,2021.2.3,60.09893487130529,False,59.0,0.3611111111111111,0.4484126984126984,-1.1404320987654322,-0.9605221718316956,1,0,0.0,-0.4826438209290877,0.0,0.0,0.375,0.5,0.25,0.25,0.25,5.25,5.25,1.0,2.0,1.0,5.0,0,0,0,1,-0.84
5.0,0.0,5.0,0.0,0.0,0.0,0.0,0.0,197.1239373999997,200.63430309999967,,left,0.6842975000035949,202.68294420000169,ri12,202.68294420000169,,197.1239373999997,200.63430309999967,True,5.0,['r'],True,0.5,0.5,0.0,0.0,1.0,0.6309297535714574,0.0772781267414693,succ_gain,0.0,6.0,,,ri12,1,2023-03-20_13h53.23.493,threat_forest,2021.2.3,60.09893487130529,True,30.0,0.5833333333333333,0.4722222222222222,-1.25,-1.195216049382716,1,1,1.0,-0.3793625143935108,0.0772781267414693,0.5,0.5,0.5,0.0,0.5,0.5,5.5,5.5,1.0,1.0,-1.0,5.0,0,1,1,1,0.0772781267414693
5.0,0.0,5.0,0.0,1.0,0.0,1.0,0.0,,,,right,1.607360499969218,207.84453639999265,ri12,207.84453639999265,,197.1239373999997,200.63430309999967,False,6.0,['r'],True,0.5,0.5,0.0,0.0,1.0,0.6309297535714574,-0.0479600694444443,wait_cost,0.0,5.0,205.413158099982,,ri12,1,2023-03-20_13h53.23.493,threat_forest,2021.2.3,60.09893487130529,False,30.0,0.5833333333333333,0.4722222222222222,-1.25,-1.195216049382716,1,1,0.0,0.47459339262942596,-0.0479600694444443,0.5,0.5,0.5,0.0,0.5,0.5,6.5,6.5,1.0,1.0,1.0,6.0,0,1,1,1,-0.0479600694444443
5.0,0.0,5.0,0.0,2.0,0.0,2.0,0.0,,,,left,0.5348767999676056,214.10529189999212,ri12,214.10529189999212,,197.1239373999997,200.63430309999967,True,5.0,['r'],True,0.5,0.5,0.0,0.0,1.0,0.6309297535714574,0.0967881944444444,unsucc_cost,0.0,3.0,211.490802299988,,ri12,1,2023-03-20_13h53.23.493,threat_forest,2021.2.3,60.09893487130529,True,30.0,0.5833333333333333,0.4722222222222222,-1.25,-1.195216049382716,1,1,1.0,-0.625718839039123,0.0967881944444444,0.5,0.5,0.5,0.0,0.5,0.5,5.5,5.5,1.0,1.0,-1.0,5.0,0,1,1,1,0.0967881944444444
5.0,0.0,5.0,0.0,3.0,0.0,3.0,0.0,,,,left,0.987036900012754,220.34978619997852,ri12,220.34978619997852,,197.1239373999997,200.63430309999967,True,3.0,['r'],True,0.5,0.5,0.0,0.0,1.0,0.6309297535714574,0.1788194444444444,unsucc_cost,0.0,1.0,216.6859196999576,,ri12,1,2023-03-20_13h53.23.493,threat_forest,2021.2.3,60.09893487130529,True,30.0,0.5833333333333333,0.4722222222222222,-1.25,-1.195216049382716,1,1,1.0,-0.01304785421633663,0.1788194444444444,0.5,0.5,0.5,0.0,0.5,0.5,3.5,3.5,1.0,1.0,-1.0,3.0,0,1,1,1,0.1788194444444444
5.0,0.0,5.0,0.0,4.0,0.0,4.0,0.0,,,,left,1.3450861999881454,226.51030540000647,ri12,226.51030540000647,,197.1239373999997,200.63430309999967,True,1.0,['r'],True,0.5,0.5,0.0,0.0,1.0,0.6309297535714574,0.2152777777777778,succ_gain,0.0,2.0,223.37977499997945,,ri12,1,2023-03-20_13h53.23.493,threat_forest,2021.2.3,60.09893487130529,True,30.0,0.5833333333333333,0.4722222222222222,-1.25,-1.195216049382716,1,1,1.0,0.29645810021069374,0.2152777777777778,1.0,0.5,0.5,0.0,0.5,0.5,1.5,1.5,1.0,1.0,-1.0,1.0,1,1,1,1,0.625
5.0,0.0,5.0,0.0,5.0,0.0,5.0,0.0,,,,left,2.5370770000154157,233.6370974999736,ri12,227.87578929995647,229.89023399999127,233.6370974999736,,False,2.0,['r'],False,0.2222222222222222,0.6666666666666666,0.6666666666666666,2.0,1.0,0.77250688571426,-0.1388888888888889,wait_cost,1.0,1.0,229.89023399999127,,ri12,1,2023-03-20_13h53.23.493,threat_forest,2021.2.3,60.09893487130529,False,30.0,0.5833333333333333,0.4722222222222222,-1.25,-1.195216049382716,0,0,0.0,0.9310126309706855,-0.1388888888888889,0.2222222222222222,0.2222222222222222,0.6666666666666666,0.6666666666666666,-1.0,-1.0,1.0,1.0,0.0,1.0,1.0,2.0,0,1,0,0,-0.1388888888888889
5.0,0.0,5.0,0.0,6.0,0.0,6.0,0.0,,,,right,1.411004599998705,241.24663519999007,ri12,227.87578929995647,229.89023399999127,241.24663519999007,,True,1.0,['r'],False,0.2222222222222222,0.6666666666666666,0.6666666666666666,2.0,1.0,0.77250688571426,0.2222222222222222,figh_cost,1.0,0.0,238.2185054000001,,ri12,1,2023-03-20_13h53.23.493,threat_forest,2021.2.3,60.09893487130529,True,30.0,0.5833333333333333,0.4722222222222222,-1.25,-1.195216049382716,0,0,1.0,0.3443019329636655,0.2222222222222222,1.0,0.2222222222222222,0.6666666666666666,0.6666666666666666,-1.0,-1.0,0.0,1.0,0.0,1.0,-1.0,1.0,1,1,0,0,0.625
6.0,0.0,6.0,0.0,0.0,0.0,0.0,0.0,247.7327388999984,251.2370436000056,,left,0.6874224999919534,252.4031577999704,ri12,252.4031577999704,,247.7327388999984,251.2370436000056,True,5.0,['p'],True,0.375,0.5,0.25,1.0,2.0,0.9850568223215076,0.0256486737394332,figh_cost,0.0,2.0,,,ri12,1,2023-03-20_13h53.23.493,threat_forest,2021.2.3,60.09893487130529,True,45.0,0.35,0.4666666666666666,-0.9750000000000001,-1.1125,1,0,1.0,-0.37480618308004,0.0256486737394332,0.375,0.375,0.5,0.25,0.25,0.25,5.25,5.25,1.0,2.0,-1.0,5.0,0,1,0,1,0.0256486737394332
6.0,0.0,6.0,0.0,1.0,0.0,1.0,0.0,,,,right,1.3059808000107296,256.8515596999787,ri12,253.1188792999601,255.13376190001145,256.8515596999787,,True,2.0,['p'],False,0.2,0.2,0.0,0.0,2.0,0.4554859150035951,-0.0239407760620117,unsucc_cost,1.0,0.0,255.13376190001145,,ri12,1,2023-03-20_13h53.23.493,threat_forest,2021.2.3,60.09893487130529,True,45.0,0.35,0.4666666666666666,-0.9750000000000001,-1.1125,0,0,1.0,0.2669543293761345,-0.0239407760620117,0.2,0.2,0.2,0.0,-0.20000000000000018,-0.20000000000000018,1.7999999999999998,1.7999999999999998,0.0,2.0,-1.0,2.0,0,1,0,0,-0.0239407760620117
7.0,0.0,7.0,0.0,0.0,0.0,0.0,0.0,263.4013295999612,266.9057495999732,,left,0.7044784000026993,268.67458920000354,ri12,263.4013295999612,266.9057495999732,268.67458920000354,,False,5.0,['p'],False,0.24,0.3,0.2,2.0,2.0,0.9003120349047065,-0.0305436800767033,wait_cost,1.0,4.0,,,ri12,1,2023-03-20_13h53.23.493,threat_forest,2021.2.3,60.09893487130529,False,15.0,0.4833333333333333,0.41666666666666663,-0.8977777777777778,-0.9363888888888889,0,0,0.0,-0.3502976081521826,-0.0305436800767033,0.24,0.24,0.3,0.2,-0.3999999999999999,-0.24,4.76,4.76,0.0,2.0,-1.0,5.0,0,1,0,0,-0.0305436800767033
7.0,0.0,7.0,0.0,1.0,0.0,1.0,0.0,,,,left,1.6692286999896169,274.2824990999652,ri12,274.2824990999652,,269.40381889999844,271.41812669998035,True,4.0,['p'],True,0.4444444444444445,0.6666666666666666,0.3333333333333333,1.0,2.0,0.9656336071428248,0.112530937087955,figh_cost,0.0,1.0,271.41812669998035,,ri12,1,2023-03-20_13h53.23.493,threat_forest,2021.2.3,60.09893487130529,True,15.0,0.4833333333333333,0.41666666666666663,-0.8977777777777778,-0.9363888888888889,1,1,1.0,0.5123616634465521,0.112530937087955,0.4444444444444445,0.4444444444444445,0.6666666666666666,0.3333333333333333,0.6666666666666665,0.4444444444444444,4.444444444444445,4.444444444444445,1.0,2.0,-1.0,4.0,0,1,1,1,0.112530937087955
7.0,0.0,7.0,0.0,2.0,0.0,2.0,0.0,,,,left,0.6697826000163332,281.7754098000005,ri12,281.7754098000005,,269.40381889999844,271.41812669998035,True,1.0,['p'],True,0.4444444444444445,0.6666666666666666,0.3333333333333333,1.0,2.0,0.9656336071428248,0.1942183425968263,succ_gain,0.0,3.0,277.9952427999815,,ri12,1,2023-03-20_13h53.23.493,threat_forest,2021.2.3,60.09893487130529,True,15.0,0.4833333333333333,0.41666666666666663,-0.8977777777777778,-0.9363888888888889,1,1,1.0,-0.40080209683893053,0.1942183425968263,1.0,0.4444444444444445,0.6666666666666666,0.3333333333333333,0.6666666666666665,0.4444444444444444,1.4444444444444444,1.4444444444444444,1.0,2.0,-1.0,1.0,1,1,1,1,0.625
7.0,0.0,7.0,0.0,3.0,0.0,3.0,0.0,,,,left,1.4473370999912731,287.1870049999561,ri12,287.1870049999561,,269.40381889999844,271.41812669998035,True,3.0,['p'],True,0.4444444444444445,0.6666666666666666,0.3333333333333333,1.0,2.0,0.9656336071428248,0.0873158750190519,unsucc_cost,0.0,1.0,284.48965090001,,ri12,1,2023-03-20_13h53.23.493,threat_forest,2021.2.3,60.09893487130529,True,15.0,0.4833333333333333,0.41666666666666663,-0.8977777777777778,-0.9363888888888889,1,1,1.0,0.36972538526590737,0.0873158750190519,0.4444444444444445,0.4444444444444445,0.6666666666666666,0.3333333333333333,0.6666666666666665,0.4444444444444444,3.4444444444444446,3.4444444444444446,1.0,2.0,1.0,3.0,0,1,1,1,0.0873158750190519
7.0,0.0,7.0,0.0,4.0,0.0,4.0,0.0,,,,right,1.2628930999781005,293.4010532000102,ri12,288.65241189999506,290.6668750999961,293.4010532000102,,True,1.0,['p'],False,0.24,0.3,0.2,2.0,2.0,0.9003120349047065,0.1142565925925925,succ_gain,1.0,3.0,290.6668750999961,,ri12,1,2023-03-20_13h53.23.493,threat_forest,2021.2.3,60.09893487130529,True,15.0,0.4833333333333333,0.41666666666666663,-0.8977777777777778,-0.9363888888888889,0,0,1.0,0.23340520002223283,0.1142565925925925,1.0,0.24,0.3,0.2,-0.3999999999999999,-0.24,0.76,1.0,0.0,2.0,-1.0,1.0,1,1,0,0,0.625
7.0,0.0,7.0,0.0,5.0,0.0,5.0,0.0,,,,left,2.0931168000097387,297.8272453999962,ri12,288.65241189999506,290.6668750999961,297.8272453999962,,False,3.0,['p'],False,0.24,0.3,0.2,2.0,2.0,0.9003120349047065,0.0383111111111111,wait_cost,1.0,2.0,296.7111954999855,,ri12,1,2023-03-20_13h53.23.493,threat_forest,2021.2.3,60.09893487130529,False,15.0,0.4833333333333333,0.41666666666666663,-0.8977777777777778,-0.9363888888888889,0,0,0.0,0.7386542469759714,0.0383111111111111,0.24,0.24,0.3,0.2,-0.3999999999999999,-0.24,2.76,2.76,0.0,2.0,1.0,3.0,0,1,0,0,0.0383111111111111
7.0,0.0,7.0,0.0,6.0,0.0,6.0,0.0,,,,left,1.070642400009092,303.871519599983,ri12,288.65241189999506,290.6668750999961,303.871519599983,,False,2.0,['p'],False,0.24,0.3,0.2,2.0,2.0,0.9003120349047065,-0.1022222222222222,wait_cost,1.0,1.0,301.95632629998727,,ri12,1,2023-03-20_13h53.23.493,threat_forest,2021.2.3,60.09893487130529,False,15.0,0.4833333333333333,0.41666666666666663,-0.8977777777777778,-0.9363888888888889,0,0,0.0,0.06825884216181581,-0.1022222222222222,0.24,0.24,0.3,0.2,-0.3999999999999999,-0.24,1.76,1.76,0.0,2.0,-1.0,2.0,0,1,0,0,-0.1022222222222222
7.0,0.0,7.0,0.0,7.0,0.0,7.0,0.0,,,,right,0.5397492999909446,308.4172603999614,ri12,288.65241189999506,290.6668750999961,308.4172603999614,,True,1.0,['p'],False,0.24,0.3,0.2,2.0,2.0,0.9003120349047065,0.24,unsucc_cost,1.0,0.0,306.985049699957,,ri12,1,2023-03-20_13h53.23.493,threat_forest,2021.2.3,60.09893487130529,True,15.0,0.4833333333333333,0.41666666666666663,-0.8977777777777778,-0.9363888888888889,0,0,1.0,-0.6166505065015498,0.24,1.0,0.24,0.3,0.2,-0.3999999999999999,-0.24,0.76,1.0,0.0,2.0,-1.0,1.0,1,1,0,0,0.625
8.0,0.0,8.0,0.0,0.0,0.0,0.0,0.0,312.5379504999728,316.0431677000015,,right,0.6465271000051871,317.2926448999788,ri12,312.5379504999728,316.0431677000015,317.2926448999788,,True,4.0,['r'],False,0.6,0.6,0.0,0.0,2.0,0.6126016192893442,0.1103326303155006,succ_gain,1.0,6.0,,,ri12,1,2023-03-20_13h53.23.493,threat_forest,2021.2.3,60.09893487130529,True,47.0,0.6333333333333333,0.5583333333333333,-0.07777777777777783,-0.4877777777777778,1,1,1.0,-0.43614016362062924,0.1103326303155006,0.6,0.6,0.6,0.0,1.4,1.4,5.4,5.4,0.0,2.0,-1.0,4.0,0,1,1,1,0.1103326303155006
8.0,0.0,8.0,0.0,1.0,0.0,1.0,0.0,,,,left,0.7243598999921232,322.49094909999985,ri12,322.49094909999985,,317.95838919997914,319.9728373999824,True,6.0,['r'],True,0.4444444444444445,0.6666666666666666,0.3333333333333333,2.0,2.0,0.9656336071428248,-0.0843219852156683,figh_cost,0.0,3.0,319.9728373999824,,ri12,1,2023-03-20_13h53.23.493,threat_forest,2021.2.3,60.09893487130529,True,47.0,0.6333333333333333,0.5583333333333333,-0.07777777777777783,-0.4877777777777778,0,0,1.0,-0.3224669106727809,-0.0843219852156683,0.4444444444444445,0.4444444444444445,0.6666666666666666,0.3333333333333333,0.6666666666666665,0.4444444444444444,6.444444444444445,6.444444444444445,1.0,2.0,1.0,6.0,0,1,0,0,-0.0843219852156683
8.0,0.0,8.0,0.0,2.0,0.0,2.0,0.0,,,,left,1.5911246999748982,328.3819048999576,ri12,328.3819048999576,,317.95838919997914,319.9728373999824,True,3.0,['r'],True,0.4444444444444445,0.6666666666666666,0.3333333333333333,2.0,2.0,0.9656336071428248,0.0338906035665295,figh_cost,0.0,0.0,325.2511800999637,,ri12,1,2023-03-20_13h53.23.493,threat_forest,2021.2.3,60.09893487130529,True,47.0,0.6333333333333333,0.5583333333333333,-0.07777777777777783,-0.4877777777777778,0,0,1.0,0.46444112464682746,0.0338906035665295,0.4444444444444445,0.4444444444444445,0.6666666666666666,0.3333333333333333,0.6666666666666665,0.4444444444444444,3.4444444444444446,3.4444444444444446,1.0,2.0,-1.0,3.0,0,1,0,0,0.0338906035665295
9.0,0.0,9.0,0.0,0.0,0.0,0.0,0.0,334.3691780999652,337.8727846000111,,left,1.2139738000114448,339.25696969998535,ri12,334.3691780999652,337.8727846000111,339.25696969998535,,False,5.0,['p'],False,0.21875,0.25,0.125,1.0,1.0,0.7908280489481783,-0.003347083026002,wait_cost,1.0,4.0,,,ri12,1,2023-03-20_13h53.23.493,threat_forest,2021.2.3,60.09893487130529,False,61.0,0.325,0.47916666666666663,-1.354375,-0.716076388888889,0,0,0.0,0.19389911086524947,-0.003347083026002,0.21875,0.21875,0.25,0.125,-0.625,-0.46875,4.53125,4.53125,0.0,1.0,-1.0,5.0,0,1,0,0,-0.003347083026002
9.0,0.0,9.0,0.0,1.0,0.0,1.0,0.0,,,,left,0.9883938999846578,345.63263070001267,ri12,345.63263070001267,,340.4874442999717,342.5018124000053,True,4.0,['p'],True,0.32,0.4,0.2,1.0,1.0,0.9455672104350704,0.0367450763052585,figh_cost,0.0,1.0,342.5018124000053,,ri12,1,2023-03-20_13h53.23.493,threat_forest,2021.2.3,60.09893487130529,True,61.0,0.325,0.47916666666666663,-1.354375,-0.716076388888889,0,0,1.0,-0.011673976492697987,0.0367450763052585,0.32,0.32,0.4,0.2,-0.3999999999999999,-0.24,3.76,3.76,1.0,1.0,-1.0,4.0,0,1,0,0,0.0367450763052585
9.0,0.0,9.0,0.0,2.0,0.0,2.0,0.0,,,,left,0.8394419000251219,351.9599046999938,ri12,351.9599046999938,,340.4874442999717,342.5018124000053,True,1.0,['p'],True,0.32,0.4,0.2,1.0,1.0,0.9455672104350704,0.02941247045,succ_gain,0.0,2.0,348.6626658999594,,ri12,1,2023-03-20_13h53.23.493,threat_forest,2021.2.3,60.09893487130529,True,61.0,0.325,0.47916666666666663,-1.354375,-0.716076388888889,0,0,1.0,-0.17501801269141176,0.02941247045,1.0,0.32,0.4,0.2,-0.3999999999999999,-0.24,0.76,1.0,1.0,1.0,-1.0,1.0,1,1,0,0,0.625
9.0,0.0,9.0,0.0,3.0,0.0,3.0,0.0,,,,left,1.330966100038495,356.8898754999973,ri12,352.8258186999592,354.8403035000083,356.8898754999973,,False,2.0,['p'],False,0.21875,0.25,0.125,1.0,1.0,0.7908280489481783,-0.0079824741210937,wait_cost,1.0,1.0,354.8403035000083,,ri12,1,2023-03-20_13h53.23.493,threat_forest,2021.2.3,60.09893487130529,False,61.0,0.325,0.47916666666666663,-1.354375,-0.716076388888889,0,0,0.0,0.2859050695457915,-0.0079824741210937,0.21875,0.21875,0.25,0.125,-0.625,-0.46875,1.53125,1.53125,0.0,1.0,1.0,2.0,0,1,0,0,-0.0079824741210937
9.0,0.0,9.0,0.0,4.0,0.0,4.0,0.0,,,,right,0.4028452000347897,363.149464099959,ri12,352.8258186999592,354.8403035000083,363.149464099959,,True,1.0,['p'],False,0.21875,0.25,0.125,1.0,1.0,0.7908280489481783,0.0644628906249999,figh_cost,1.0,0.0,360.2524663999793,,ri12,1,2023-03-20_13h53.23.493,threat_forest,2021.2.3,60.09893487130529,True,61.0,0.325,0.47916666666666663,-1.354375,-0.716076388888889,0,0,1.0,-0.9092029098484353,0.0644628906249999,1.0,0.21875,0.25,0.125,-0.625,-0.46875,0.53125,1.0,0.0,1.0,-1.0,1.0,1,1,0,0,0.625
10.0,0.0,10.0,0.0,0.0,0.0,0.0,0.0,366.88435199996457,370.39243780000834,,left,1.325282600009814,371.2252825999749,ri12,366.88435199996457,370.39243780000834,371.2252825999749,,False,5.0,['r'],False,0.2222222222222222,0.6666666666666666,0.6666666666666666,2.0,1.0,0.77250688571426,-0.0048205313257853,wait_cost,1.0,4.0,,,ri12,1,2023-03-20_13h53.23.493,threat_forest,2021.2.3,60.09893487130529,False,20.0,0.4583333333333333,0.39166666666666666,-1.625,-1.4896875,0,0,0.0,0.2816257197228691,-0.0048205313257853,0.2222222222222222,0.2222222222222222,0.6666666666666666,0.6666666666666666,-1.0,-1.0,4.0,4.0,0.0,1.0,-1.0,5.0,0,1,0,0,-0.0048205313257853
10.0,0.0,10.0,0.0,1.0,0.0,1.0,0.0,,,,left,1.5732514999690466,376.7867342999671,ri12,366.88435199996457,370.39243780000834,376.7867342999671,,False,4.0,['r'],False,0.2222222222222222,0.6666666666666666,0.6666666666666666,2.0,1.0,0.77250688571426,0.0061034189800591,wait_cost,1.0,3.0,374.58858209999744,,ri12,1,2023-03-20_13h53.23.493,threat_forest,2021.2.3,60.09893487130529,False,20.0,0.4583333333333333,0.39166666666666666,-1.625,-1.4896875,0,0,0.0,0.4531444968451071,0.0061034189800591,0.2222222222222222,0.2222222222222222,0.6666666666666666,0.6666666666666666,-1.0,-1.0,3.0,3.0,0.0,1.0,-1.0,4.0,0,1,0,0,0.0061034189800591
10.0,0.0,10.0,0.0,2.0,0.0,2.0,0.0,,,,left,1.2919254999724217,383.4171896000044,ri12,383.4171896000044,,378.3852216000087,380.39971259998856,True,3.0,['r'],True,0.25,0.25,0.0,0.0,1.0,0.5118595071429148,0.0232278910774843,unsucc_cost,0.0,1.0,380.39971259998856,,ri12,1,2023-03-20_13h53.23.493,threat_forest,2021.2.3,60.09893487130529,True,20.0,0.4583333333333333,0.39166666666666666,-1.625,-1.4896875,1,0,1.0,0.2561337411378156,0.0232278910774843,0.25,0.25,0.25,0.0,-0.25,-0.25,2.75,2.75,1.0,1.0,-1.0,3.0,0,1,0,1,0.0232278910774843
10.0,0.0,10.0,0.0,3.0,0.0,3.0,0.0,,,,right,1.240383500000462,389.8078787999693,ri12,384.7293400999624,386.7437866000109,389.8078787999693,,True,1.0,['r'],False,0.2222222222222222,0.6666666666666666,0.6666666666666666,2.0,1.0,0.77250688571426,0.0177225032388355,figh_cost,1.0,0.0,386.7437866000109,,ri12,1,2023-03-20_13h53.23.493,threat_forest,2021.2.3,60.09893487130529,True,20.0,0.4583333333333333,0.39166666666666666,-1.625,-1.4896875,0,0,1.0,0.21542060599546137,0.0177225032388355,1.0,0.2222222222222222,0.6666666666666666,0.6666666666666666,-1.0,-1.0,0.0,1.0,0.0,1.0,-1.0,1.0,1,1,0,0,0.625
11.0,0.0,11.0,0.0,0.0,0.0,0.0,0.0,393.7465533000068,397.2507286999608,,right,1.2260380999650806,400.3170473999926,ri12,400.3170473999926,,393.7465533000068,397.2507286999608,False,4.0,['r'],True,0.28125,0.375,0.25,2.0,2.0,0.9634951148421658,-0.0007636143604934,wait_cost,0.0,3.0,,,ri12,1,2023-03-20_13h53.23.493,threat_forest,2021.2.3,60.09893487130529,False,10.0,0.35416666666666663,0.40625,-0.8958333333333335,-1.2604166666666667,1,0,0.0,0.2037879136747728,-0.0007636143604934,0.28125,0.28125,0.375,0.25,-0.25,-0.125,3.875,3.875,1.0,2.0,-1.0,4.0,0,1,0,1,-0.0007636143604934
11.0,0.0,11.0,0.0,1.0,0.0,1.0,0.0,,,,right,1.1377215000102296,406.4104872999597,ri12,401.5637236000039,403.57814479997614,406.4104872999597,,True,3.0,['r'],False,0.3333333333333333,0.3333333333333333,0.0,0.0,2.0,0.5793801642856949,0.1051879490716752,unsucc_cost,1.0,1.0,403.57814479997614,,ri12,1,2023-03-20_13h53.23.493,threat_forest,2021.2.3,60.09893487130529,True,10.0,0.35416666666666663,0.40625,-0.8958333333333335,-1.2604166666666667,1,0,1.0,0.12902757817017957,0.1051879490716752,0.3333333333333333,0.3333333333333333,0.3333333333333333,0.0,0.33333333333333315,0.33333333333333315,3.333333333333333,3.333333333333333,0.0,2.0,-1.0,3.0,0,1,0,1,0.1051879490716752
11.0,0.0,11.0,0.0,2.0,0.0,2.0,0.0,,,,right,0.5315044000162743,412.68643209995935,ri12,401.5637236000039,403.57814479997614,412.68643209995935,,True,1.0,['r'],False,0.3333333333333333,0.3333333333333333,0.0,0.0,2.0,0.5793801642856949,0.1304442796687529,unsucc_cost,1.0,0.0,409.5891925999895,,ri12,1,2023-03-20_13h53.23.493,threat_forest,2021.2.3,60.09893487130529,True,10.0,0.35416666666666663,0.40625,-0.8958333333333335,-1.2604166666666667,1,0,1.0,-0.6320438027465848,0.1304442796687529,1.0,0.3333333333333333,0.3333333333333333,0.0,0.33333333333333315,0.33333333333333315,1.333333333333333,1.333333333333333,0.0,2.0,-1.0,1.0,1,1,0,1,0.625
12.0,0.0,12.0,0.0,0.0,0.0,0.0,0.0,417.82329599995865,421.32824669999536,,right,0.5135409000213258,423.2633266999619,ri12,417.82329599995865,421.32824669999536,423.2633266999619,,True,5.0,['r'],False,0.4081632653061224,0.5714285714285714,0.2857142857142857,2.0,2.0,0.9885754083994552,-0.0170150236195817,figh_cost,1.0,2.0,,,ri12,1,2023-03-20_13h53.23.493,threat_forest,2021.2.3,60.09893487130529,True,14.0,0.5357142857142857,0.44494047619047616,-0.326530612244898,-0.6111819727891157,0,0,1.0,-0.6664256032793877,-0.0170150236195817,0.4081632653061224,0.4081632653061224,0.5714285714285714,0.2857142857142857,0.4285714285714285,0.346938775510204,5.346938775510204,5.346938775510204,0.0,2.0,-1.0,5.0,0,1,0,0,-0.0170150236195817
12.0,0.0,12.0,0.0,1.0,0.0,1.0,0.0,,,,right,1.3136975999805145,429.3710736999637,ri12,417.82329599995865,421.32824669999536,429.3710736999637,,True,2.0,['r'],False,0.4081632653061224,0.5714285714285714,0.2857142857142857,2.0,2.0,0.9885754083994552,-0.0037991231674081,unsucc_cost,1.0,0.0,425.8073274999624,,ri12,1,2023-03-20_13h53.23.493,threat_forest,2021.2.3,60.09893487130529,True,14.0,0.5357142857142857,0.44494047619047616,-0.326530612244898,-0.6111819727891157,0,0,1.0,0.272845756575705,-0.0037991231674081,0.4081632653061224,0.4081632653061224,0.5714285714285714,0.2857142857142857,0.4285714285714285,0.346938775510204,2.3469387755102042,2.3469387755102042,0.0,2.0,-1.0,2.0,0,1,0,0,-0.0037991231674081
13.0,0.0,13.0,0.0,0.0,0.0,0.0,0.0,436.0561800999567,439.5611639000126,,left,1.346217099984642,442.0428269999684,ri12,442.0428269999684,,436.0561800999567,439.5611639000126,True,5.0,['p'],True,0.4444444444444445,0.6666666666666666,0.3333333333333333,1.0,1.0,0.9656336071428248,0.0467066160950204,succ_gain,0.0,6.0,,,ri12,1,2023-03-20_13h53.23.493,threat_forest,2021.2.3,60.09893487130529,True,57.0,0.4583333333333333,0.49702380952380953,-1.34375,-0.8351403061224489,0,0,1.0,0.29729851092402354,0.0467066160950204,0.4444444444444445,0.4444444444444445,0.6666666666666666,0.3333333333333333,0.0,0.0,5.0,5.0,1.0,1.0,-1.0,5.0,0,1,0,0,0.0467066160950204
13.0,0.0,13.0,0.0,1.0,0.0,1.0,0.0,,,,right,1.0531224999576807,447.1877275999868,ri12,447.1877275999868,,436.0561800999567,439.5611639000126,False,6.0,['p'],True,0.4444444444444445,0.6666666666666666,0.3333333333333333,1.0,1.0,0.9656336071428248,-0.1291110239765378,wait_cost,0.0,5.0,445.4223672999651,,ri12,1,2023-03-20_13h53.23.493,threat_forest,2021.2.3,60.09893487130529,False,57.0,0.4583333333333333,0.49702380952380953,-1.34375,-0.8351403061224489,0,0,0.0,0.05175956062834687,-0.1291110239765378,0.4444444444444445,0.4444444444444445,0.6666666666666666,0.3333333333333333,0.0,0.0,6.0,6.0,1.0,1.0,1.0,6.0,0,1,0,0,-0.1291110239765378
13.0,0.0,13.0,0.0,2.0,0.0,2.0,0.0,,,,left,1.4922529999748804,453.4019211999839,ri12,448.2699969999958,450.2844631999615,453.4019211999839,,False,5.0,['p'],False,0.1875,0.25,0.25,2.0,1.0,0.895754137500101,-0.1297984377601274,wait_cost,1.0,4.0,450.2844631999615,,ri12,1,2023-03-20_13h53.23.493,threat_forest,2021.2.3,60.09893487130529,False,57.0,0.4583333333333333,0.49702380952380953,-1.34375,-0.8351403061224489,0,0,0.0,0.4002870584347675,-0.1297984377601274,0.1875,0.1875,0.25,0.25,-1.0,-0.6875,4.3125,4.3125,0.0,1.0,-1.0,5.0,0,1,0,0,-0.1297984377601274
13.0,0.0,13.0,0.0,3.0,0.0,3.0,0.0,,,,left,1.3447328999754973,459.4096940999734,ri12,448.2699969999958,450.2844631999615,459.4096940999734,,False,4.0,['p'],False,0.1875,0.25,0.25,2.0,1.0,0.895754137500101,-0.1184235875008037,wait_cost,1.0,3.0,456.92825739999535,,ri12,1,2023-03-20_13h53.23.493,threat_forest,2021.2.3,60.09893487130529,False,57.0,0.4583333333333333,0.49702380952380953,-1.34375,-0.8351403061224489,0,0,0.0,0.29619540595390553,-0.1184235875008037,0.1875,0.1875,0.25,0.25,-1.0,-0.6875,3.3125,3.3125,0.0,1.0,-1.0,4.0,0,1,0,0,-0.1184235875008037
13.0,0.0,13.0,0.0,4.0,0.0,4.0,0.0,,,,left,1.3997294000000693,465.5039787999704,ri12,448.2699969999958,450.2844631999615,465.5039787999704,,False,3.0,['p'],False,0.1875,0.25,0.25,2.0,1.0,0.895754137500101,-0.1251322428385416,wait_cost,1.0,2.0,462.79303150001215,,ri12,1,2023-03-20_13h53.23.493,threat_forest,2021.2.3,60.09893487130529,False,57.0,0.4583333333333333,0.49702380952380953,-1.34375,-0.8351403061224489,0,0,0.0,0.3362789322248857,-0.1251322428385416,0.1875,0.1875,0.25,0.25,-1.0,-0.6875,2.3125,2.3125,0.0,1.0,-1.0,3.0,0,1,0,0,-0.1251322428385416
13.0,0.0,13.0,0.0,5.0,0.0,5.0,0.0,,,,left,0.7661638000281528,472.6309033999569,ri12,472.6309033999569,,466.9359516999684,468.95047649997286,True,2.0,['p'],True,0.4444444444444445,0.6666666666666666,0.3333333333333333,1.0,1.0,0.9656336071428248,0.1284722222222222,succ_gain,0.0,3.0,468.95047649997286,,ri12,1,2023-03-20_13h53.23.493,threat_forest,2021.2.3,60.09893487130529,True,57.0,0.4583333333333333,0.49702380952380953,-1.34375,-0.8351403061224489,0,0,1.0,-0.2663592939448082,0.1284722222222222,0.4444444444444445,0.4444444444444445,0.6666666666666666,0.3333333333333333,0.0,0.0,2.0,2.0,1.0,1.0,-1.0,2.0,0,1,0,0,0.1284722222222222
13.0,0.0,13.0,0.0,6.0,0.0,6.0,0.0,,,,left,1.0430050999857483,477.7954680999974,ri12,473.4298725000117,475.4442737000063,477.7954680999974,,False,3.0,['p'],False,0.1875,0.25,0.25,2.0,1.0,0.895754137500101,-0.634765625,wait_cost,1.0,2.0,475.4442737000063,,ri12,1,2023-03-20_13h53.23.493,threat_forest,2021.2.3,60.09893487130529,False,57.0,0.4583333333333333,0.49702380952380953,-1.34375,-0.8351403061224489,0,0,0.0,0.042106065734147935,-0.634765625,0.0,0.1875,0.25,0.25,-1.0,-0.6875,2.3125,2.3125,0.0,1.0,1.0,3.0,0,0,0,0,-0.84
13.0,0.0,13.0,0.0,7.0,0.0,7.0,0.0,,,,left,0.6621338999830186,481.87206129997503,ri12,473.4298725000117,475.4442737000063,481.87206129997503,,False,2.0,['p'],False,0.1875,0.25,0.25,2.0,1.0,0.895754137500101,-0.8125,wait_cost,1.0,1.0,480.8725757999928,,ri12,1,2023-03-20_13h53.23.493,threat_forest,2021.2.3,60.09893487130529,False,57.0,0.4583333333333333,0.49702380952380953,-1.34375,-0.8351403061224489,0,0,0.0,-0.41228747766272944,-0.8125,0.0,0.1875,0.25,0.25,-1.0,-0.6875,1.3125,1.3125,0.0,1.0,-1.0,2.0,0,0,0,0,-0.84
14.0,0.0,14.0,0.0,0.0,0.0,0.0,0.0,486.5815770999761,490.0759703000076,,right,1.231890700000804,492.6785279999604,ri12,486.5815770999761,490.0759703000076,492.6785279999604,,True,4.0,['p'],False,0.375,0.5,0.25,1.0,1.0,0.9850568223215076,0.0292062806120119,succ_gain,1.0,5.0,,,ri12,1,2023-03-20_13h53.23.493,threat_forest,2021.2.3,60.09893487130529,True,9.0,0.4,0.4291666666666667,-1.3025,-1.323125,1,0,1.0,0.20855014364388003,0.0292062806120119,0.375,0.375,0.5,0.25,-0.25,-0.125,3.875,3.875,0.0,1.0,-1.0,4.0,0,1,0,1,0.0292062806120119
14.0,0.0,14.0,0.0,1.0,0.0,1.0,0.0,,,,right,1.6773068999755196,498.6230105999857,ri12,486.5815770999761,490.0759703000076,498.6230105999857,,True,5.0,['p'],False,0.375,0.5,0.25,1.0,1.0,0.9850568223215076,0.0499017795041382,succ_gain,1.0,6.0,495.941904999956,,ri12,1,2023-03-20_13h53.23.493,threat_forest,2021.2.3,60.09893487130529,True,9.0,0.4,0.4291666666666667,-1.3025,-1.323125,1,0,1.0,0.5171894714497637,0.0499017795041382,0.375,0.375,0.5,0.25,-0.25,-0.125,4.875,4.875,0.0,1.0,1.0,5.0,0,1,0,1,0.0499017795041382
14.0,0.0,14.0,0.0,2.0,0.0,2.0,0.0,,,,left,0.7727639999939129,503.30207370000426,ri12,486.5815770999761,490.0759703000076,503.30207370000426,,False,6.0,['p'],False,0.375,0.5,0.25,1.0,1.0,0.9850568223215076,0.0598029951416015,wait_cost,1.0,5.0,502.3359307000064,,ri12,1,2023-03-20_13h53.23.493,threat_forest,2021.2.3,60.09893487130529,False,9.0,0.4,0.4291666666666667,-1.3025,-1.323125,1,0,0.0,-0.2577815810276988,0.0598029951416015,0.375,0.375,0.5,0.25,-0.25,-0.125,5.875,5.875,0.0,1.0,1.0,6.0,0,1,0,1,0.0598029951416015
14.0,0.0,14.0,0.0,3.0,0.0,3.0,0.0,,,,left,1.898461300006602,509.6128073,ri12,486.5815770999761,490.0759703000076,509.6128073,,False,5.0,['p'],False,0.375,0.5,0.25,1.0,1.0,0.9850568223215076,0.0607207880859375,wait_cost,1.0,4.0,506.11582229996566,,ri12,1,2023-03-20_13h53.23.493,threat_forest,2021.2.3,60.09893487130529,False,9.0,0.4,0.4291666666666667,-1.3025,-1.323125,1,0,0.0,0.6410437159713404,0.0607207880859375,0.375,0.375,0.5,0.25,-0.25,-0.125,4.875,4.875,0.0,1.0,-1.0,5.0,0,1,0,1,0.0607207880859375
14.0,0.0,14.0,0.0,4.0,0.0,4.0,0.0,,,,right,1.1092690999503247,517.2949050999596,ri12,517.2949050999596,,511.5447309999727,513.5588339999667,False,4.0,['p'],True,0.24,0.3,0.2,2.0,1.0,0.9003120349047065,0.000830625,wait_cost,0.0,3.0,513.5588339999667,,ri12,1,2023-03-20_13h53.23.493,threat_forest,2021.2.3,60.09893487130529,False,9.0,0.4,0.4291666666666667,-1.3025,-1.323125,0,0,0.0,0.1037013299254169,0.000830625,0.24,0.24,0.3,0.2,-0.7,-0.48,3.52,3.52,1.0,1.0,-1.0,4.0,0,1,0,0,0.000830625
14.0,0.0,14.0,0.0,5.0,0.0,5.0,0.0,,,,right,1.403093600005377,522.3676221999922,ri12,522.3676221999922,,511.5447309999727,513.5588339999667,False,3.0,['p'],True,0.24,0.3,0.2,2.0,1.0,0.9003120349047065,0.0709499999999999,wait_cost,0.0,2.0,520.4356946999906,,ri12,1,2023-03-20_13h53.23.493,threat_forest,2021.2.3,60.09893487130529,False,9.0,0.4,0.4291666666666667,-1.3025,-1.323125,0,0,0.0,0.3386795130827557,0.0709499999999999,0.24,0.24,0.3,0.2,-0.7,-0.48,2.52,2.52,1.0,1.0,-1.0,3.0,0,1,0,0,0.0709499999999999
14.0,0.0,14.0,0.0,6.0,0.0,6.0,0.0,,,,right,1.0864622000372035,529.5110018999549,ri12,529.5110018999549,,511.5447309999727,513.5588339999667,False,2.0,['p'],True,0.24,0.3,0.2,2.0,1.0,0.9003120349047065,-0.0675,wait_cost,0.0,1.0,525.8140002999571,,ri12,1,2023-03-20_13h53.23.493,threat_forest,2021.2.3,60.09893487130529,False,9.0,0.4,0.4291666666666667,-1.3025,-1.323125,0,0,0.0,0.08292672953132563,-0.0675,0.24,0.24,0.3,0.2,-0.7,-0.48,1.52,1.52,1.0,1.0,-1.0,2.0,0,1,0,0,-0.0675
14.0,0.0,14.0,0.0,7.0,0.0,7.0,0.0,,,,left,1.467927600024268,536.0885464999592,ri12,536.0885464999592,,511.5447309999727,513.5588339999667,True,1.0,['p'],True,0.24,0.3,0.2,2.0,1.0,0.9003120349047065,0.24,unsucc_cost,0.0,0.0,532.641016300011,,ri12,1,2023-03-20_13h53.23.493,threat_forest,2021.2.3,60.09893487130529,True,9.0,0.4,0.4291666666666667,-1.3025,-1.323125,0,0,1.0,0.38385161019155406,0.24,1.0,0.24,0.3,0.2,-0.7,-0.48,0.52,1.0,1.0,1.0,-1.0,1.0,1,1,0,0,0.625
15.0,0.0,15.0,0.0,0.0,0.0,0.0,0.0,541.586862199998,545.0960001999629,,left,1.3152430999907665,546.5456794999773,ri12,546.5456794999773,,541.586862199998,545.0960001999629,True,5.0,['r'],True,0.3333333333333333,0.3333333333333333,0.0,0.0,1.0,0.5793801642856949,0.0363479425877699,unsucc_cost,0.0,3.0,,,ri12,1,2023-03-20_13h53.23.493,threat_forest,2021.2.3,60.09893487130529,True,43.0,0.41666666666666663,0.4083333333333333,-1.375,-1.33875,1,0,1.0,0.2740215154570762,0.0363479425877699,0.3333333333333333,0.3333333333333333,0.3333333333333333,0.0,-2.220446049250313e-16,-2.220446049250313e-16,5.0,5.0,1.0,1.0,-1.0,5.0,0,1,0,1,0.0363479425877699
15.0,0.0,15.0,0.0,1.0,0.0,1.0,0.0,,,,left,1.8434379000100307,551.4738451999729,ri12,547.8936749999993,549.9082433999865,551.4738451999729,,False,3.0,['r'],False,0.25,0.5,0.5,2.0,1.0,0.9463946303571862,0.0077793451003086,wait_cost,1.0,2.0,549.9082433999865,,ri12,1,2023-03-20_13h53.23.493,threat_forest,2021.2.3,60.09893487130529,False,43.0,0.41666666666666663,0.4083333333333333,-1.375,-1.33875,0,0,0.0,0.611632252206605,0.0077793451003086,0.25,0.25,0.5,0.5,-1.0,-0.75,2.25,2.25,0.0,1.0,-1.0,3.0,0,1,0,0,0.0077793451003086
15.0,0.0,15.0,0.0,2.0,0.0,2.0,0.0,,,,left,1.5761645000311546,557.601535099966,ri12,547.8936749999993,549.9082433999865,557.601535099966,,False,2.0,['r'],False,0.25,0.5,0.5,2.0,1.0,0.9463946303571862,0.0095154562114198,wait_cost,1.0,1.0,555.3531807999825,,ri12,1,2023-03-20_13h53.23.493,threat_forest,2021.2.3,60.09893487130529,False,43.0,0.41666666666666663,0.4083333333333333,-1.375,-1.33875,0,0,0.0,0.45499436418101985,0.0095154562114198,0.25,0.25,0.5,0.5,-1.0,-0.75,1.25,1.25,0.0,1.0,-1.0,2.0,0,1,0,0,0.0095154562114198
15.0,0.0,15.0,0.0,3.0,0.0,3.0,0.0,,,,right,0.9259056999580936,563.2793825999834,ri12,547.8936749999993,549.9082433999865,563.2793825999834,,True,1.0,['r'],False,0.25,0.5,0.5,2.0,1.0,0.9463946303571862,0.0310149016203703,unsucc_cost,1.0,0.0,561.2143275999697,,ri12,1,2023-03-20_13h53.23.493,threat_forest,2021.2.3,60.09893487130529,True,43.0,0.41666666666666663,0.4083333333333333,-1.375,-1.33875,0,0,1.0,-0.07698288541997189,0.0310149016203703,1.0,0.25,0.5,0.5,-1.0,-0.75,0.25,1.0,0.0,1.0,-1.0,1.0,1,1,0,0,0.625
16.0,0.0,16.0,0.0,0.0,0.0,0.0,0.0,567.5362283999566,571.0273291000049,,left,0.9835413999971934,572.154469400004,ri12,572.154469400004,,567.5362283999566,571.0273291000049,True,4.0,['r'],True,0.4285714285714285,0.4285714285714285,0.0,0.0,2.0,0.6216097450797565,0.0515952580137115,unsucc_cost,0.0,2.0,,,ri12,1,2023-03-20_13h53.23.493,threat_forest,2021.2.3,60.09893487130529,True,52.0,0.43650793650793646,0.4265873015873015,-0.5626102292768962,-0.9688051146384481,1,1,1.0,-0.016595547481584004,0.0515952580137115,0.4285714285714285,0.4285714285714285,0.4285714285714285,0.0,0.714285714285714,0.714285714285714,4.7142857142857135,4.7142857142857135,1.0,2.0,-1.0,4.0,0,1,1,1,0.0515952580137115
16.0,0.0,16.0,0.0,1.0,0.0,1.0,0.0,,,,right,2.689498899970204,578.9172805999988,ri12,573.1701584999682,575.1846455999766,578.9172805999988,,True,2.0,['r'],False,0.345679012345679,0.4444444444444444,0.2222222222222222,2.0,2.0,0.9685033186841367,-0.008006046958214,unsucc_cost,1.0,0.0,575.1846455999766,,ri12,1,2023-03-20_13h53.23.493,threat_forest,2021.2.3,60.09893487130529,True,52.0,0.43650793650793646,0.4265873015873015,-0.5626102292768962,-0.9688051146384481,1,0,1.0,0.989354893722043,-0.008006046958214,0.345679012345679,0.345679012345679,0.4444444444444444,0.2222222222222222,0.11111111111111105,0.16049382716049376,2.1604938271604937,2.1604938271604937,0.0,2.0,-1.0,2.0,0,1,0,1,-0.008006046958214
17.0,0.0,17.0,0.0,0.0,0.0,0.0,0.0,587.1980880000046,590.7034879999701,,left,1.0977476999978537,592.4044408999616,ri12,587.1980880000046,590.7034879999701,592.4044408999616,,False,5.0,['r'],False,0.4081632653061224,0.5714285714285714,0.2857142857142857,2.0,1.0,0.9885754083994552,-0.0004231906775603,wait_cost,1.0,4.0,,,ri12,1,2023-03-20_13h53.23.493,threat_forest,2021.2.3,60.09893487130529,False,35.0,0.5357142857142857,0.48611111111111105,-0.7806122448979592,-0.6716112370874276,0,0,0.0,0.09326053526082322,-0.0004231906775603,0.4081632653061224,0.4081632653061224,0.5714285714285714,0.2857142857142857,-0.1428571428571428,-0.061224489795918435,4.938775510204081,4.938775510204081,0.0,1.0,-1.0,5.0,0,1,0,0,-0.0004231906775603
17.0,0.0,17.0,0.0,1.0,0.0,1.0,0.0,,,,left,1.07682079996448,596.8648250999977,ri12,596.8648250999977,,593.5345760000055,595.5489468000014,True,4.0,['r'],True,0.5,0.5,0.0,0.0,1.0,0.6309297535714574,0.0899569925716803,unsucc_cost,0.0,2.0,595.5489468000014,,ri12,1,2023-03-20_13h53.23.493,threat_forest,2021.2.3,60.09893487130529,True,35.0,0.5357142857142857,0.48611111111111105,-0.7806122448979592,-0.6716112370874276,1,1,1.0,0.07401299618209288,0.0899569925716803,0.5,0.5,0.5,0.0,0.5,0.5,4.5,4.5,1.0,1.0,-1.0,4.0,0,1,1,1,0.0899569925716803
17.0,0.0,17.0,0.0,2.0,0.0,2.0,0.0,,,,left,1.4685072000138462,601.5946956999833,ri12,597.9636708999751,599.9784652999952,601.5946956999833,,False,2.0,['r'],False,0.4081632653061224,0.5714285714285714,0.2857142857142857,2.0,1.0,0.9885754083994552,0.0317505844141454,wait_cost,1.0,1.0,599.9784652999952,,ri12,1,2023-03-20_13h53.23.493,threat_forest,2021.2.3,60.09893487130529,False,35.0,0.5357142857142857,0.48611111111111105,-0.7806122448979592,-0.6716112370874276,0,0,0.0,0.3842463746161533,0.0317505844141454,0.4081632653061224,0.4081632653061224,0.5714285714285714,0.2857142857142857,-0.1428571428571428,-0.061224489795918435,1.9387755102040816,1.9387755102040816,0.0,1.0,-1.0,2.0,0,1,0,0,0.0317505844141454
17.0,0.0,17.0,0.0,3.0,0.0,3.0,0.0,,,,right,0.5542839000117965,606.289458299987,ri12,597.9636708999751,599.9784652999952,606.289458299987,,True,1.0,['r'],False,0.4081632653061224,0.5714285714285714,0.2857142857142857,2.0,1.0,0.9885754083994552,0.1180805612370661,figh_cost,1.0,0.0,605.1067457000026,,ri12,1,2023-03-20_13h53.23.493,threat_forest,2021.2.3,60.09893487130529,True,35.0,0.5357142857142857,0.48611111111111105,-0.7806122448979592,-0.6716112370874276,0,0,1.0,-0.5900782686000821,0.1180805612370661,1.0,0.4081632653061224,0.5714285714285714,0.2857142857142857,-0.1428571428571428,-0.061224489795918435,0.9387755102040816,1.0,0.0,1.0,-1.0,1.0,1,1,0,0,0.625
0.0,0.0,0.0,0.0,0.0,0.0,0.0,0.0,26.25768479995895,29.762980800005607,,left,0.8995980999898165,33.39142539998284,ri12,33.39142539998284,,26.25768479995895,29.762980800005607,True,5.0,['r'],True,0.4,0.4,0.0,0.0,1.0,0.6126016192893442,0.049106757699623,unsucc_cost,0.0,3.0,,,ri12,2,2023-03-20_14h04.18.842,threat_forest,2021.2.3,59.88730405669149,True,36.0,0.41428571428571426,0.475,-1.083673469387755,-0.9321428571428572,1,0,1.0,-0.10580717096032673,0.049106757699623,0.4,0.4,0.4,0.0,0.20000000000000007,0.20000000000000007,5.2,5.2,1.0,1.0,-1.0,5.0,0,1,0,1,0.049106757699623
0.0,0.0,0.0,0.0,1.0,0.0,1.0,0.0,,,,left,1.3063298999913968,39.454249700007495,ri12,39.454249700007495,,26.25768479995895,29.762980800005607,True,3.0,['r'],True,0.4,0.4,0.0,0.0,1.0,0.6126016192893442,0.0583687129956439,unsucc_cost,0.0,1.0,36.32350229995791,,ri12,2,2023-03-20_14h04.18.842,threat_forest,2021.2.3,59.88730405669149,True,36.0,0.41428571428571426,0.475,-1.083673469387755,-0.9321428571428572,1,0,1.0,0.2672216023178601,0.0583687129956439,0.4,0.4,0.4,0.0,0.20000000000000007,0.20000000000000007,3.2,3.2,1.0,1.0,-1.0,3.0,0,1,0,1,0.0583687129956439
0.0,0.0,0.0,0.0,2.0,0.0,2.0,0.0,,,,right,0.7285376000218093,46.25045609998051,ri12,40.78643039998133,42.80084519996308,46.25045609998051,,True,1.0,['r'],False,0.3061224489795918,0.4285714285714285,0.2857142857142857,2.0,1.0,0.9885754083994552,0.0465607782471588,succ_gain,1.0,2.0,42.80084519996308,,ri12,2,2023-03-20_14h04.18.842,threat_forest,2021.2.3,59.88730405669149,True,36.0,0.41428571428571426,0.475,-1.083673469387755,-0.9321428571428572,0,0,1.0,-0.316716041745616,0.0465607782471588,1.0,0.3061224489795918,0.4285714285714285,0.2857142857142857,-0.5714285714285716,-0.36734693877551017,0.6326530612244898,1.0,0.0,1.0,-1.0,1.0,1,1,0,0,0.625
0.0,0.0,0.0,0.0,3.0,0.0,3.0,0.0,,,,left,1.1530556000070646,50.54406679997919,ri12,50.54406679997919,,46.99724699999206,49.01190059998771,True,2.0,['r'],True,0.4,0.4,0.0,0.0,1.0,0.6126016192893442,0.0383203665139525,succ_gain,0.0,3.0,49.01190059998771,,ri12,2,2023-03-20_14h04.18.842,threat_forest,2021.2.3,59.88730405669149,True,36.0,0.41428571428571426,0.475,-1.083673469387755,-0.9321428571428572,1,0,1.0,0.14241546215989245,0.0383203665139525,0.4,0.4,0.4,0.0,0.20000000000000007,0.20000000000000007,2.2,2.2,1.0,1.0,1.0,2.0,0,1,0,1,0.0383203665139525
0.0,0.0,0.0,0.0,4.0,0.0,4.0,0.0,,,,left,1.4977820999920368,56.17447749996791,ri12,51.726306599972304,53.74067279999144,56.17447749996791,,False,3.0,['r'],False,0.3061224489795918,0.4285714285714285,0.2857142857142857,2.0,1.0,0.9885754083994552,-0.0161476085644587,wait_cost,1.0,2.0,53.74067279999144,,ri12,2,2023-03-20_14h04.18.842,threat_forest,2021.2.3,59.88730405669149,False,36.0,0.41428571428571426,0.475,-1.083673469387755,-0.9321428571428572,0,0,0.0,0.4039854138951377,-0.0161476085644587,0.3061224489795918,0.3061224489795918,0.4285714285714285,0.2857142857142857,-0.5714285714285716,-0.36734693877551017,2.63265306122449,2.63265306122449,0.0,1.0,1.0,3.0,0,1,0,0,-0.0161476085644587
0.0,0.0,0.0,0.0,5.0,0.0,5.0,0.0,,,,left,1.203364100016188,60.96755219995976,ri12,60.96755219995976,,57.70385109999916,59.71827099996153,True,2.0,['r'],True,0.4,0.4,0.0,0.0,1.0,0.6126016192893442,0.046938775510204,succ_gain,0.0,3.0,59.71827099996153,,ri12,2,2023-03-20_14h04.18.842,threat_forest,2021.2.3,59.88730405669149,True,36.0,0.41428571428571426,0.475,-1.083673469387755,-0.9321428571428572,1,0,1.0,0.18512105123031591,0.046938775510204,0.4,0.4,0.4,0.0,0.20000000000000007,0.20000000000000007,2.2,2.2,1.0,1.0,-1.0,2.0,0,1,0,1,0.046938775510204
0.0,0.0,0.0,0.0,6.0,0.0,6.0,0.0,,,,right,0.9172757000196724,66.34573070000624,ri12,66.34573070000624,,57.70385109999916,59.71827099996153,False,3.0,['r'],True,0.4,0.4,0.0,0.0,1.0,0.6126016192893442,-0.3881632653061224,wait_cost,0.0,2.0,64.21416809997754,,ri12,2,2023-03-20_14h04.18.842,threat_forest,2021.2.3,59.88730405669149,False,36.0,0.41428571428571426,0.475,-1.083673469387755,-0.9321428571428572,1,0,0.0,-0.08634719758415045,-0.3881632653061224,0.0,0.4,0.4,0.0,0.20000000000000007,0.20000000000000007,3.2,3.2,1.0,1.0,1.0,3.0,0,0,0,1,-0.84
0.0,0.0,0.0,0.0,7.0,0.0,7.0,0.0,,,,right,0.5893164000008255,71.84059859998524,ri12,71.84059859998524,,57.70385109999916,59.71827099996153,False,2.0,['r'],True,0.4,0.4,0.0,0.0,1.0,0.6126016192893442,-0.6,wait_cost,0.0,1.0,69.30933249997906,,ri12,2,2023-03-20_14h04.18.842,threat_forest,2021.2.3,59.88730405669149,False,36.0,0.41428571428571426,0.475,-1.083673469387755,-0.9321428571428572,1,0,0.0,-0.5287920578957328,-0.6,0.0,0.4,0.4,0.0,0.20000000000000007,0.20000000000000007,2.2,2.2,1.0,1.0,-1.0,2.0,0,0,0,1,-0.84
1.0,0.0,1.0,0.0,0.0,0.0,0.0,0.0,77.98613340000156,81.48020009999163,,right,1.276165699993726,84.345603499969,ri12,84.345603499969,,77.98613340000156,81.48020009999163,False,5.0,['r'],True,0.32,0.4,0.2,1.0,2.0,0.9455672104350704,0.02103847866381,wait_cost,0.0,4.0,,,ri12,2,2023-03-20_14h04.18.842,threat_forest,2021.2.3,59.88730405669149,False,12.0,0.3111111111111111,0.3626984126984127,-1.1204938271604938,-1.1020836482741245,1,0,0.0,0.2438600354209097,0.02103847866381,0.32,0.32,0.4,0.2,0.0,0.07999999999999996,5.08,5.08,1.0,2.0,-1.0,5.0,0,1,0,1,0.02103847866381
1.0,0.0,1.0,0.0,1.0,0.0,1.0,0.0,,,,left,1.684726600011345,89.66257990000304,ri12,85.64445939997677,87.65886039996985,89.66257990000304,,False,4.0,['r'],False,0.1975308641975308,0.2222222222222222,0.1111111111111111,1.0,2.0,0.7461067557824965,0.005439477586826,wait_cost,1.0,3.0,87.65886039996985,,ri12,2,2023-03-20_14h04.18.842,threat_forest,2021.2.3,59.88730405669149,False,12.0,0.3111111111111111,0.3626984126984127,-1.1204938271604938,-1.1020836482741245,0,0,0.0,0.5216032954533829,0.005439477586826,0.1975308641975308,0.1975308641975308,0.2222222222222222,0.1111111111111111,-0.4444444444444444,-0.32098765432098775,3.6790123456790123,3.6790123456790123,0.0,2.0,-1.0,4.0,0,1,0,0,0.005439477586826
1.0,0.0,1.0,0.0,2.0,0.0,2.0,0.0,,,,left,1.3028165000141598,96.81729819998144,ri12,96.81729819998144,,91.37263409997104,93.38683589996072,True,3.0,['r'],True,0.32,0.4,0.2,1.0,2.0,0.9455672104350704,0.0970265817877056,unsucc_cost,0.0,1.0,93.38683589996072,,ri12,2,2023-03-20_14h04.18.842,threat_forest,2021.2.3,59.88730405669149,True,12.0,0.3111111111111111,0.3626984126984127,-1.1204938271604938,-1.1020836482741245,1,0,1.0,0.26452845937977715,0.0970265817877056,0.32,0.32,0.4,0.2,0.0,0.07999999999999996,3.08,3.08,1.0,2.0,-1.0,3.0,0,1,0,1,0.0970265817877056
1.0,0.0,1.0,0.0,3.0,0.0,3.0,0.0,,,,left,1.33926540001994,101.3301899000071,ri12,101.3301899000071,,91.37263409997104,93.38683589996072,True,1.0,['r'],True,0.32,0.4,0.2,1.0,2.0,0.9455672104350704,0.1313020527358634,unsucc_cost,0.0,0.0,100.16384549997748,,ri12,2,2023-03-20_14h04.18.842,threat_forest,2021.2.3,59.88730405669149,True,12.0,0.3111111111111111,0.3626984126984127,-1.1204938271604938,-1.1020836482741245,1,0,1.0,0.2921212547010147,0.1313020527358634,1.0,0.32,0.4,0.2,0.0,0.07999999999999996,1.08,1.08,1.0,2.0,-1.0,1.0,1,1,0,1,0.625
2.0,0.0,2.0,0.0,0.0,0.0,0.0,0.0,107.0692076999694,110.56906720000552,,left,1.2072321000159718,112.85271169996122,ri12,112.85271169996122,,107.0692076999694,110.56906720000552,True,5.0,['p'],True,0.5714285714285714,0.5714285714285714,0.0,0.0,2.0,0.6216097450797566,0.0534306849458431,unsucc_cost,0.0,3.0,,,ri12,2,2023-03-20_14h04.18.842,threat_forest,2021.2.3,59.88730405669149,True,19.0,0.5982142857142857,0.4546626984126984,-0.044642857142857206,-0.5825683421516755,1,1,1.0,0.1883302185884687,0.0534306849458431,0.5714285714285714,0.5714285714285714,0.5714285714285714,0.0,1.2857142857142856,1.2857142857142856,6.285714285714286,6.285714285714286,1.0,2.0,-1.0,5.0,0,1,1,1,0.0534306849458431
2.0,0.0,2.0,0.0,1.0,0.0,1.0,0.0,,,,left,1.3730321999755688,117.4648328999756,ri12,117.4648328999756,,107.0692076999694,110.56906720000552,True,3.0,['p'],True,0.5714285714285714,0.5714285714285714,0.0,0.0,2.0,0.6216097450797566,0.2045482011987489,unsucc_cost,0.0,1.0,116.09907190001104,,ri12,2,2023-03-20_14h04.18.842,threat_forest,2021.2.3,59.88730405669149,True,19.0,0.5982142857142857,0.4546626984126984,-0.044642857142857206,-0.5825683421516755,1,1,1.0,0.3170215787872858,0.2045482011987489,0.5714285714285714,0.5714285714285714,0.5714285714285714,0.0,1.2857142857142856,1.2857142857142856,4.285714285714286,4.285714285714286,1.0,2.0,-1.0,3.0,0,1,1,1,0.2045482011987489
2.0,0.0,2.0,0.0,2.0,0.0,2.0,0.0,,,,right,0.8822333000134677,123.47670569998444,ri12,118.86356099997649,120.87791539996395,123.47670569998444,,True,1.0,['p'],False,0.46875,0.625,0.25,2.0,2.0,0.9634951148421658,0.3047633530538698,succ_gain,1.0,3.0,120.87791539996395,,ri12,2,2023-03-20_14h04.18.842,threat_forest,2021.2.3,59.88730405669149,True,19.0,0.5982142857142857,0.4546626984126984,-0.044642857142857206,-0.5825683421516755,1,1,1.0,-0.125298745465681,0.3047633530538698,1.0,0.46875,0.625,0.25,0.75,0.625,1.625,1.625,0.0,2.0,-1.0,1.0,1,1,1,1,0.625
2.0,0.0,2.0,0.0,3.0,0.0,3.0,0.0,,,,left,1.551456299959682,127.93967259995406,ri12,127.93967259995406,,124.39167109999109,126.40602779999608,True,3.0,['p'],True,0.5714285714285714,0.5714285714285714,0.0,0.0,2.0,0.6216097450797566,0.1827383633208046,unsucc_cost,0.0,1.0,126.40602779999608,,ri12,2,2023-03-20_14h04.18.842,threat_forest,2021.2.3,59.88730405669149,True,19.0,0.5982142857142857,0.4546626984126984,-0.044642857142857206,-0.5825683421516755,1,1,1.0,0.4391940381929467,0.1827383633208046,0.5714285714285714,0.5714285714285714,0.5714285714285714,0.0,1.2857142857142856,1.2857142857142856,4.285714285714286,4.285714285714286,1.0,2.0,1.0,3.0,0,1,1,1,0.1827383633208046
2.0,0.0,2.0,0.0,4.0,0.0,4.0,0.0,,,,right,1.1545237999525853,133.73305330000585,ri12,129.52021099999547,131.53467879997334,133.73305330000585,,True,1.0,['p'],False,0.46875,0.625,0.25,2.0,2.0,0.9634951148421658,0.3303161932497608,unsucc_cost,1.0,0.0,131.53467879997334,,ri12,2,2023-03-20_14h04.18.842,threat_forest,2021.2.3,59.88730405669149,True,19.0,0.5982142857142857,0.4546626984126984,-0.044642857142857206,-0.5825683421516755,1,1,1.0,0.14368796454370036,0.3303161932497608,1.0,0.46875,0.625,0.25,0.75,0.625,1.625,1.625,0.0,2.0,-1.0,1.0,1,1,1,1,0.625
3.0,0.0,3.0,0.0,0.0,0.0,0.0,0.0,137.4753936000052,140.97650230000727,,right,1.6079121000366283,142.31681869999738,ri12,142.31681869999738,,137.4753936000052,140.97650230000727,False,5.0,['r'],True,0.5185185185185185,0.6666666666666666,0.2222222222222222,2.0,2.0,0.9327883776363328,-0.0122223691349874,wait_cost,0.0,4.0,,,ri12,2,2023-03-20_14h04.18.842,threat_forest,2021.2.3,59.88730405669149,False,60.0,0.6458333333333333,0.6220238095238095,0.17592592592592587,0.06564153439153433,0,0,0.0,0.4749365051063095,-0.0122223691349874,0.5185185185185185,0.5185185185185185,0.6666666666666666,0.2222222222222222,0.9999999999999999,0.8518518518518517,5.851851851851852,5.851851851851852,1.0,2.0,-1.0,5.0,0,1,0,0,-0.0122223691349874
3.0,0.0,3.0,0.0,1.0,0.0,1.0,0.0,,,,right,1.0779290999635125,147.32050099998014,ri12,147.32050099998014,,137.4753936000052,140.97650230000727,False,4.0,['r'],True,0.5185185185185185,0.6666666666666666,0.2222222222222222,2.0,2.0,0.9327883776363328,0.0437285366701187,wait_cost,0.0,3.0,145.9711537999683,,ri12,2,2023-03-20_14h04.18.842,threat_forest,2021.2.3,59.88730405669149,False,60.0,0.6458333333333333,0.6220238095238095,0.17592592592592587,0.06564153439153433,0,0,0.0,0.07504170034567678,0.0437285366701187,0.5185185185185185,0.5185185185185185,0.6666666666666666,0.2222222222222222,0.9999999999999999,0.8518518518518517,4.851851851851852,4.851851851851852,1.0,2.0,-1.0,4.0,0,1,0,0,0.0437285366701187
3.0,0.0,3.0,0.0,2.0,0.0,2.0,0.0,,,,right,1.3806927999830805,153.23193849995732,ri12,153.23193849995732,,137.4753936000052,140.97650230000727,False,3.0,['r'],True,0.5185185185185185,0.6666666666666666,0.2222222222222222,2.0,2.0,0.9327883776363328,0.0932899939702561,wait_cost,0.0,2.0,150.43361399997957,,ri12,2,2023-03-20_14h04.18.842,threat_forest,2021.2.3,59.88730405669149,False,60.0,0.6458333333333333,0.6220238095238095,0.17592592592592587,0.06564153439153433,0,0,0.0,0.32258540216797515,0.0932899939702561,0.5185185185185185,0.5185185185185185,0.6666666666666666,0.2222222222222222,0.9999999999999999,0.8518518518518517,3.8518518518518516,3.8518518518518516,1.0,2.0,-1.0,3.0,0,1,0,0,0.0932899939702561
3.0,0.0,3.0,0.0,3.0,0.0,3.0,0.0,,,,right,0.9983218000270426,157.6940193999908,ri12,154.63013949996093,156.64450439997017,157.6940193999908,,True,2.0,['r'],False,0.625,0.625,0.0,0.0,2.0,0.6021808102656677,0.0850764152838109,succ_gain,1.0,4.0,156.64450439997017,,ri12,2,2023-03-20_14h04.18.842,threat_forest,2021.2.3,59.88730405669149,True,60.0,0.6458333333333333,0.6220238095238095,0.17592592592592587,0.06564153439153433,1,1,1.0,-0.001679609727986665,0.0850764152838109,0.625,0.625,0.625,0.0,1.5,1.5,3.5,3.5,0.0,2.0,-1.0,2.0,0,1,1,1,0.0850764152838109
3.0,0.0,3.0,0.0,4.0,0.0,4.0,0.0,,,,right,0.8315323999850079,162.23973390000174,ri12,154.63013949996093,156.64450439997017,162.23973390000174,,True,4.0,['r'],False,0.625,0.625,0.0,0.0,2.0,0.6021808102656677,0.0963112997256515,unsucc_cost,1.0,2.0,160.7244068,,ri12,2,2023-03-20_14h04.18.842,threat_forest,2021.2.3,59.88730405669149,True,60.0,0.6458333333333333,0.6220238095238095,0.17592592592592587,0.06564153439153433,1,1,1.0,-0.18448501540173415,0.0963112997256515,0.625,0.625,0.625,0.0,1.5,1.5,5.5,5.5,0.0,2.0,1.0,4.0,0,1,1,1,0.0963112997256515
3.0,0.0,3.0,0.0,5.0,0.0,5.0,0.0,,,,right,2.49457410001196,166.77096930000698,ri12,166.77096930000698,,163.0889065999654,165.10331360000418,False,2.0,['r'],True,0.5185185185185185,0.6666666666666666,0.2222222222222222,2.0,2.0,0.9327883776363328,-0.0532407407407407,wait_cost,0.0,1.0,165.10331360000418,,ri12,2,2023-03-20_14h04.18.842,threat_forest,2021.2.3,59.88730405669149,False,60.0,0.6458333333333333,0.6220238095238095,0.17592592592592587,0.06564153439153433,0,0,0.0,0.9141180132343282,-0.0532407407407407,0.5185185185185185,0.5185185185185185,0.6666666666666666,0.2222222222222222,0.9999999999999999,0.8518518518518517,2.8518518518518516,2.8518518518518516,1.0,2.0,-1.0,2.0,0,1,0,0,-0.0532407407407407
3.0,0.0,3.0,0.0,6.0,0.0,6.0,0.0,,,,left,1.0616753000067547,173.19606889999704,ri12,173.19606889999704,,163.0889065999654,165.10331360000418,True,1.0,['r'],True,0.5185185185185185,0.6666666666666666,0.2222222222222222,2.0,2.0,0.9327883776363328,0.5185185185185185,succ_gain,0.0,3.0,171.29751489998307,,ri12,2,2023-03-20_14h04.18.842,threat_forest,2021.2.3,59.88730405669149,True,60.0,0.6458333333333333,0.6220238095238095,0.17592592592592587,0.06564153439153433,0,0,1.0,0.05984813219744768,0.5185185185185185,1.0,0.5185185185185185,0.6666666666666666,0.2222222222222222,0.9999999999999999,0.8518518518518517,1.8518518518518516,1.8518518518518516,1.0,2.0,-1.0,1.0,1,1,0,0,0.625
3.0,0.0,3.0,0.0,7.0,0.0,7.0,0.0,,,,left,0.758392299991101,177.20988089998718,ri12,174.27843760000542,176.29278670001077,177.20988089998718,,False,3.0,['r'],False,0.625,0.625,0.0,0.0,2.0,0.6021808102656677,0.0,wait_cost,1.0,2.0,176.29278670001077,,ri12,2,2023-03-20_14h04.18.842,threat_forest,2021.2.3,59.88730405669149,False,60.0,0.6458333333333333,0.6220238095238095,0.17592592592592587,0.06564153439153433,1,1,0.0,-0.2765544810581871,0.0,0.0,0.625,0.625,0.0,1.5,1.5,4.5,4.5,0.0,2.0,1.0,3.0,0,0,1,1,-0.84
4.0,0.0,4.0,0.0,0.0,0.0,0.0,0.0,182.04466590000084,185.55088960001007,,right,2.44913359999191,187.18464369996215,ri12,187.18464369996215,,182.04466590000084,185.55088960001007,False,5.0,['r'],True,0.2448979591836734,0.2857142857142857,0.1428571428571428,1.0,2.0,0.8400769154957735,-0.0256214500174809,wait_cost,0.0,4.0,,,ri12,2,2023-03-20_14h04.18.842,threat_forest,2021.2.3,59.88730405669149,False,29.0,0.47619047619047616,0.5610119047619047,-0.8594104308390023,-0.3417422524565382,0,0,0.0,0.8957343293574994,-0.0256214500174809,0.2448979591836734,0.2448979591836734,0.2857142857142857,0.1428571428571428,-0.2857142857142856,-0.16326530612244894,4.836734693877551,4.836734693877551,1.0,2.0,-1.0,5.0,0,1,0,0,-0.0256214500174809
4.0,0.0,4.0,0.0,1.0,0.0,1.0,0.0,,,,,,193.3605682000052,ri12,189.66416679997928,191.67843520001043,193.3605682000052,,True,4.0,['r'],False,0.4444444444444445,0.6666666666666666,0.3333333333333333,1.0,2.0,0.9656336071428248,0.1059447315210555,wait_cost,1.0,3.0,191.67843520001043,,ri12,2,2023-03-20_14h04.18.842,threat_forest,2021.2.3,59.88730405669149,,29.0,0.47619047619047616,0.5610119047619047,-0.8594104308390023,-0.3417422524565382,0,0,,,0.1059447315210555,0.4444444444444445,0.4444444444444445,0.6666666666666666,0.3333333333333333,0.6666666666666665,0.4444444444444444,4.444444444444445,4.444444444444445,0.0,2.0,-1.0,4.0,0,1,0,0,0.1059447315210555
4.0,0.0,4.0,0.0,2.0,0.0,2.0,0.0,,,,right,1.9007623000070453,199.73785939998925,ri12,189.66416679997928,191.67843520001043,199.73785939998925,,True,3.0,['r'],False,0.4444444444444445,0.6666666666666666,0.3333333333333333,1.0,2.0,0.9656336071428248,0.1073405870574206,succ_gain,1.0,5.0,198.3888234999613,,ri12,2,2023-03-20_14h04.18.842,threat_forest,2021.2.3,59.88730405669149,True,29.0,0.47619047619047616,0.5610119047619047,-0.8594104308390023,-0.3417422524565382,0,0,1.0,0.6422550162389951,0.1073405870574206,0.4444444444444445,0.4444444444444445,0.6666666666666666,0.3333333333333333,0.6666666666666665,0.4444444444444444,3.4444444444444446,3.4444444444444446,0.0,2.0,-1.0,3.0,0,1,0,0,0.1073405870574206
4.0,0.0,4.0,0.0,3.0,0.0,3.0,0.0,,,,right,0.9398947000154294,206.7833122999873,ri12,206.7833122999873,,201.66952259995745,203.68386039999316,False,5.0,['r'],True,0.2448979591836734,0.2857142857142857,0.1428571428571428,1.0,2.0,0.8400769154957735,0.0089739630407209,wait_cost,0.0,4.0,203.68386039999316,,ri12,2,2023-03-20_14h04.18.842,threat_forest,2021.2.3,59.88730405669149,False,29.0,0.47619047619047616,0.5610119047619047,-0.8594104308390023,-0.3417422524565382,0,0,0.0,-0.06198743125311894,0.0089739630407209,0.2448979591836734,0.2448979591836734,0.2857142857142857,0.1428571428571428,-0.2857142857142856,-0.16326530612244894,4.836734693877551,4.836734693877551,1.0,2.0,1.0,5.0,0,1,0,0,0.0089739630407209
4.0,0.0,4.0,0.0,4.0,0.0,4.0,0.0,,,,right,1.271958099969197,211.49365669995316,ri12,207.7472663999652,209.76161839999256,211.49365669995316,,True,4.0,['r'],False,0.4444444444444445,0.6666666666666666,0.3333333333333333,1.0,2.0,0.9656336071428248,0.1585347668923956,fight_cost,1.0,1.0,209.76161839999256,,ri12,2,2023-03-20_14h04.18.842,threat_forest,2021.2.3,59.88730405669149,True,29.0,0.47619047619047616,0.5610119047619047,-0.8594104308390023,-0.3417422524565382,0,0,1.0,0.24055752409959913,0.1585347668923956,0.4444444444444445,0.4444444444444445,0.6666666666666666,0.3333333333333333,0.6666666666666665,0.4444444444444444,4.444444444444445,4.444444444444445,0.0,2.0,-1.0,4.0,0,1,0,0,0.1585347668923956
4.0,0.0,4.0,0.0,5.0,0.0,5.0,0.0,,,,right,1.354321900056675,217.27149799995823,ri12,207.7472663999652,209.76161839999256,217.27149799995823,,True,1.0,['r'],False,0.4444444444444445,0.6666666666666666,0.3333333333333333,1.0,2.0,0.9656336071428248,0.4444444444444444,succ_gain,1.0,3.0,214.8068879999919,,ri12,2,2023-03-20_14h04.18.842,threat_forest,2021.2.3,59.88730405669149,True,29.0,0.47619047619047616,0.5610119047619047,-0.8594104308390023,-0.3417422524565382,0,0,1.0,0.30330088630579033,0.4444444444444444,1.0,0.4444444444444445,0.6666666666666666,0.3333333333333333,0.6666666666666665,0.4444444444444444,1.4444444444444444,1.4444444444444444,0.0,2.0,-1.0,1.0,1,1,0,0,0.625
4.0,0.0,4.0,0.0,6.0,0.0,6.0,0.0,,,,right,1.1273493000189774,221.184944299981,ri12,221.184944299981,,218.6535028999788,220.66801909997596,False,3.0,['r'],True,0.2448979591836734,0.2857142857142857,0.1428571428571428,1.0,2.0,0.8400769154957735,-0.5440788560322087,wait_cost,0.0,2.0,220.66801909997596,,ri12,2,2023-03-20_14h04.18.842,threat_forest,2021.2.3,59.88730405669149,False,29.0,0.47619047619047616,0.5610119047619047,-0.8594104308390023,-0.3417422524565382,0,0,0.0,0.11986912494184641,-0.5440788560322087,0.0,0.2448979591836734,0.2857142857142857,0.1428571428571428,-0.2857142857142856,-0.16326530612244894,2.836734693877551,2.836734693877551,1.0,2.0,1.0,3.0,0,0,0,0,-0.84
4.0,0.0,4.0,0.0,7.0,0.0,7.0,0.0,,,,right,0.5536587999667972,228.01190539996605,ri12,228.01190539996605,,218.6535028999788,220.66801909997596,False,2.0,['r'],True,0.2448979591836734,0.2857142857142857,0.1428571428571428,1.0,2.0,0.8400769154957735,-0.7551020408163265,wait_cost,0.0,1.0,224.34790679998696,,ri12,2,2023-03-20_14h04.18.842,threat_forest,2021.2.3,59.88730405669149,False,29.0,0.47619047619047616,0.5610119047619047,-0.8594104308390023,-0.3417422524565382,0,0,0.0,-0.5912066665061086,-0.7551020408163265,0.0,0.2448979591836734,0.2857142857142857,0.1428571428571428,-0.2857142857142856,-0.16326530612244894,1.836734693877551,1.836734693877551,1.0,2.0,-1.0,2.0,0,0,0,0,-0.84
5.0,0.0,5.0,0.0,0.0,0.0,0.0,0.0,232.6594038999756,236.17024539998965,,left,1.0215825999621302,238.30231459997597,ri12,238.30231459997597,,232.6594038999756,236.17024539998965,True,4.0,['r'],True,0.5,0.5,0.0,0.0,2.0,0.6309297535714574,0.1161235291280864,unsucc_cost,0.0,2.0,,,ri12,2,2023-03-20_14h04.18.842,threat_forest,2021.2.3,59.88730405669149,True,49.0,0.5833333333333333,0.5297619047619047,-0.888888888888889,-0.8741496598639455,1,0,1.0,0.02135299344757515,0.1161235291280864,0.5,0.5,0.5,0.0,1.0,1.0,5.0,5.0,1.0,2.0,-1.0,4.0,0,1,0,1,0.1161235291280864
5.0,0.0,5.0,0.0,1.0,0.0,1.0,0.0,,,,left,1.183820000034757,242.5478987999959,ri12,242.5478987999959,,232.6594038999756,236.17024539998965,True,2.0,['r'],True,0.5,0.5,0.0,0.0,2.0,0.6309297535714574,0.1001251178840879,succ_gain,0.0,4.0,241.36553959996672,,ri12,2,2023-03-20_14h04.18.842,threat_forest,2021.2.3,59.88730405669149,True,49.0,0.5833333333333333,0.5297619047619047,-0.888888888888889,-0.8741496598639455,1,0,1.0,0.16874649790686708,0.1001251178840879,0.5,0.5,0.5,0.0,1.0,1.0,3.0,3.0,1.0,2.0,-1.0,2.0,0,1,0,1,0.1001251178840879
5.0,0.0,5.0,0.0,2.0,0.0,2.0,0.0,,,,left,1.6902292000013404,247.0936531999614,ri12,247.0936531999614,,232.6594038999756,236.17024539998965,True,4.0,['r'],True,0.5,0.5,0.0,0.0,2.0,0.6309297535714574,0.1141493055555555,succ_gain,0.0,6.0,245.7778994999826,,ri12,2,2023-03-20_14h04.18.842,threat_forest,2021.2.3,59.88730405669149,True,49.0,0.5833333333333333,0.5297619047619047,-0.888888888888889,-0.8741496598639455,1,0,1.0,0.5248641410418129,0.1141493055555555,0.5,0.5,0.5,0.0,1.0,1.0,5.0,5.0,1.0,2.0,1.0,4.0,0,1,0,1,0.1141493055555555
5.0,0.0,5.0,0.0,3.0,0.0,3.0,0.0,,,,right,1.349884599971119,253.0048109999625,ri12,253.0048109999625,,232.6594038999756,236.17024539998965,False,6.0,['r'],True,0.5,0.5,0.0,0.0,2.0,0.6309297535714574,-0.1822916666666666,wait_cost,0.0,5.0,250.8235475999536,,ri12,2,2023-03-20_14h04.18.842,threat_forest,2021.2.3,59.88730405669149,False,49.0,0.5833333333333333,0.5297619047619047,-0.888888888888889,-0.8741496598639455,1,0,0.0,0.30001910729371145,-0.1822916666666666,0.0,0.5,0.5,0.0,1.0,1.0,7.0,7.0,1.0,2.0,1.0,6.0,0,0,0,1,-0.84
5.0,0.0,5.0,0.0,4.0,0.0,4.0,0.0,,,,right,1.759769900003448,258.6496686000028,ri12,258.6496686000028,,232.6594038999756,236.17024539998965,False,5.0,['r'],True,0.5,0.5,0.0,0.0,2.0,0.6309297535714574,-0.2222222222222222,wait_cost,0.0,4.0,256.40134799998486,,ri12,2,2023-03-20_14h04.18.842,threat_forest,2021.2.3,59.88730405669149,False,49.0,0.5833333333333333,0.5297619047619047,-0.888888888888889,-0.8741496598639455,1,0,0.0,0.5651830618686156,-0.2222222222222222,0.0,0.5,0.5,0.0,1.0,1.0,6.0,6.0,1.0,2.0,-1.0,5.0,0,0,0,1,-0.84
5.0,0.0,5.0,0.0,5.0,0.0,5.0,0.0,,,,right,0.6904311000253074,266.19253130001016,ri12,266.19253130001016,,232.6594038999756,236.17024539998965,False,4.0,['r'],True,0.5,0.5,0.0,0.0,2.0,0.6309297535714574,-0.2847222222222222,wait_cost,0.0,3.0,262.4456426000106,,ri12,2,2023-03-20_14h04.18.842,threat_forest,2021.2.3,59.88730405669149,False,49.0,0.5833333333333333,0.5297619047619047,-0.888888888888889,-0.8741496598639455,1,0,0.0,-0.3704390938408787,-0.2847222222222222,0.0,0.5,0.5,0.0,1.0,1.0,5.0,5.0,1.0,2.0,-1.0,4.0,0,0,0,1,-0.84
5.0,0.0,5.0,0.0,6.0,0.0,6.0,0.0,,,,left,1.1739137999829836,270.27246839995496,ri12,266.9086868999875,268.9229448999977,270.27246839995496,,False,3.0,['r'],False,0.2222222222222222,0.6666666666666666,0.6666666666666666,2.0,2.0,0.77250688571426,-0.7376543209876543,wait_cost,1.0,2.0,268.9229448999977,,ri12,2,2023-03-20_14h04.18.842,threat_forest,2021.2.3,59.88730405669149,False,49.0,0.5833333333333333,0.5297619047619047,-0.888888888888889,-0.8741496598639455,0,0,0.0,0.16034329450492074,-0.7376543209876543,0.0,0.2222222222222222,0.6666666666666666,0.6666666666666666,-0.3333333333333335,-0.7777777777777779,2.2222222222222223,2.2222222222222223,0.0,2.0,-1.0,3.0,0,0,0,0,-0.84
5.0,0.0,5.0,0.0,7.0,0.0,7.0,0.0,,,,right,1.5019136000191793,274.41815019998467,ri12,274.41815019998467,,271.47089439997217,273.48581779998494,False,2.0,['r'],True,0.5,0.5,0.0,0.0,2.0,0.6309297535714574,-0.5,wait_cost,0.0,1.0,273.48581779998494,,ri12,2,2023-03-20_14h04.18.842,threat_forest,2021.2.3,59.88730405669149,False,49.0,0.5833333333333333,0.5297619047619047,-0.888888888888889,-0.8741496598639455,1,0,0.0,0.40674002839792067,-0.5,0.0,0.5,0.5,0.0,1.0,1.0,3.0,3.0,1.0,2.0,-1.0,2.0,0,0,0,1,-0.84
6.0,0.0,6.0,0.0,0.0,0.0,0.0,0.0,281.57009170000674,285.07458109996514,,left,0.8702976000495255,287.5229776999913,ri12,287.5229776999913,,281.57009170000674,285.07458109996514,True,5.0,['p'],True,0.375,0.5,0.25,1.0,2.0,0.9850568223215076,0.0153323500884942,unsucc_cost,0.0,3.0,,,ri12,2,2023-03-20_14h04.18.842,threat_forest,2021.2.3,59.88730405669149,True,31.0,0.41666666666666663,0.49999999999999994,-0.9675925925925928,-0.9282407407407409,1,0,1.0,-0.13892005680333405,0.0153323500884942,0.375,0.375,0.5,0.25,0.25,0.25,5.25,5.25,1.0,2.0,-1.0,5.0,0,1,0,1,0.0153323500884942
6.0,0.0,6.0,0.0,1.0,0.0,1.0,0.0,,,,left,1.225868100009393,294.10004859999754,ri12,294.10004859999754,,281.57009170000674,285.07458109996514,True,3.0,['p'],True,0.375,0.5,0.25,1.0,2.0,0.9850568223215076,0.0791642167699067,succ_gain,0.0,5.0,290.43625329999486,,ri12,2,2023-03-20_14h04.18.842,threat_forest,2021.2.3,59.88730405669149,True,31.0,0.41666666666666663,0.49999999999999994,-0.9675925925925928,-0.9282407407407409,1,0,1.0,0.20364924608955945,0.0791642167699067,0.375,0.375,0.5,0.25,0.25,0.25,3.25,3.25,1.0,2.0,-1.0,3.0,0,1,0,1,0.0791642167699067
6.0,0.0,6.0,0.0,2.0,0.0,2.0,0.0,,,,right,1.2773046999936923,298.56230319995666,ri12,298.56230319995666,,281.57009170000674,285.07458109996514,False,5.0,['p'],True,0.375,0.5,0.25,1.0,2.0,0.9850568223215076,0.0581486540615872,wait_cost,0.0,4.0,297.3630732999882,,ri12,2,2023-03-20_14h04.18.842,threat_forest,2021.2.3,59.88730405669149,False,31.0,0.41666666666666663,0.49999999999999994,-0.9675925925925928,-0.9282407407407409,1,0,0.0,0.24475215469161973,0.0581486540615872,0.375,0.375,0.5,0.25,0.25,0.25,5.25,5.25,1.0,2.0,1.0,5.0,0,1,0,1,0.0581486540615872
6.0,0.0,6.0,0.0,3.0,0.0,3.0,0.0,,,,left,0.7261852999799885,303.30782779998844,ri12,303.30782779998844,,281.57009170000674,285.07458109996514,True,4.0,['p'],True,0.375,0.5,0.25,1.0,2.0,0.9850568223215076,0.0823396569265434,unsucc_cost,0.0,2.0,301.87557350000134,,ri12,2,2023-03-20_14h04.18.842,threat_forest,2021.2.3,59.88730405669149,True,31.0,0.41666666666666663,0.49999999999999994,-0.9675925925925928,-0.9282407407407409,1,0,1.0,-0.31995006259181524,0.0823396569265434,0.375,0.375,0.5,0.25,0.25,0.25,4.25,4.25,1.0,2.0,-1.0,4.0,0,1,0,1,0.0823396569265434
6.0,0.0,6.0,0.0,4.0,0.0,4.0,0.0,,,,left,1.146788000012748,307.5206704000011,ri12,307.5206704000011,,281.57009170000674,285.07458109996514,True,2.0,['p'],True,0.375,0.5,0.25,1.0,2.0,0.9850568223215076,0.0578703703703704,unsucc_cost,0.0,0.0,306.0717180999927,,ri12,2,2023-03-20_14h04.18.842,threat_forest,2021.2.3,59.88730405669149,True,31.0,0.41666666666666663,0.49999999999999994,-0.9675925925925928,-0.9282407407407409,1,0,1.0,0.1369649910839004,0.0578703703703704,0.375,0.375,0.5,0.25,0.25,0.25,2.25,2.25,1.0,2.0,-1.0,2.0,0,1,0,1,0.0578703703703704
7.0,0.0,7.0,0.0,0.0,0.0,0.0,0.0,314.32336739997845,317.82739649998257,,left,1.5248201999929734,321.39173450000817,ri12,321.39173450000817,,314.32336739997845,317.82739649998257,True,4.0,['p'],True,0.2222222222222222,0.2222222222222222,0.0,0.0,1.0,0.4821593609696809,0.003270588833003,unsucc_cost,0.0,2.0,,,ri12,2,2023-03-20_14h04.18.842,threat_forest,2021.2.3,59.88730405669149,True,56.0,0.4444444444444444,0.4305555555555555,-1.1666666666666667,-1.0671296296296298,0,0,1.0,0.42187650146447786,0.003270588833003,0.2222222222222222,0.2222222222222222,0.2222222222222222,0.0,-0.3333333333333335,-0.3333333333333335,3.6666666666666665,3.6666666666666665,1.0,1.0,-1.0,4.0,0,1,0,0,0.003270588833003
7.0,0.0,7.0,0.0,1.0,0.0,1.0,0.0,,,,right,2.2647390999482013,328.2678675999632,ri12,322.9396820999682,324.95401019998826,328.2678675999632,,True,2.0,['p'],False,0.4444444444444445,0.6666666666666666,0.3333333333333333,1.0,1.0,0.9656336071428248,0.0323502514860539,fight_cost,1.0,0.0,324.95401019998826,,ri12,2,2023-03-20_14h04.18.842,threat_forest,2021.2.3,59.88730405669149,True,56.0,0.4444444444444444,0.4305555555555555,-1.1666666666666667,-1.0671296296296298,1,1,1.0,0.8174595646395509,0.0323502514860539,0.4444444444444445,0.4444444444444445,0.6666666666666666,0.3333333333333333,0.0,0.0,2.0,2.0,0.0,1.0,-1.0,2.0,0,1,1,1,0.0323502514860539
8.0,0.0,8.0,0.0,0.0,0.0,0.0,0.0,334.95521179999923,338.4580800999538,,right,0.8037707000039518,342.02271469996776,ri12,334.95521179999923,338.4580800999538,342.02271469996776,,True,5.0,['r'],False,0.5,0.5,0.0,0.0,2.0,0.6309297535714574,0.0540215703294548,succ_gain,1.0,6.0,,,ri12,2,2023-03-20_14h04.18.842,threat_forest,2021.2.3,59.88730405669149,True,64.0,0.5357142857142857,0.49007936507936506,-0.326530612244898,-0.7465986394557824,1,1,1.0,-0.21844124948019966,0.0540215703294548,0.5,0.5,0.5,0.0,1.0,1.0,6.0,6.0,0.0,2.0,-1.0,5.0,0,1,1,1,0.0540215703294548
8.0,0.0,8.0,0.0,1.0,0.0,1.0,0.0,,,,right,0.871628699998837,348.4186300999718,ri12,348.4186300999718,,342.8544142000028,344.86871489998884,False,6.0,['r'],True,0.4081632653061224,0.5714285714285714,0.2857142857142857,2.0,2.0,0.9885754083994552,-0.0789184913550894,wait_cost,0.0,5.0,344.86871489998884,,ri12,2,2023-03-20_14h04.18.842,threat_forest,2021.2.3,59.88730405669149,False,64.0,0.5357142857142857,0.49007936507936506,-0.326530612244898,-0.7465986394557824,1,0,0.0,-0.13739174850651928,-0.0789184913550894,0.4081632653061224,0.4081632653061224,0.5714285714285714,0.2857142857142857,0.4285714285714285,0.346938775510204,6.346938775510204,6.346938775510204,1.0,2.0,1.0,6.0,0,1,0,1,-0.0789184913550894
8.0,0.0,8.0,0.0,2.0,0.0,2.0,0.0,,,,right,1.2422000999795273,354.4269833999569,ri12,354.4269833999569,,342.8544142000028,344.86871489998884,False,5.0,['r'],True,0.4081632653061224,0.5714285714285714,0.2857142857142857,2.0,2.0,0.9885754083994552,-0.0126763486945585,wait_cost,0.0,4.0,351.3293577999575,,ri12,2,2023-03-20_14h04.18.842,threat_forest,2021.2.3,59.88730405669149,False,64.0,0.5357142857142857,0.49007936507936506,-0.326530612244898,-0.7465986394557824,1,0,0.0,0.21688408162891587,-0.0126763486945585,0.4081632653061224,0.4081632653061224,0.5714285714285714,0.2857142857142857,0.4285714285714285,0.346938775510204,5.346938775510204,5.346938775510204,1.0,2.0,-1.0,5.0,0,1,0,1,-0.0126763486945585
8.0,0.0,8.0,0.0,3.0,0.0,3.0,0.0,,,,right,1.2923286000150256,360.62113809998846,ri12,355.6926243999624,357.7067523999722,360.62113809998846,,True,4.0,['r'],False,0.5,0.5,0.0,0.0,2.0,0.6309297535714574,0.1014160766347355,succ_gain,1.0,6.0,357.7067523999722,,ri12,2,2023-03-20_14h04.18.842,threat_forest,2021.2.3,59.88730405669149,True,64.0,0.5357142857142857,0.49007936507936506,-0.326530612244898,-0.7465986394557824,1,1,1.0,0.25644570739986017,0.1014160766347355,0.5,0.5,0.5,0.0,1.0,1.0,5.0,5.0,0.0,2.0,-1.0,4.0,0,1,1,1,0.1014160766347355
8.0,0.0,8.0,0.0,4.0,0.0,4.0,0.0,,,,right,0.7750237000291236,365.11846749996766,ri12,365.11846749996766,,361.9366337999818,363.9509918999975,False,6.0,['r'],True,0.4081632653061224,0.5714285714285714,0.2857142857142857,2.0,2.0,0.9885754083994552,-0.1036844767061343,wait_cost,0.0,5.0,363.9509918999975,,ri12,2,2023-03-20_14h04.18.842,threat_forest,2021.2.3,59.88730405669149,False,64.0,0.5357142857142857,0.49007936507936506,-0.326530612244898,-0.7465986394557824,1,0,0.0,-0.25486166941362953,-0.1036844767061343,0.0,0.4081632653061224,0.5714285714285714,0.2857142857142857,0.4285714285714285,0.346938775510204,6.346938775510204,6.346938775510204,1.0,2.0,1.0,6.0,0,0,0,1,-0.84
8.0,0.0,8.0,0.0,5.0,0.0,5.0,0.0,,,,left,1.5006997999735177,369.5798530000029,ri12,365.9161542999791,367.9305502999923,369.5798530000029,,False,5.0,['r'],False,0.5,0.5,0.0,0.0,2.0,0.6309297535714574,0.0,wait_cost,1.0,4.0,367.9305502999923,,ri12,2,2023-03-20_14h04.18.842,threat_forest,2021.2.3,59.88730405669149,False,64.0,0.5357142857142857,0.49007936507936506,-0.326530612244898,-0.7465986394557824,1,1,0.0,0.40593153263101117,0.0,0.0,0.5,0.5,0.0,1.0,1.0,6.0,6.0,0.0,2.0,-1.0,5.0,0,0,1,1,-0.84
8.0,0.0,8.0,0.0,6.0,0.0,6.0,0.0,,,,right,0.656010199978482,376.0754848999786,ri12,376.0754848999786,,371.11176369996974,373.1258491000044,False,4.0,['r'],True,0.4081632653061224,0.5714285714285714,0.2857142857142857,2.0,2.0,0.9885754083994552,-0.1559766763848396,wait_cost,0.0,3.0,373.1258491000044,,ri12,2,2023-03-20_14h04.18.842,threat_forest,2021.2.3,59.88730405669149,False,64.0,0.5357142857142857,0.49007936507936506,-0.326530612244898,-0.7465986394557824,1,0,0.0,-0.4215789414112426,-0.1559766763848396,0.0,0.4081632653061224,0.5714285714285714,0.2857142857142857,0.4285714285714285,0.346938775510204,4.346938775510204,4.346938775510204,1.0,2.0,-1.0,4.0,0,0,0,1,-0.84
8.0,0.0,8.0,0.0,7.0,0.0,7.0,0.0,,,,left,0.8499068000237457,380.5400495000067,ri12,376.7560690999962,378.77042680000886,380.5400495000067,,False,3.0,['r'],False,0.5,0.5,0.0,0.0,2.0,0.6309297535714574,0.0,wait_cost,1.0,2.0,378.77042680000886,,ri12,2,2023-03-20_14h04.18.842,threat_forest,2021.2.3,59.88730405669149,False,64.0,0.5357142857142857,0.49007936507936506,-0.326530612244898,-0.7465986394557824,1,1,0.0,-0.1626285825403374,0.0,0.0,0.5,0.5,0.0,1.0,1.0,4.0,4.0,0.0,2.0,-1.0,3.0,0,0,1,1,-0.84
9.0,0.0,9.0,0.0,0.0,0.0,0.0,0.0,386.5401031000074,390.0432922999608,,right,1.1824836999876425,392.8415262000053,ri12,386.5401031000074,390.0432922999608,392.8415262000053,,True,5.0,['p'],False,0.4444444444444445,0.6666666666666666,0.3333333333333333,1.0,2.0,0.9656336071428248,0.0381387997233528,succ_gain,1.0,6.0,,,ri12,2,2023-03-20_14h04.18.842,threat_forest,2021.2.3,59.88730405669149,True,41.0,0.43333333333333335,0.4845238095238095,-0.9677777777777778,-0.647154195011338,1,0,1.0,0.1676170569233157,0.0381387997233528,0.4444444444444445,0.4444444444444445,0.6666666666666666,0.3333333333333333,0.6666666666666665,0.4444444444444444,5.444444444444445,5.444444444444445,0.0,2.0,-1.0,5.0,0,1,0,1,0.0381387997233528
9.0,0.0,9.0,0.0,1.0,0.0,1.0,0.0,,,,left,0.5687141000526026,397.51997819996905,ri12,386.5401031000074,390.0432922999608,397.51997819996905,,False,6.0,['p'],False,0.4444444444444445,0.6666666666666666,0.3333333333333333,1.0,2.0,0.9656336071428248,-0.0765963902079064,wait_cost,1.0,5.0,396.0710325999535,,ri12,2,2023-03-20_14h04.18.842,threat_forest,2021.2.3,59.88730405669149,False,41.0,0.43333333333333335,0.4845238095238095,-0.9677777777777778,-0.647154195011338,1,0,0.0,-0.5643774314958103,-0.0765963902079064,0.4444444444444445,0.4444444444444445,0.6666666666666666,0.3333333333333333,0.6666666666666665,0.4444444444444444,6.444444444444445,6.444444444444445,0.0,2.0,1.0,6.0,0,1,0,1,-0.0765963902079064
9.0,0.0,9.0,0.0,2.0,0.0,2.0,0.0,,,,right,0.8670151000260375,400.65304479998304,ri12,400.65304479998304,,398.1193788999808,400.13390570000047,False,5.0,['p'],True,0.18,0.2,0.1,1.0,2.0,0.7058405977926203,-0.0142855576771834,wait_cost,0.0,4.0,400.13390570000047,,ri12,2,2023-03-20_14h04.18.842,threat_forest,2021.2.3,59.88730405669149,False,41.0,0.43333333333333335,0.4845238095238095,-0.9677777777777778,-0.647154195011338,0,0,0.0,-0.14269888594491129,-0.0142855576771834,0.18,0.18,0.2,0.1,-0.5000000000000002,-0.3800000000000001,4.62,4.62,1.0,2.0,-1.0,5.0,0,1,0,0,-0.0142855576771834
9.0,0.0,9.0,0.0,3.0,0.0,3.0,0.0,,,,right,0.7420769999735057,406.977772299957,ri12,401.5496537999716,403.5639175999677,406.977772299957,,True,4.0,['p'],False,0.4444444444444445,0.6666666666666666,0.3333333333333333,1.0,2.0,0.9656336071428248,0.1170075738454504,fight_cost,1.0,1.0,403.5639175999677,,ri12,2,2023-03-20_14h04.18.842,threat_forest,2021.2.3,59.88730405669149,True,41.0,0.43333333333333335,0.4845238095238095,-0.9677777777777778,-0.647154195011338,1,0,1.0,-0.2983022676496598,0.1170075738454504,0.4444444444444445,0.4444444444444445,0.6666666666666666,0.3333333333333333,0.6666666666666665,0.4444444444444444,4.444444444444445,4.444444444444445,0.0,2.0,-1.0,4.0,0,1,0,1,0.1170075738454504
9.0,0.0,9.0,0.0,4.0,0.0,4.0,0.0,,,,right,0.595183499972336,413.389183799969,ri12,401.5496537999716,403.5639175999677,413.389183799969,,True,1.0,['p'],False,0.4444444444444445,0.6666666666666666,0.3333333333333333,1.0,2.0,0.9656336071428248,0.2041393689986281,fight_cost,1.0,0.0,409.7581316999858,,ri12,2,2023-03-20_14h04.18.842,threat_forest,2021.2.3,59.88730405669149,True,41.0,0.43333333333333335,0.4845238095238095,-0.9677777777777778,-0.647154195011338,1,0,1.0,-0.5188855176681838,0.2041393689986281,1.0,0.4444444444444445,0.6666666666666666,0.3333333333333333,0.6666666666666665,0.4444444444444444,1.4444444444444444,1.4444444444444444,0.0,2.0,-1.0,1.0,1,1,0,1,0.625
10.0,0.0,10.0,0.0,0.0,0.0,0.0,0.0,419.3915213999571,422.89612379996106,,right,0.6508242000127211,425.92691539996304,ri12,419.3915213999571,422.89612379996106,425.92691539996304,,True,5.0,['r'],False,0.4444444444444445,0.6666666666666666,0.3333333333333333,1.0,2.0,0.9656336071428248,0.014840682614443,fight_cost,1.0,2.0,,,ri12,2,2023-03-20_14h04.18.842,threat_forest,2021.2.3,59.88730405669149,True,1.0,0.4833333333333333,0.4583333333333333,-0.7877777777777778,-0.8777777777777778,1,0,1.0,-0.4295157193059801,0.014840682614443,0.4444444444444445,0.4444444444444445,0.6666666666666666,0.3333333333333333,0.6666666666666665,0.4444444444444444,5.444444444444445,5.444444444444445,0.0,2.0,-1.0,5.0,0,1,0,1,0.014840682614443
10.0,0.0,10.0,0.0,1.0,0.0,1.0,0.0,,,,right,1.5983587999944575,429.2736297000083,ri12,419.3915213999571,422.89612379996106,429.2736297000083,,True,2.0,['r'],False,0.4444444444444445,0.6666666666666666,0.3333333333333333,1.0,2.0,0.9656336071428248,0.0635968883060148,unsucc_cost,1.0,0.0,428.6239244999597,,ri12,2,2023-03-20_14h04.18.842,threat_forest,2021.2.3,59.88730405669149,True,1.0,0.4833333333333333,0.4583333333333333,-0.7877777777777778,-0.8777777777777778,1,0,1.0,0.4689773528007076,0.0635968883060148,0.4444444444444445,0.4444444444444445,0.6666666666666666,0.3333333333333333,0.6666666666666665,0.4444444444444444,2.4444444444444446,2.4444444444444446,0.0,2.0,-1.0,2.0,0,1,0,1,0.0635968883060148
11.0,0.0,11.0,0.0,0.0,0.0,0.0,0.0,434.3101864999626,437.8154451999581,,left,0.9281876000459306,439.8645163999754,ri12,434.3101864999626,437.8154451999581,439.8645163999754,,False,5.0,['p'],False,0.4,0.4,0.0,0.0,2.0,0.6126016192893442,0.0463698529492456,wait_cost,1.0,4.0,,,ri12,2,2023-03-20_14h04.18.842,threat_forest,2021.2.3,59.88730405669149,False,2.0,0.45,0.4666666666666667,-0.7,-0.7438888888888888,1,0,0.0,-0.074521411404642,0.0463698529492456,0.4,0.4,0.4,0.0,0.6000000000000001,0.6000000000000001,5.6,5.6,0.0,2.0,-1.0,5.0,0,1,0,1,0.0463698529492456
11.0,0.0,11.0,0.0,1.0,0.0,1.0,0.0,,,,right,1.317194400005974,443.72857729997486,ri12,443.72857729997486,,440.8129764999612,442.8273399999598,False,4.0,['p'],True,0.3333333333333333,0.5,0.3333333333333333,2.0,2.0,1.0,0.0245838957475994,wait_cost,0.0,3.0,442.8273399999598,,ri12,2,2023-03-20_14h04.18.842,threat_forest,2021.2.3,59.88730405669149,False,2.0,0.45,0.4666666666666667,-0.7,-0.7438888888888888,0,0,0.0,0.27550402007311653,0.0245838957475994,0.3333333333333333,0.3333333333333333,0.5,0.3333333333333333,0.0,0.0,4.0,4.0,1.0,2.0,-1.0,4.0,0,1,0,0,0.0245838957475994
11.0,0.0,11.0,0.0,2.0,0.0,2.0,0.0,,,,right,1.185534399992321,450.10420269996393,ri12,450.10420269996393,,440.8129764999612,442.8273399999598,False,3.0,['p'],True,0.3333333333333333,0.5,0.3333333333333333,2.0,2.0,1.0,0.0704567901234568,wait_cost,0.0,2.0,447.0900683999644,,ri12,2,2023-03-20_14h04.18.842,threat_forest,2021.2.3,59.88730405669149,False,2.0,0.45,0.4666666666666667,-0.7,-0.7438888888888888,0,0,0.0,0.17019364338813406,0.0704567901234568,0.3333333333333333,0.3333333333333333,0.5,0.3333333333333333,0.0,0.0,3.0,3.0,1.0,2.0,-1.0,3.0,0,1,0,0,0.0704567901234568
11.0,0.0,11.0,0.0,3.0,0.0,3.0,0.0,,,,right,1.8716778999660164,455.58235789998434,ri12,451.3199076000019,453.3341020999942,455.58235789998434,,True,2.0,['p'],False,0.4,0.4,0.0,0.0,2.0,0.6126016192893442,0.0454814814814815,unsucc_cost,1.0,0.0,453.3341020999942,,ri12,2,2023-03-20_14h04.18.842,threat_forest,2021.2.3,59.88730405669149,True,2.0,0.45,0.4666666666666667,-0.7,-0.7438888888888888,1,0,1.0,0.6268353012670733,0.0454814814814815,0.4,0.4,0.4,0.0,0.6000000000000001,0.6000000000000001,2.6,2.6,0.0,2.0,-1.0,2.0,0,1,0,1,0.0454814814814815
12.0,0.0,12.0,0.0,0.0,0.0,0.0,0.0,460.0862441000063,463.5913626999827,,left,1.3602741000358949,466.4725467999815,ri12,460.0862441000063,463.5913626999827,466.4725467999815,,False,5.0,['p'],False,0.4,0.4,0.0,0.0,1.0,0.6126016192893442,0.0454165613168723,wait_cost,1.0,4.0,,,ri12,2,2023-03-20_14h04.18.842,threat_forest,2021.2.3,59.88730405669149,False,7.0,0.45,0.45,-1.0666666666666667,-0.8833333333333333,1,0,0.0,0.3076862235847085,0.0454165613168723,0.4,0.4,0.4,0.0,0.20000000000000007,0.20000000000000007,5.2,5.2,0.0,1.0,-1.0,5.0,0,1,0,1,0.0454165613168723
12.0,0.0,12.0,0.0,1.0,0.0,1.0,0.0,,,,right,1.0933090000180528,470.4700776999816,ri12,470.4700776999816,,467.8542731999769,469.8687746999785,False,4.0,['p'],True,0.3333333333333333,0.5,0.3333333333333333,2.0,1.0,1.0,0.0180980452674897,wait_cost,0.0,3.0,469.8687746999785,,ri12,2,2023-03-20_14h04.18.842,threat_forest,2021.2.3,59.88730405669149,False,7.0,0.45,0.45,-1.0666666666666667,-0.8833333333333333,0,0,0.0,0.08920887739922312,0.0180980452674897,0.3333333333333333,0.3333333333333333,0.5,0.3333333333333333,-0.5,-0.3333333333333335,3.6666666666666665,3.6666666666666665,1.0,1.0,-1.0,4.0,0,1,0,0,0.0180980452674897
12.0,0.0,12.0,0.0,2.0,0.0,2.0,0.0,,,,right,1.9135599000146613,476.7626709999749,ri12,476.7626709999749,,467.8542731999769,469.8687746999785,False,3.0,['p'],True,0.3333333333333333,0.5,0.3333333333333333,2.0,1.0,1.0,0.025732304526749,wait_cost,0.0,2.0,473.5987314999802,,ri12,2,2023-03-20_14h04.18.842,threat_forest,2021.2.3,59.88730405669149,False,7.0,0.45,0.45,-1.0666666666666667,-0.8833333333333333,0,0,0.0,0.6489653292947141,0.025732304526749,0.3333333333333333,0.3333333333333333,0.5,0.3333333333333333,-0.5,-0.3333333333333335,2.6666666666666665,2.6666666666666665,1.0,1.0,-1.0,3.0,0,1,0,0,0.025732304526749
12.0,0.0,12.0,0.0,3.0,0.0,3.0,0.0,,,,right,0.9935302999801934,482.9235087999841,ri12,482.9235087999841,,467.8542731999769,469.8687746999785,False,2.0,['p'],True,0.3333333333333333,0.5,0.3333333333333333,2.0,1.0,1.0,0.0040555555555554,wait_cost,0.0,1.0,480.708694299974,,ri12,2,2023-03-20_14h04.18.842,threat_forest,2021.2.3,59.88730405669149,False,7.0,0.45,0.45,-1.0666666666666667,-0.8833333333333333,0,0,0.0,-0.006490719236712357,0.0040555555555554,0.3333333333333333,0.3333333333333333,0.5,0.3333333333333333,-0.5,-0.3333333333333335,1.6666666666666665,1.6666666666666665,1.0,1.0,-1.0,2.0,0,1,0,0,0.0040555555555554
12.0,0.0,12.0,0.0,4.0,0.0,4.0,0.0,,,,right,0.5808001999976113,488.3685115999542,ri12,483.9393379999674,485.9540320999804,488.3685115999542,,True,1.0,['p'],False,0.4,0.4,0.0,0.0,1.0,0.6126016192893442,0.1533333333333333,succ_gain,1.0,2.0,485.9540320999804,,ri12,2,2023-03-20_14h04.18.842,threat_forest,2021.2.3,59.88730405669149,True,7.0,0.45,0.45,-1.0666666666666667,-0.8833333333333333,1,0,1.0,-0.5433484711231056,0.1533333333333333,1.0,0.4,0.4,0.0,0.20000000000000007,0.20000000000000007,1.2000000000000002,1.2000000000000002,0.0,1.0,-1.0,1.0,1,1,0,1,0.625
12.0,0.0,12.0,0.0,5.0,0.0,5.0,0.0,,,,right,0.9317605000105686,492.38141159998486,ri12,492.38141159998486,,488.96807899995474,490.9824049999588,False,2.0,['p'],True,0.3333333333333333,0.5,0.3333333333333333,2.0,1.0,1.0,-0.0333333333333334,wait_cost,0.0,1.0,490.9824049999588,,ri12,2,2023-03-20_14h04.18.842,threat_forest,2021.2.3,59.88730405669149,False,7.0,0.45,0.45,-1.0666666666666667,-0.8833333333333333,0,0,0.0,-0.07067947155767014,-0.0333333333333334,0.3333333333333333,0.3333333333333333,0.5,0.3333333333333333,-0.5,-0.3333333333333335,1.6666666666666665,1.6666666666666665,1.0,1.0,1.0,2.0,0,1,0,0,-0.0333333333333334
12.0,0.0,12.0,0.0,6.0,0.0,6.0,0.0,,,,left,1.2325885000173002,497.0279078999884,ri12,497.0279078999884,,488.96807899995474,490.9824049999588,True,1.0,['p'],True,0.3333333333333333,0.5,0.3333333333333333,2.0,1.0,1.0,0.3333333333333332,succ_gain,0.0,2.0,495.3450291999616,,ri12,2,2023-03-20_14h04.18.842,threat_forest,2021.2.3,59.88730405669149,True,7.0,0.45,0.45,-1.0666666666666667,-0.8833333333333333,0,0,1.0,0.20911642964470223,0.3333333333333332,1.0,0.3333333333333333,0.5,0.3333333333333333,-0.5,-0.3333333333333335,0.6666666666666665,1.0,1.0,1.0,-1.0,1.0,1,1,0,0,0.625
12.0,0.0,12.0,0.0,7.0,0.0,7.0,0.0,,,,left,0.8448538000229746,503.22121920000063,ri12,498.2925703999936,500.3070082999766,503.22121920000063,,False,2.0,['p'],False,0.4,0.4,0.0,0.0,1.0,0.6126016192893442,-0.6,wait_cost,1.0,1.0,500.3070082999766,,ri12,2,2023-03-20_14h04.18.842,threat_forest,2021.2.3,59.88730405669149,False,7.0,0.45,0.45,-1.0666666666666667,-0.8833333333333333,1,0,0.0,-0.16859168431854674,-0.6,0.0,0.4,0.4,0.0,0.20000000000000007,0.20000000000000007,2.2,2.2,0.0,1.0,1.0,2.0,0,0,0,1,-0.84
