miniblock.thisRepN,miniblock.thisTrialN,miniblock.thisN,miniblock.thisIndex,day.thisRepN,day.thisTrialN,day.thisN,day.thisIndex,forest.started,fixation_forest.started,fixation_forest.stopped,key_resp.keys,key_resp.rt,key_resp.started,Subject_ID,weather_left.started,weather_left.stopped,weather_right.started,weather_right.stopped,foraging T/F,in_LP,p/r heuristic,good_weather.T/F,p_succ_correct,p_succ_uncorrected,r_threat,n_oponents,gain_if_succ,weather_entropy,OP_value_difference,action_outcome,forest_side_L=0_R=1,out_LP,fixation_day.started,fixation_day.stopped,participant,session,date,expName,psychopyVersion,frameRate,foraging T/F NaNs,fora_NR,forest_mean_p,mvt_cutoff_p,forest_mean_ev,mvt_cutoff_ev,mvt_policy_eg,mvt_policy_p,fora_response,logRT,optimal policy,$\mathit{p}$ success cor + cap,$\mathit{p}$ success cor,$\mathit{p}$ success,risk threat encounter,expected gain naive,expected gain correct,expected state no bounds,expected state with bounds,weather type,gain magnitude,win stay lose shift,continuous energy state,binary energy state,$\mathit{p}$ success based MVT,expected gain based MVT
0.0,0.0,0.0,0.0,0.0,0.0,0.0,0.0,23.699368953704838,27.20484495162964,None,left,1.1531260013580322,30.39111590385437,bh3,30.39111590385437,None,23.699368953704838,27.20484495162964,True,5.0,['p'],True,0.4444444444444445,0.6666666666666666,0.3333333333333333,1.0,1.0,0.9656336071428248,0.0469296874463657,succ_gain,0.0,6.0,,,bh3,1,2023-04-04_10h06.34.937,threat_forest,2021.2.3,60.196737498672434,True,6.0,0.4833333333333333,0.4833333333333333,-1.145,-1.145,1,0,1,0.14247651663274732,0.0469296874463657,0.4444444444444445,0.4444444444444445,0.6666666666666666,0.6666666666666667,-1.0,-1.0,4.0,4.0,1.0,1.0,,5.0,0,0,1
0.0,0.0,0.0,0.0,1.0,0.0,1.0,0.0,,,,right,2.583570003509521,35.44490885734558,bh3,35.44490885734558,None,23.699368953704838,27.20484495162964,False,6.0,['p'],True,0.4444444444444445,0.6666666666666666,0.3333333333333333,1.0,1.0,0.9656336071428248,-0.1136311593387568,wait_cost,0.0,5.0,33.59546184539795,None,bh3,1,2023-04-04_10h06.34.937,threat_forest,2021.2.3,60.196737498672434,False,6.0,0.4833333333333333,0.4833333333333333,-1.145,-1.145,1,0,0,0.9491721647625658,-0.1136311593387568,0.4444444444444445,0.4444444444444445,0.6666666666666666,0.6666666666666667,-1.0,-1.0,5.0,5.0,1.0,1.0,1.0,6.0,0,0,1
0.0,0.0,0.0,0.0,2.0,0.0,2.0,0.0,,,,left,1.1379389762878418,40.88657689094544,bh3,40.88657689094544,None,23.699368953704838,27.20484495162964,True,5.0,['p'],True,0.4444444444444445,0.6666666666666666,0.3333333333333333,1.0,1.0,0.9656336071428248,0.0728365854261925,succ_gain,0.0,6.0,40.06964683532715,None,bh3,1,2023-04-04_10h06.34.937,threat_forest,2021.2.3,60.196737498672434,True,6.0,0.4833333333333333,0.4833333333333333,-1.145,-1.145,1,0,1,0.12921871061769477,0.0728365854261925,0.4444444444444445,0.4444444444444445,0.6666666666666666,0.6666666666666667,-1.0,-1.0,4.0,4.0,1.0,1.0,-1.0,5.0,0,0,1
0.0,0.0,0.0,0.0,3.0,0.0,3.0,0.0,,,,right,1.553584098815918,45.32542681694031,bh3,45.32542681694031,None,23.699368953704838,27.20484495162964,False,6.0,['p'],True,0.4444444444444445,0.6666666666666666,0.3333333333333333,1.0,1.0,0.9656336071428248,-0.2851403823731138,wait_cost,0.0,5.0,44.07381701469421,None,bh3,1,2023-04-04_10h06.34.937,threat_forest,2021.2.3,60.196737498672434,False,6.0,0.4833333333333333,0.4833333333333333,-1.145,-1.145,1,0,0,0.4405645834458494,-0.2851403823731138,0.0,0.4444444444444445,0.6666666666666666,0.6666666666666667,-1.0,-1.0,5.0,5.0,1.0,1.0,1.0,6.0,0,0,1
0.0,0.0,0.0,0.0,4.0,0.0,4.0,0.0,,,,right,1.732316017150879,51.69449591636658,bh3,51.69449591636658,None,23.699368953704838,27.20484495162964,False,5.0,['p'],True,0.4444444444444445,0.6666666666666666,0.3333333333333333,1.0,1.0,0.9656336071428248,-0.3087358710562414,wait_cost,0.0,4.0,48.92324900627136,None,bh3,1,2023-04-04_10h06.34.937,threat_forest,2021.2.3,60.196737498672434,False,6.0,0.4833333333333333,0.4833333333333333,-1.145,-1.145,1,0,0,0.5494592514361246,-0.3087358710562414,0.0,0.4444444444444445,0.6666666666666666,0.6666666666666667,-1.0,-1.0,4.0,4.0,1.0,1.0,-1.0,5.0,0,0,1
0.0,0.0,0.0,0.0,5.0,0.0,5.0,0.0,,,,right,0.6854650974273682,58.95283579826355,bh3,58.95283579826355,None,23.699368953704838,27.20484495162964,False,4.0,['p'],True,0.4444444444444445,0.6666666666666666,0.3333333333333333,1.0,1.0,0.9656336071428248,-0.3474074074074074,wait_cost,0.0,3.0,55.470271825790405,None,bh3,1,2023-04-04_10h06.34.937,threat_forest,2021.2.3,60.196737498672434,False,6.0,0.4833333333333333,0.4833333333333333,-1.145,-1.145,1,0,0,-0.37765769677218647,-0.3474074074074074,0.0,0.4444444444444445,0.6666666666666666,0.6666666666666667,-1.0,-1.0,3.0,3.0,1.0,1.0,-1.0,4.0,0,0,1
0.0,0.0,0.0,0.0,6.0,0.0,6.0,0.0,,,,right,0.6915769577026367,63.071368932724,bh3,63.071368932724,None,23.699368953704838,27.20484495162964,False,3.0,['p'],True,0.4444444444444445,0.6666666666666666,0.3333333333333333,1.0,1.0,0.9656336071428248,-0.4761728395061728,wait_cost,0.0,2.0,61.67645692825317,None,bh3,1,2023-04-04_10h06.34.937,threat_forest,2021.2.3,60.196737498672434,False,6.0,0.4833333333333333,0.4833333333333333,-1.145,-1.145,1,0,0,-0.36878084310421366,-0.4761728395061728,0.0,0.4444444444444445,0.6666666666666666,0.6666666666666667,-1.0,-1.0,2.0,2.0,1.0,1.0,-1.0,3.0,0,0,1
0.0,0.0,0.0,0.0,7.0,0.0,7.0,0.0,,,,right,0.7932999134063721,68.89418196678162,bh3,68.89418196678162,None,23.699368953704838,27.20484495162964,False,2.0,['p'],True,0.4444444444444445,0.6666666666666666,0.3333333333333333,1.0,1.0,0.9656336071428248,-0.5555555555555556,wait_cost,0.0,1.0,65.79817986488342,None,bh3,1,2023-04-04_10h06.34.937,threat_forest,2021.2.3,60.196737498672434,False,6.0,0.4833333333333333,0.4833333333333333,-1.145,-1.145,1,0,0,-0.231553927830404,-0.5555555555555556,0.0,0.4444444444444445,0.6666666666666666,0.6666666666666667,-1.0,-1.0,1.0,1.0,1.0,1.0,-1.0,2.0,0,0,1
1.0,0.0,1.0,0.0,0.0,0.0,0.0,0.0,74.51404881477356,78.0275650024414,None,left,1.655961036682129,79.99339389801025,bh3,74.51404881477356,78.0275650024414,79.99339389801025,None,False,4.0,['r'],False,0.46875,0.625,0.25,2.0,2.0,0.9634951148421658,0.0146228087570071,wait_cost,1.0,3.0,,,bh3,1,2023-04-04_10h06.34.937,threat_forest,2021.2.3,60.196737498672434,False,62.0,0.6125,0.5479166666666666,0.012499999999999956,-0.56625,1,0,0,0.504381527112673,0.0146228087570071,0.46875,0.46875,0.625,0.75,-0.25,-0.375,3.625,3.625,0.0,2.0,-1.0,4.0,0,0,1
1.0,0.0,1.0,0.0,1.0,0.0,1.0,0.0,,,,left,0.806372880935669,86.42197895050049,bh3,86.42197895050049,None,81.68584680557251,83.6982729434967,True,3.0,['r'],True,0.6,0.6,0.0,0.0,2.0,0.6126016192893442,0.2104563208898306,succ_gain,0.0,5.0,83.6982729434967,None,bh3,1,2023-04-04_10h06.34.937,threat_forest,2021.2.3,60.196737498672434,True,62.0,0.6125,0.5479166666666666,0.012499999999999956,-0.56625,1,1,1,-0.21520901202260423,0.2104563208898306,0.6,0.6,0.6,1.0,0.3999999999999999,0.3999999999999999,3.4,3.4,1.0,2.0,-1.0,3.0,0,1,1
1.0,0.0,1.0,0.0,2.0,0.0,2.0,0.0,,,,left,1.5388731956481934,93.065682888031,bh3,87.26286387443542,89.27394580841064,93.065682888031,None,False,5.0,['r'],False,0.46875,0.625,0.25,2.0,2.0,0.9634951148421658,-0.0122776407927275,wait_cost,1.0,4.0,89.27394580841064,None,bh3,1,2023-04-04_10h06.34.937,threat_forest,2021.2.3,60.196737498672434,False,62.0,0.6125,0.5479166666666666,0.012499999999999956,-0.56625,1,0,0,0.4310504574713933,-0.0122776407927275,0.46875,0.46875,0.625,0.75,-0.25,-0.375,4.625,4.625,0.0,2.0,1.0,5.0,0,0,1
1.0,0.0,1.0,0.0,3.0,0.0,3.0,0.0,,,,left,1.304692029953003,97.1988639831543,bh3,87.26286387443542,89.27394580841064,97.1988639831543,None,False,4.0,['r'],False,0.46875,0.625,0.25,2.0,2.0,0.9634951148421658,0.0075810928344726,wait_cost,1.0,3.0,96.63169384002686,None,bh3,1,2023-04-04_10h06.34.937,threat_forest,2021.2.3,60.196737498672434,False,62.0,0.6125,0.5479166666666666,0.012499999999999956,-0.56625,1,0,0,0.26596702055089705,0.0075810928344726,0.46875,0.46875,0.625,0.75,-0.25,-0.375,3.625,3.625,0.0,2.0,-1.0,4.0,0,0,1
1.0,0.0,1.0,0.0,4.0,0.0,4.0,0.0,,,,left,0.8597629070281982,101.97150778770448,bh3,101.97150778770448,None,98.53643894195557,100.53600001335144,True,3.0,['r'],True,0.6,0.6,0.0,0.0,2.0,0.6126016192893442,0.2465625,succ_gain,0.0,5.0,100.53600001335144,None,bh3,1,2023-04-04_10h06.34.937,threat_forest,2021.2.3,60.196737498672434,True,62.0,0.6125,0.5479166666666666,0.012499999999999956,-0.56625,1,1,1,-0.1510986172460155,0.2465625,0.6,0.6,0.6,1.0,0.3999999999999999,0.3999999999999999,3.4,3.4,1.0,2.0,-1.0,3.0,0,1,1
1.0,0.0,1.0,0.0,5.0,0.0,5.0,0.0,,,,right,0.994431972503662,106.3504569530487,bh3,106.3504569530487,None,98.53643894195557,100.53600001335144,False,5.0,['r'],True,0.6,0.6,0.0,0.0,2.0,0.6126016192893442,0.0,wait_cost,0.0,4.0,104.8745768070221,None,bh3,1,2023-04-04_10h06.34.937,threat_forest,2021.2.3,60.196737498672434,False,62.0,0.6125,0.5479166666666666,0.012499999999999956,-0.56625,1,1,0,-0.005583586744531384,0.0,0.0,0.6,0.6,1.0,0.3999999999999999,0.3999999999999999,5.4,5.4,1.0,2.0,1.0,5.0,0,1,1
1.0,0.0,1.0,0.0,6.0,0.0,6.0,0.0,,,,left,1.037326097488403,110.51875400543211,bh3,107.38191294670104,109.39613080024719,110.51875400543211,None,False,4.0,['r'],False,0.46875,0.625,0.25,2.0,2.0,0.9634951148421658,-0.11640625,wait_cost,1.0,3.0,109.3961308002472,None,bh3,1,2023-04-04_10h06.34.937,threat_forest,2021.2.3,60.196737498672434,False,62.0,0.6125,0.5479166666666666,0.012499999999999956,-0.56625,1,0,0,0.03664634219478974,-0.11640625,0.0,0.46875,0.625,0.75,-0.25,-0.375,3.625,3.625,0.0,2.0,-1.0,4.0,0,0,1
1.0,0.0,1.0,0.0,7.0,0.0,7.0,0.0,,,,right,1.1205401420593262,116.93737483024596,bh3,116.93737483024596,None,111.58360290527344,113.58136296272278,False,3.0,['r'],True,0.6,0.6,0.0,0.0,2.0,0.6126016192893442,0.0,wait_cost,0.0,2.0,113.58136296272278,None,bh3,1,2023-04-04_10h06.34.937,threat_forest,2021.2.3,60.196737498672434,False,62.0,0.6125,0.5479166666666666,0.012499999999999956,-0.56625,1,1,0,0.11381083874817625,0.0,0.0,0.6,0.6,1.0,0.3999999999999999,0.3999999999999999,3.4,3.4,1.0,2.0,-1.0,3.0,0,1,1
2.0,0.0,2.0,0.0,0.0,0.0,0.0,0.0,121.61075186729433,125.11303997039796,None,left,1.407789945602417,128.30966782569885,bh3,121.61075186729433,125.11303997039795,128.30966782569885,None,False,5.0,['r'],False,0.24,0.4,0.4,2.0,2.0,0.9801625908629508,-0.0217856454141892,wait_cost,1.0,4.0,,,bh3,1,2023-04-04_10h06.34.937,threat_forest,2021.2.3,60.196737498672434,False,46.0,0.3666666666666667,0.48958333333333337,-1.0533333333333335,-0.5204166666666667,0,0,0,0.3420210602445387,-0.0217856454141892,0.24,0.24,0.4,0.6,-1.6,-1.4400000000000002,3.5599999999999996,3.5599999999999996,0.0,2.0,-1.0,5.0,0,0,0
2.0,0.0,2.0,0.0,1.0,0.0,1.0,0.0,,,,left,0.8947131633758545,132.40458989143372,bh3,132.40458989143372,None,129.739905834198,131.75420784950256,True,4.0,['r'],True,0.3333333333333333,0.3333333333333333,0.0,0.0,2.0,0.5793801642856949,0.0728093491358023,unsucc_cost,0.0,2.0,131.75420784950256,None,bh3,1,2023-04-04_10h06.34.937,threat_forest,2021.2.3,60.196737498672434,True,46.0,0.3666666666666667,0.48958333333333337,-1.0533333333333335,-0.5204166666666667,0,0,1,-0.11125209992269472,0.0728093491358023,0.3333333333333333,0.3333333333333333,0.3333333333333333,1.0,-0.6666666666666669,-0.6666666666666669,3.333333333333333,3.333333333333333,1.0,2.0,-1.0,4.0,0,0,0
2.0,0.0,2.0,0.0,2.0,0.0,2.0,0.0,,,,left,2.228580951690674,137.04664778709412,bh3,133.33005690574646,135.34133887290955,137.04664778709412,None,False,2.0,['r'],False,0.24,0.4,0.4,2.0,2.0,0.9801625908629508,-0.0075037037037035,wait_cost,1.0,1.0,135.34133887290955,None,bh3,1,2023-04-04_10h06.34.937,threat_forest,2021.2.3,60.196737498672434,False,46.0,0.3666666666666667,0.48958333333333337,-1.0533333333333335,-0.5204166666666667,0,0,0,0.8013650383855812,-0.0075037037037035,0.24,0.24,0.4,0.6,-1.6,-1.4400000000000002,0.5599999999999998,0.5599999999999998,0.0,2.0,-1.0,2.0,0,0,0
2.0,0.0,2.0,0.0,3.0,0.0,3.0,0.0,,,,left,0.7574529647827148,142.60190296173096,bh3,142.60190296173096,None,139.2991600036621,141.31161499023438,True,1.0,['r'],True,0.3333333333333333,0.3333333333333333,0.0,0.0,2.0,0.5793801642856949,0.1446074074074073,succ_gain,0.0,3.0,141.31161499023438,None,bh3,1,2023-04-04_10h06.34.937,threat_forest,2021.2.3,60.196737498672434,True,46.0,0.3666666666666667,0.48958333333333337,-1.0533333333333335,-0.5204166666666667,0,0,1,-0.2777938362225301,0.1446074074074073,1.0,0.3333333333333333,0.3333333333333333,1.0,-0.6666666666666669,-0.6666666666666669,0.33333333333333315,0.33333333333333315,1.0,2.0,-1.0,1.0,1,0,0
2.0,0.0,2.0,0.0,4.0,0.0,4.0,0.0,,,,left,2.036790132522583,146.8983929157257,bh3,146.8983929157257,None,139.2991600036621,141.31161499023438,True,3.0,['r'],True,0.3333333333333333,0.3333333333333333,0.0,0.0,2.0,0.5793801642856949,0.2144444444444444,succ_gain,0.0,5.0,145.4029188156128,None,bh3,1,2023-04-04_10h06.34.937,threat_forest,2021.2.3,60.196737498672434,True,46.0,0.3666666666666667,0.48958333333333337,-1.0533333333333335,-0.5204166666666667,0,0,1,0.7113751042111666,0.2144444444444444,0.3333333333333333,0.3333333333333333,0.3333333333333333,1.0,-0.6666666666666669,-0.6666666666666669,2.333333333333333,2.333333333333333,1.0,2.0,1.0,3.0,0,0,0
2.0,0.0,2.0,0.0,5.0,0.0,5.0,0.0,,,,right,1.1250410079956057,151.7194848060608,bh3,151.7194848060608,None,139.2991600036621,141.31161499023438,False,5.0,['r'],True,0.3333333333333333,0.3333333333333333,0.0,0.0,2.0,0.5793801642856949,0.0,wait_cost,0.0,4.0,150.9754638671875,None,bh3,1,2023-04-04_10h06.34.937,threat_forest,2021.2.3,60.196737498672434,False,46.0,0.3666666666666667,0.48958333333333337,-1.0533333333333335,-0.5204166666666667,0,0,0,0.11781948654369129,0.0,0.0,0.3333333333333333,0.3333333333333333,1.0,-0.6666666666666669,-0.6666666666666669,4.333333333333333,4.333333333333333,1.0,2.0,1.0,5.0,0,0,0
2.0,0.0,2.0,0.0,6.0,0.0,6.0,0.0,,,,right,0.9746420383453368,156.19264197349548,bh3,156.19264197349548,None,139.2991600036621,141.31161499023438,False,4.0,['r'],True,0.3333333333333333,0.3333333333333333,0.0,0.0,2.0,0.5793801642856949,0.0,wait_cost,0.0,3.0,154.87990593910217,None,bh3,1,2023-04-04_10h06.34.937,threat_forest,2021.2.3,60.196737498672434,False,46.0,0.3666666666666667,0.48958333333333337,-1.0533333333333335,-0.5204166666666667,0,0,0,-0.025685015555367216,0.0,0.0,0.3333333333333333,0.3333333333333333,1.0,-0.6666666666666669,-0.6666666666666669,3.333333333333333,3.333333333333333,1.0,2.0,-1.0,4.0,0,0,0
2.0,0.0,2.0,0.0,7.0,0.0,7.0,0.0,,,,right,0.8445689678192139,161.56449389457703,bh3,161.56449389457703,None,139.2991600036621,141.31161499023438,False,3.0,['r'],True,0.3333333333333333,0.3333333333333333,0.0,0.0,2.0,0.5793801642856949,0.0,wait_cost,0.0,2.0,159.21817088127136,None,bh3,1,2023-04-04_10h06.34.937,threat_forest,2021.2.3,60.196737498672434,False,46.0,0.3666666666666667,0.48958333333333337,-1.0533333333333335,-0.5204166666666667,0,0,0,-0.16892887902419562,0.0,0.0,0.3333333333333333,0.3333333333333333,1.0,-0.6666666666666669,-0.6666666666666669,2.333333333333333,2.333333333333333,1.0,2.0,-1.0,3.0,0,0,0
3.0,0.0,3.0,0.0,0.0,0.0,0.0,0.0,166.99829387664795,170.49641799926758,None,right,1.3261780738830566,173.6764898300171,bh3,166.99829387664795,170.49641799926758,173.6764898300171,None,True,4.0,['p'],False,0.375,0.5,0.25,1.0,1.0,0.9850568223215076,0.0300347076439857,unsucc_cost,1.0,2.0,,,bh3,1,2023-04-04_10h06.34.937,threat_forest,2021.2.3,60.196737498672434,True,50.0,0.35,0.35833333333333334,-1.2625000000000002,-1.157916666666667,1,1,1,0.2823011767764893,0.0300347076439857,0.375,0.375,0.5,0.75,-1.25,-1.125,2.875,2.875,0.0,1.0,-1.0,4.0,0,1,1
3.0,0.0,3.0,0.0,1.0,0.0,1.0,0.0,,,,right,1.0539240837097168,178.03831100463867,bh3,166.99829387664795,170.49641799926758,178.03831100463867,None,True,2.0,['p'],False,0.375,0.5,0.25,1.0,1.0,0.9850568223215076,0.0197937602996826,unsucc_cost,1.0,0.0,177.0393078327179,None,bh3,1,2023-04-04_10h06.34.937,threat_forest,2021.2.3,60.196737498672434,True,50.0,0.35,0.35833333333333334,-1.2625000000000002,-1.157916666666667,1,1,1,0.052520420684237214,0.0197937602996826,0.375,0.375,0.5,0.75,-1.25,-1.125,0.875,0.875,0.0,1.0,-1.0,2.0,0,1,1
4.0,0.0,4.0,0.0,0.0,0.0,0.0,0.0,182.2468719482422,185.74677300453183,None,left,1.4436039924621582,186.65641593933103,bh3,186.65641593933103,None,182.2468719482422,185.74677300453186,True,4.0,['p'],True,0.4444444444444445,0.6666666666666666,0.3333333333333333,1.0,2.0,0.9656336071428248,0.0732923330550286,unsucc_cost,0.0,2.0,,,bh3,1,2023-04-04_10h06.34.937,threat_forest,2021.2.3,60.196737498672434,True,15.0,0.4833333333333333,0.41666666666666663,-0.8977777777777778,-1.080138888888889,1,1,1,0.3671427594117648,0.0732923330550286,0.4444444444444445,0.4444444444444445,0.6666666666666666,0.6666666666666667,-0.3333333333333335,-0.5555555555555556,3.4444444444444446,3.4444444444444446,1.0,2.0,-1.0,4.0,0,1,1
4.0,0.0,4.0,0.0,1.0,0.0,1.0,0.0,,,,None,,191.0262370109558,bh3,191.0262370109558,None,182.2468719482422,185.74677300453186,False,2.0,['p'],True,0.4444444444444445,0.6666666666666666,0.3333333333333333,1.0,2.0,0.9656336071428248,0.0688626821412724,wait_cost,0.0,1.0,190.11905694007876,None,bh3,1,2023-04-04_10h06.34.937,threat_forest,2021.2.3,60.196737498672434,None,15.0,0.4833333333333333,0.41666666666666663,-0.8977777777777778,-1.080138888888889,1,1,0,,0.0688626821412724,0.4444444444444445,0.4444444444444445,0.6666666666666666,0.6666666666666667,-0.3333333333333335,-0.5555555555555556,1.4444444444444444,1.4444444444444444,1.0,2.0,-1.0,2.0,0,1,1
4.0,0.0,4.0,0.0,2.0,0.0,2.0,0.0,,,,left,1.258112907409668,199.3571138381958,bh3,199.3571138381958,None,182.2468719482422,185.74677300453186,True,1.0,['p'],True,0.4444444444444445,0.6666666666666666,0.3333333333333333,1.0,2.0,0.9656336071428248,0.1942183425968263,succ_gain,0.0,3.0,196.05883479118347,None,bh3,1,2023-04-04_10h06.34.937,threat_forest,2021.2.3,60.196737498672434,True,15.0,0.4833333333333333,0.41666666666666663,-0.8977777777777778,-1.080138888888889,1,1,1,0.22961290576884133,0.1942183425968263,1.0,0.4444444444444445,0.6666666666666666,0.6666666666666667,-0.3333333333333335,-0.5555555555555556,0.4444444444444444,0.4444444444444444,1.0,2.0,-1.0,1.0,1,1,1
4.0,0.0,4.0,0.0,3.0,0.0,3.0,0.0,,,,left,2.1868109703063965,204.21277594566345,bh3,204.21277594566345,None,182.2468719482422,185.74677300453186,True,3.0,['p'],True,0.4444444444444445,0.6666666666666666,0.3333333333333333,1.0,2.0,0.9656336071428248,0.0873158750190519,figh_cost,0.0,0.0,202.66607093811035,None,bh3,1,2023-04-04_10h06.34.937,threat_forest,2021.2.3,60.196737498672434,True,15.0,0.4833333333333333,0.41666666666666663,-0.8977777777777778,-1.080138888888889,1,1,1,0.7824443046286467,0.0873158750190519,0.4444444444444445,0.4444444444444445,0.6666666666666666,0.6666666666666667,-0.3333333333333335,-0.5555555555555556,2.4444444444444446,2.4444444444444446,1.0,2.0,1.0,3.0,0,1,1
5.0,0.0,5.0,0.0,0.0,0.0,0.0,0.0,210.4792969226837,213.9781630039215,None,right,1.1578500270843506,214.85662984848025,bh3,210.4792969226837,213.9781630039215,214.85662984848025,None,True,5.0,['r'],False,0.4285714285714285,0.4285714285714285,0.0,0.0,2.0,0.6216097450797565,0.0526055132283747,unsucc_cost,1.0,3.0,,,bh3,1,2023-04-04_10h06.34.937,threat_forest,2021.2.3,60.196737498672434,True,52.0,0.43650793650793646,0.45992063492063484,-0.5626102292768962,-0.730194003527337,1,0,1,0.14656486047376907,0.0526055132283747,0.4285714285714285,0.4285714285714285,0.4285714285714285,1.0,-0.28571428571428603,-0.28571428571428603,4.7142857142857135,4.7142857142857135,0.0,2.0,-1.0,5.0,0,0,1
5.0,0.0,5.0,0.0,1.0,0.0,1.0,0.0,,,,left,1.4918129444122314,219.22711181640625,bh3,219.22711181640625,None,216.0393807888031,218.04943680763245,True,3.0,['r'],True,0.345679012345679,0.4444444444444444,0.2222222222222222,2.0,2.0,0.9685033186841367,0.0688188688757238,unsucc_cost,0.0,1.0,218.04943680763245,None,bh3,1,2023-04-04_10h06.34.937,threat_forest,2021.2.3,60.196737498672434,True,52.0,0.43650793650793646,0.45992063492063484,-0.5626102292768962,-0.730194003527337,0,0,1,0.39999212154393465,0.0688188688757238,0.345679012345679,0.345679012345679,0.4444444444444444,0.7777777777777778,-0.888888888888889,-0.8395061728395062,2.1604938271604937,2.1604938271604937,1.0,2.0,-1.0,3.0,0,0,0
5.0,0.0,5.0,0.0,2.0,0.0,2.0,0.0,,,,right,0.757896900177002,224.55778193473816,bh3,220.7381749153137,222.73800802230835,224.55778193473816,None,True,1.0,['r'],False,0.4285714285714285,0.4285714285714285,0.0,0.0,2.0,0.6216097450797565,0.2143087570706274,unsucc_cost,1.0,0.0,222.73800802230835,None,bh3,1,2023-04-04_10h06.34.937,threat_forest,2021.2.3,60.196737498672434,True,52.0,0.43650793650793646,0.45992063492063484,-0.5626102292768962,-0.730194003527337,1,0,1,-0.2772079181883484,0.2143087570706274,1.0,0.4285714285714285,0.4285714285714285,1.0,-0.28571428571428603,-0.28571428571428603,0.714285714285714,0.714285714285714,0.0,2.0,-1.0,1.0,1,0,1
6.0,0.0,6.0,0.0,0.0,0.0,0.0,0.0,228.298241853714,231.79802584648127,None,left,1.2809779644012451,233.82447600364685,bh3,233.82447600364685,None,228.298241853714,231.79802584648132,True,4.0,['p'],True,0.48,0.6,0.2,1.0,1.0,0.9455672104350704,0.0573042085319639,succ_gain,0.0,5.0,,,bh3,1,2023-04-04_10h06.34.937,threat_forest,2021.2.3,60.196737498672434,True,4.0,0.4666666666666667,0.45158730158730154,-0.9911111111111113,-0.7768606701940037,1,1,1,0.24762382089407897,0.0573042085319639,0.48,0.48,0.6,0.8,-0.8000000000000002,-0.7600000000000002,3.2399999999999998,3.2399999999999998,1.0,1.0,-1.0,4.0,0,1,1
6.0,0.0,6.0,0.0,1.0,0.0,1.0,0.0,,,,left,1.502424955368042,240.50481796264648,bh3,240.50481796264648,None,228.298241853714,231.79802584648132,True,5.0,['p'],True,0.48,0.6,0.2,1.0,1.0,0.9455672104350704,0.0746559681311909,unsucc_cost,0.0,3.0,237.1540169715881,None,bh3,1,2023-04-04_10h06.34.937,threat_forest,2021.2.3,60.196737498672434,True,4.0,0.4666666666666667,0.45158730158730154,-0.9911111111111113,-0.7768606701940037,1,1,1,0.40708043966940255,0.0746559681311909,0.48,0.48,0.6,0.8,-0.8000000000000002,-0.7600000000000002,4.24,4.24,1.0,1.0,1.0,5.0,0,1,1
6.0,0.0,6.0,0.0,2.0,0.0,2.0,0.0,,,,left,1.3326351642608645,245.42656993865967,bh3,242.0337109565735,244.0424678325653,245.42656993865967,None,False,3.0,['p'],False,0.2962962962962963,0.3333333333333333,0.1111111111111111,1.0,1.0,0.8325252476189534,0.0084111177933203,wait_cost,1.0,2.0,244.0424678325653,None,bh3,1,2023-04-04_10h06.34.937,threat_forest,2021.2.3,60.196737498672434,False,4.0,0.4666666666666667,0.45158730158730154,-0.9911111111111113,-0.7768606701940037,0,0,0,0.2871583085070385,0.0084111177933203,0.2962962962962963,0.2962962962962963,0.3333333333333333,0.8888888888888888,-1.3333333333333335,-1.2222222222222223,1.7777777777777777,1.7777777777777777,0.0,1.0,-1.0,3.0,0,0,0
6.0,0.0,6.0,0.0,3.0,0.0,3.0,0.0,,,,left,1.4534549713134766,252.1700599193573,bh3,242.0337109565735,244.0424678325653,252.1700599193573,None,False,2.0,['p'],False,0.2962962962962963,0.3333333333333333,0.1111111111111111,1.0,1.0,0.8325252476189534,-0.0250792273535538,wait_cost,1.0,1.0,248.7833127975464,None,bh3,1,2023-04-04_10h06.34.937,threat_forest,2021.2.3,60.196737498672434,False,4.0,0.4666666666666667,0.45158730158730154,-0.9911111111111113,-0.7768606701940037,0,0,0,0.3739434610484271,-0.0250792273535538,0.2962962962962963,0.2962962962962963,0.3333333333333333,0.8888888888888888,-1.3333333333333335,-1.2222222222222223,0.7777777777777777,0.7777777777777777,0.0,1.0,-1.0,2.0,0,0,0
6.0,0.0,6.0,0.0,4.0,0.0,4.0,0.0,,,,right,1.850313901901245,259.1923909187317,bh3,242.0337109565735,244.0424678325653,259.1923909187317,None,True,1.0,['p'],False,0.2962962962962963,0.3333333333333333,0.1111111111111111,1.0,1.0,0.8325252476189534,0.1286145404663923,unsucc_cost,1.0,0.0,255.67444396018985,None,bh3,1,2023-04-04_10h06.34.937,threat_forest,2021.2.3,60.196737498672434,True,4.0,0.4666666666666667,0.45158730158730154,-0.9911111111111113,-0.7768606701940037,0,0,1,0.6153553014001454,0.1286145404663923,1.0,0.2962962962962963,0.3333333333333333,0.8888888888888888,-1.3333333333333335,-1.2222222222222223,-0.22222222222222232,0.0,0.0,1.0,-1.0,1.0,1,0,0
7.0,0.0,7.0,0.0,0.0,0.0,0.0,0.0,264.4541988372803,267.95429491996765,None,left,2.0012149810791016,268.8513398170471,bh3,264.4541988372803,267.95429491996765,268.8513398170471,None,False,5.0,['r'],False,0.4081632653061224,0.5714285714285714,0.2857142857142857,2.0,1.0,0.9885754083994552,-0.0004231906775603,wait_cost,1.0,4.0,,,bh3,1,2023-04-04_10h06.34.937,threat_forest,2021.2.3,60.196737498672434,False,44.0,0.5357142857142857,0.5011904761904762,-0.7806122448979592,-0.8858616780045352,0,0,0,0.6937544866518146,-0.0004231906775603,0.4081632653061224,0.4081632653061224,0.5714285714285714,0.7142857142857143,-1.1428571428571428,-1.0612244897959184,3.9387755102040813,3.9387755102040813,0.0,1.0,-1.0,5.0,0,0,0
7.0,0.0,7.0,0.0,1.0,0.0,1.0,0.0,,,,left,1.657684087753296,276.5109829902649,bh3,264.4541988372803,267.95429491996765,276.5109829902649,None,False,4.0,['r'],False,0.4081632653061224,0.5714285714285714,0.2857142857142857,2.0,1.0,0.9885754083994552,0.026984270692714,wait_cost,1.0,3.0,272.8931908607483,None,bh3,1,2023-04-04_10h06.34.937,threat_forest,2021.2.3,60.196737498672434,False,44.0,0.5357142857142857,0.5011904761904762,-0.7806122448979592,-0.8858616780045352,0,0,0,0.5054215004120208,0.026984270692714,0.4081632653061224,0.4081632653061224,0.5714285714285714,0.7142857142857143,-1.1428571428571428,-1.0612244897959184,2.9387755102040813,2.9387755102040813,0.0,1.0,-1.0,4.0,0,0,0
7.0,0.0,7.0,0.0,2.0,0.0,2.0,0.0,,,,left,0.7550230026245117,282.32202982902527,bh3,282.32202982902527,None,278.2046208381653,280.21822786331177,True,3.0,['r'],True,0.5,0.5,0.0,0.0,1.0,0.6309297535714574,0.1200795179904086,unsucc_cost,0.0,1.0,280.21822786331177,None,bh3,1,2023-04-04_10h06.34.937,threat_forest,2021.2.3,60.196737498672434,True,44.0,0.5357142857142857,0.5011904761904762,-0.7806122448979592,-0.8858616780045352,1,0,1,-0.28100706314489016,0.1200795179904086,0.5,0.5,0.5,1.0,-0.5,-0.5,2.5,2.5,1.0,1.0,-1.0,3.0,0,0,1
7.0,0.0,7.0,0.0,3.0,0.0,3.0,0.0,,,,right,2.2929818630218506,287.0621910095215,bh3,283.107234954834,285.1070258617401,287.0621910095215,None,True,1.0,['r'],False,0.4081632653061224,0.5714285714285714,0.2857142857142857,2.0,1.0,0.9885754083994552,0.1180805612370661,figh_cost,1.0,0.0,285.1070258617401,None,bh3,1,2023-04-04_10h06.34.937,threat_forest,2021.2.3,60.196737498672434,True,44.0,0.5357142857142857,0.5011904761904762,-0.7806122448979592,-0.8858616780045352,0,0,1,0.829853094128764,0.1180805612370661,1.0,0.4081632653061224,0.5714285714285714,0.7142857142857143,-1.1428571428571428,-1.0612244897959184,-0.061224489795918435,0.0,0.0,1.0,-1.0,1.0,1,0,0
8.0,0.0,8.0,0.0,0.0,0.0,0.0,0.0,293.5737788677216,297.0864658355713,None,right,1.702570915222168,300.06551790237427,bh3,293.5737788677216,297.0864658355713,300.06551790237427,None,True,5.0,['p'],False,0.375,0.5,0.25,1.0,2.0,0.9850568223215076,0.0153323500884942,unsucc_cost,1.0,3.0,,,bh3,1,2023-04-04_10h06.34.937,threat_forest,2021.2.3,60.196737498672434,True,31.0,0.41666666666666663,0.47619047619047616,-0.9675925925925928,-0.8741024187452759,1,0,1,0.5321394117553468,0.0153323500884942,0.375,0.375,0.5,0.75,-0.75,-0.75,4.25,4.25,0.0,2.0,-1.0,5.0,0,0,1
8.0,0.0,8.0,0.0,1.0,0.0,1.0,0.0,,,,left,1.6935269832611084,306.84298396110535,bh3,293.5737788677216,297.0864658355713,306.84298396110535,None,False,3.0,['p'],False,0.375,0.5,0.25,1.0,2.0,0.9850568223215076,0.0791642167699067,wait_cost,1.0,2.0,303.8048849105835,None,bh3,1,2023-04-04_10h06.34.937,threat_forest,2021.2.3,60.196737498672434,False,31.0,0.41666666666666663,0.47619047619047616,-0.9675925925925928,-0.8741024187452759,1,0,0,0.5268133265772204,0.0791642167699067,0.375,0.375,0.5,0.75,-0.75,-0.75,2.25,2.25,0.0,2.0,-1.0,3.0,0,0,1
8.0,0.0,8.0,0.0,2.0,0.0,2.0,0.0,,,,left,1.982442855834961,314.1510729789734,bh3,293.5737788677216,297.0864658355713,314.1510729789734,None,False,2.0,['p'],False,0.375,0.5,0.25,1.0,2.0,0.9850568223215076,0.044282183751892,wait_cost,1.0,1.0,310.5684938430786,None,bh3,1,2023-04-04_10h06.34.937,threat_forest,2021.2.3,60.196737498672434,False,31.0,0.41666666666666663,0.47619047619047616,-0.9675925925925928,-0.8741024187452759,1,0,0,0.6843298498163364,0.044282183751892,0.375,0.375,0.5,0.75,-0.75,-0.75,1.25,1.25,0.0,2.0,-1.0,2.0,0,0,1
8.0,0.0,8.0,0.0,3.0,0.0,3.0,0.0,,,,left,1.058478832244873,319.8681449890137,bh3,319.8681449890137,None,316.1603829860687,318.1599907875061,True,1.0,['p'],True,0.2592592592592592,0.3333333333333333,0.2222222222222222,2.0,2.0,0.9327883776363324,0.118950799865366,figh_cost,0.0,0.0,318.1599907875061,None,bh3,1,2023-04-04_10h06.34.937,threat_forest,2021.2.3,60.196737498672434,True,31.0,0.41666666666666663,0.47619047619047616,-0.9675925925925928,-0.8741024187452759,0,0,1,0.05683281351362844,0.118950799865366,1.0,0.2592592592592592,0.3333333333333333,0.7777777777777778,-1.3333333333333335,-1.1851851851851856,-0.18518518518518556,0.0,1.0,2.0,-1.0,1.0,1,0,0
9.0,0.0,9.0,0.0,0.0,0.0,0.0,0.0,325.8850169181824,329.3888759613037,None,left,1.2872278690338137,331.4352309703827,bh3,325.8850169181824,329.3888759613037,331.4352309703827,None,False,4.0,['r'],False,0.3333333333333333,0.5,0.3333333333333333,2.0,1.0,1.0,0.0143529277549154,wait_cost,1.0,3.0,,,bh3,1,2023-04-04_10h06.34.937,threat_forest,2021.2.3,60.196737498672434,False,7.0,0.45,0.43333333333333335,-1.0666666666666667,-1.0171296296296297,0,0,0,0.25249096735803395,0.0143529277549154,0.3333333333333333,0.3333333333333333,0.5,0.6666666666666667,-1.5,-1.3333333333333335,2.6666666666666665,2.6666666666666665,0.0,1.0,-1.0,4.0,0,0,0
9.0,0.0,9.0,0.0,1.0,0.0,1.0,0.0,,,,left,0.8024311065673828,338.13479685783386,bh3,338.13479685783386,None,332.74559688568115,334.7449688911438,True,3.0,['r'],True,0.4,0.4,0.0,0.0,1.0,0.6126016192893442,0.0581987366255143,unsucc_cost,0.0,1.0,334.7449688911438,None,bh3,1,2023-04-04_10h06.34.937,threat_forest,2021.2.3,60.196737498672434,True,7.0,0.45,0.43333333333333335,-1.0666666666666667,-1.0171296296296297,1,0,1,-0.22010927617732545,0.0581987366255143,0.4,0.4,0.4,1.0,-0.7999999999999999,-0.7999999999999999,2.2,2.2,1.0,1.0,-1.0,3.0,0,0,1
9.0,0.0,9.0,0.0,2.0,0.0,2.0,0.0,,,,right,1.2624759674072266,341.6220638751984,bh3,338.97289991378784,340.9855868816376,341.6220638751984,None,True,1.0,['r'],False,0.3333333333333333,0.5,0.3333333333333333,2.0,1.0,1.0,0.0530240740740739,figh_cost,1.0,0.0,340.9855868816376,None,bh3,1,2023-04-04_10h06.34.937,threat_forest,2021.2.3,60.196737498672434,True,7.0,0.45,0.43333333333333335,-1.0666666666666667,-1.0171296296296297,0,0,1,0.233074846269148,0.0530240740740739,1.0,0.3333333333333333,0.5,0.6666666666666667,-1.5,-1.3333333333333335,-0.3333333333333335,0.0,0.0,1.0,-1.0,1.0,1,0,0
10.0,0.0,10.0,0.0,0.0,0.0,0.0,0.0,347.98022198677063,351.47973585128784,None,left,1.3589069843292236,353.9745788574219,bh3,353.9745788574219,None,347.98022198677063,351.47973585128784,True,5.0,['p'],True,0.4444444444444445,0.6666666666666666,0.3333333333333333,1.0,2.0,0.9656336071428248,0.0381387997233528,unsucc_cost,0.0,3.0,,,bh3,1,2023-04-04_10h06.34.937,threat_forest,2021.2.3,60.196737498672434,True,41.0,0.43333333333333335,0.44166666666666665,-0.9677777777777778,-1.0172222222222222,1,1,1,0.30668068862440523,0.0381387997233528,0.4444444444444445,0.4444444444444445,0.6666666666666666,0.6666666666666667,-0.3333333333333335,-0.5555555555555556,4.444444444444445,4.444444444444445,1.0,2.0,-1.0,5.0,0,1,1
10.0,0.0,10.0,0.0,1.0,0.0,1.0,0.0,,,,left,1.0601599216461182,360.37979197502136,bh3,355.3573958873749,357.3702349662781,360.37979197502136,None,False,3.0,['p'],False,0.18,0.2,0.1,1.0,2.0,0.7058405977926203,0.0098185922261646,wait_cost,1.0,2.0,357.3702349662781,None,bh3,1,2023-04-04_10h06.34.937,threat_forest,2021.2.3,60.196737498672434,False,41.0,0.43333333333333335,0.44166666666666665,-0.9677777777777778,-1.0172222222222222,0,0,0,0.058419766221790674,0.0098185922261646,0.18,0.18,0.2,0.9,-1.5000000000000002,-1.3800000000000001,1.6199999999999999,1.6199999999999999,0.0,2.0,-1.0,3.0,0,0,0
10.0,0.0,10.0,0.0,2.0,0.0,2.0,0.0,,,,left,0.8988511562347412,365.3616259098053,bh3,365.3616259098053,None,361.4604239463806,363.4598867893219,True,2.0,['p'],True,0.4444444444444445,0.6666666666666666,0.3333333333333333,1.0,2.0,0.9656336071428248,0.0883836365594675,succ_gain,0.0,4.0,363.4598867893219,None,bh3,1,2023-04-04_10h06.34.937,threat_forest,2021.2.3,60.196737498672434,True,41.0,0.43333333333333335,0.44166666666666665,-0.9677777777777778,-1.0172222222222222,1,1,1,-0.10663782414160324,0.0883836365594675,0.4444444444444445,0.4444444444444445,0.6666666666666666,0.6666666666666667,-0.3333333333333335,-0.5555555555555556,1.4444444444444444,1.4444444444444444,1.0,2.0,-1.0,2.0,0,1,1
10.0,0.0,10.0,0.0,3.0,0.0,3.0,0.0,,,,left,0.9554460048675536,371.43880581855774,bh3,366.28395795822144,368.2989218235016,371.43880581855774,None,False,4.0,['p'],False,0.18,0.2,0.1,1.0,2.0,0.7058405977926203,0.00742721042524,wait_cost,1.0,3.0,368.2989218235016,None,bh3,1,2023-04-04_10h06.34.937,threat_forest,2021.2.3,60.196737498672434,False,41.0,0.43333333333333335,0.44166666666666665,-0.9677777777777778,-1.0172222222222222,0,0,0,-0.045577026717959476,0.00742721042524,0.18,0.18,0.2,0.9,-1.5000000000000002,-1.3800000000000001,2.62,2.62,0.0,2.0,1.0,4.0,0,0,0
10.0,0.0,10.0,0.0,4.0,0.0,4.0,0.0,,,,left,1.8528070449829104,377.9259510040283,bh3,377.9259510040283,None,372.4215598106384,374.4221999645233,True,3.0,['p'],True,0.4444444444444445,0.6666666666666666,0.3333333333333333,1.0,2.0,0.9656336071428248,0.1354938271604938,figh_cost,0.0,0.0,374.4221999645233,None,bh3,1,2023-04-04_10h06.34.937,threat_forest,2021.2.3,60.196737498672434,True,41.0,0.43333333333333335,0.44166666666666665,-0.9677777777777778,-1.0172222222222222,1,1,1,0.6167018107332817,0.1354938271604938,0.4444444444444445,0.4444444444444445,0.6666666666666666,0.6666666666666667,-0.3333333333333335,-0.5555555555555556,2.4444444444444446,2.4444444444444446,1.0,2.0,-1.0,3.0,0,1,1
11.0,0.0,11.0,0.0,0.0,0.0,0.0,0.0,384.4529979228973,387.9492359161377,None,left,1.1464719772338867,391.1835689544678,bh3,391.1835689544678,None,384.4529979228973,387.9492359161377,True,4.0,['p'],True,0.4444444444444445,0.6666666666666666,0.3333333333333333,1.0,2.0,0.9656336071428248,0.064046602155505,figh_cost,0.0,1.0,,,bh3,1,2023-04-04_10h06.34.937,threat_forest,2021.2.3,60.196737498672434,True,1.0,0.4833333333333333,0.4583333333333333,-0.7877777777777778,-0.8777777777777778,1,0,1,0.1366893810056736,0.064046602155505,0.4444444444444445,0.4444444444444445,0.6666666666666666,0.6666666666666667,-0.3333333333333335,-0.5555555555555556,3.4444444444444446,3.4444444444444446,1.0,2.0,-1.0,4.0,0,0,1
11.0,0.0,11.0,0.0,1.0,0.0,1.0,0.0,,,,right,1.142413854598999,396.45132994651794,bh3,392.3656978607178,394.37772583961487,396.45132994651794,None,True,1.0,['p'],False,0.27,0.3,0.1,1.0,2.0,0.7963326591781347,0.0847047359907922,unsucc_cost,1.0,0.0,394.37772583961487,None,bh3,1,2023-04-04_10h06.34.937,threat_forest,2021.2.3,60.196737498672434,True,1.0,0.4833333333333333,0.4583333333333333,-0.7877777777777778,-0.8777777777777778,0,0,1,0.13314344015481805,0.0847047359907922,1.0,0.27,0.3,0.9,-1.1,-1.02,-0.020000000000000018,0.0,0.0,2.0,-1.0,1.0,1,0,0
12.0,0.0,12.0,0.0,0.0,0.0,0.0,0.0,401.522567987442,405.02239179611206,None,right,0.9511408805847168,407.92206597328186,bh3,407.92206597328186,None,401.522567987442,405.02239179611206,False,4.0,['p'],True,0.18,0.2,0.1,1.0,1.0,0.7058405977926203,-0.0012447101888581,wait_cost,0.0,3.0,,,bh3,1,2023-04-04_10h06.34.937,threat_forest,2021.2.3,60.196737498672434,False,11.0,0.35,0.41666666666666663,-1.3425000000000002,-1.065138888888889,0,0,0,-0.050093087992200525,-0.0012447101888581,0.18,0.18,0.2,0.9,-1.7000000000000002,-1.5600000000000003,2.4399999999999995,2.4399999999999995,1.0,1.0,-1.0,4.0,0,0,0
12.0,0.0,12.0,0.0,1.0,0.0,1.0,0.0,,,,right,1.1321558952331543,412.7284209728241,bh3,412.7284209728241,None,401.522567987442,405.02239179611206,False,3.0,['p'],True,0.18,0.2,0.1,1.0,1.0,0.7058405977926203,0.0095213043566894,wait_cost,0.0,2.0,410.9123649597168,None,bh3,1,2023-04-04_10h06.34.937,threat_forest,2021.2.3,60.196737498672434,False,11.0,0.35,0.41666666666666663,-1.3425000000000002,-1.065138888888889,0,0,0,0.12412368693598778,0.0095213043566894,0.18,0.18,0.2,0.9,-1.7000000000000002,-1.5600000000000003,1.4399999999999997,1.4399999999999997,1.0,1.0,-1.0,3.0,0,0,0
12.0,0.0,12.0,0.0,2.0,0.0,2.0,0.0,,,,right,0.8834969997406006,417.6503059864044,bh3,417.6503059864044,None,401.522567987442,405.02239179611206,False,2.0,['p'],True,0.18,0.2,0.1,1.0,1.0,0.7058405977926203,-0.0022718469726562,wait_cost,0.0,1.0,415.8844439983368,None,bh3,1,2023-04-04_10h06.34.937,threat_forest,2021.2.3,60.196737498672434,False,11.0,0.35,0.41666666666666663,-1.3425000000000002,-1.065138888888889,0,0,0,-0.12386738310749483,-0.0022718469726562,0.18,0.18,0.2,0.9,-1.7000000000000002,-1.5600000000000003,0.4399999999999997,0.4399999999999997,1.0,1.0,-1.0,2.0,0,0,0
12.0,0.0,12.0,0.0,3.0,0.0,3.0,0.0,,,,right,1.524240016937256,423.6451230049133,bh3,418.5576798915863,420.5562949180603,423.6451230049133,None,True,1.0,['p'],False,0.375,0.5,0.25,1.0,1.0,0.9850568223215076,0.0471695800781249,succ_gain,1.0,2.0,420.5562949180603,None,bh3,1,2023-04-04_10h06.34.937,threat_forest,2021.2.3,60.196737498672434,True,11.0,0.35,0.41666666666666663,-1.3425000000000002,-1.065138888888889,0,0,1,0.42149593629262716,0.0471695800781249,1.0,0.375,0.5,0.75,-1.25,-1.125,-0.125,0.0,0.0,1.0,-1.0,1.0,1,0,0
12.0,0.0,12.0,0.0,4.0,0.0,4.0,0.0,,,,right,0.7576789855957031,429.1680309772492,bh3,429.1680309772492,None,425.2006349563599,427.21413683891296,False,2.0,['p'],True,0.18,0.2,0.1,1.0,1.0,0.7058405977926203,-0.01323675,wait_cost,0.0,1.0,427.21413683891296,None,bh3,1,2023-04-04_10h06.34.937,threat_forest,2021.2.3,60.196737498672434,False,11.0,0.35,0.41666666666666663,-1.3425000000000002,-1.065138888888889,0,0,0,-0.2774954848946363,-0.01323675,0.18,0.18,0.2,0.9,-1.7000000000000002,-1.5600000000000003,0.4399999999999997,0.4399999999999997,1.0,1.0,1.0,2.0,0,0,0
12.0,0.0,12.0,0.0,5.0,0.0,5.0,0.0,,,,left,1.346709966659546,434.2527899742127,bh3,434.2527899742127,None,425.2006349563599,427.21413683891296,True,1.0,['p'],True,0.18,0.2,0.1,1.0,1.0,0.7058405977926203,0.0587249999999999,unsucc_cost,0.0,0.0,431.9688718318939,None,bh3,1,2023-04-04_10h06.34.937,threat_forest,2021.2.3,60.196737498672434,True,11.0,0.35,0.41666666666666663,-1.3425000000000002,-1.065138888888889,0,0,1,0.29766455624809646,0.0587249999999999,1.0,0.18,0.2,0.9,-1.7000000000000002,-1.5600000000000003,-0.5600000000000003,0.0,1.0,1.0,-1.0,1.0,1,0,0
13.0,0.0,13.0,0.0,0.0,0.0,0.0,0.0,438.6944270133972,442.19699692726135,None,left,2.3776891231536865,444.19423484802246,bh3,438.6944270133972,442.19699692726135,444.19423484802246,None,False,4.0,['r'],False,0.24,0.4,0.4,2.0,1.0,0.9801625908629508,0.0009688829723073,wait_cost,1.0,3.0,,,bh3,1,2023-04-04_10h06.34.937,threat_forest,2021.2.3,60.196737498672434,False,28.0,0.3666666666666667,0.35833333333333334,-1.3400000000000003,-1.3412500000000003,0,0,0,0.8661290593415047,0.0009688829723073,0.24,0.24,0.4,0.6,-2.0,-1.6800000000000002,2.32,2.32,0.0,1.0,-1.0,4.0,0,0,0
13.0,0.0,13.0,0.0,1.0,0.0,1.0,0.0,,,,left,1.6563589572906494,451.0876588821411,bh3,438.6944270133972,442.19699692726135,451.0876588821411,None,False,3.0,['r'],False,0.24,0.4,0.4,2.0,1.0,0.9801625908629508,0.0090883802469137,wait_cost,1.0,2.0,448.6209769248962,None,bh3,1,2023-04-04_10h06.34.937,threat_forest,2021.2.3,60.196737498672434,False,28.0,0.3666666666666667,0.35833333333333334,-1.3400000000000003,-1.3412500000000003,0,0,0,0.504621794122599,0.0090883802469137,0.24,0.24,0.4,0.6,-2.0,-1.6800000000000002,1.3199999999999998,1.3199999999999998,0.0,1.0,-1.0,3.0,0,0,0
13.0,0.0,13.0,0.0,2.0,0.0,2.0,0.0,,,,right,0.8093829154968262,457.0609669685364,bh3,438.6944270133972,442.19699692726135,457.0609669685364,None,True,2.0,['r'],False,0.24,0.4,0.4,2.0,1.0,0.9801625908629508,0.0087973116049383,unsucc_cost,1.0,0.0,454.7775919437408,None,bh3,1,2023-04-04_10h06.34.937,threat_forest,2021.2.3,60.196737498672434,True,28.0,0.3666666666666667,0.35833333333333334,-1.3400000000000003,-1.3412500000000003,0,0,1,-0.21148315437763762,0.0087973116049383,0.24,0.24,0.4,0.6,-2.0,-1.6800000000000002,0.31999999999999984,0.31999999999999984,0.0,1.0,-1.0,2.0,0,0,0
14.0,0.0,14.0,0.0,0.0,0.0,0.0,0.0,462.1908450126648,465.69356083869934,None,left,1.2056050300598145,467.3562958240509,bh3,467.3562958240509,None,462.1908450126648,465.69356083869934,True,5.0,['r'],True,0.24,0.3,0.2,2.0,2.0,0.9003120349047065,-0.0006443703968158,unsucc_cost,0.0,3.0,,,bh3,1,2023-04-04_10h06.34.937,threat_forest,2021.2.3,60.196737498672434,True,55.0,0.2928571428571428,0.32976190476190476,-1.0485714285714285,-1.1942857142857144,0,0,1,0.18698154056747543,-0.0006443703968158,0.24,0.24,0.3,0.8,-1.4,-1.24,3.76,3.76,1.0,2.0,-1.0,5.0,0,0,0
14.0,0.0,14.0,0.0,1.0,0.0,1.0,0.0,,,,right,0.7573521137237549,473.6014289855957,bh3,468.59601879119873,470.6042687892914,473.6014289855957,None,True,3.0,['r'],False,0.2857142857142857,0.2857142857142857,0.0,0.0,2.0,0.5445684476282007,0.0813189773311461,unsucc_cost,1.0,1.0,470.6042687892914,None,bh3,1,2023-04-04_10h06.34.937,threat_forest,2021.2.3,60.196737498672434,True,55.0,0.2928571428571428,0.32976190476190476,-1.0485714285714285,-1.1942857142857144,1,0,1,-0.2779269900659387,0.0813189773311461,0.2857142857142857,0.2857142857142857,0.2857142857142857,1.0,-0.8571428571428572,-0.8571428571428572,2.142857142857143,2.142857142857143,0.0,2.0,-1.0,3.0,0,0,1
14.0,0.0,14.0,0.0,2.0,0.0,2.0,0.0,,,,left,1.2110679149627686,480.2253828048706,bh3,480.2253828048706,None,474.3868489265442,476.4016058444977,True,1.0,['r'],True,0.24,0.3,0.2,2.0,2.0,0.9003120349047065,0.0803828504416493,unsucc_cost,0.0,0.0,476.4016058444977,None,bh3,1,2023-04-04_10h06.34.937,threat_forest,2021.2.3,60.196737498672434,True,55.0,0.2928571428571428,0.32976190476190476,-1.0485714285714285,-1.1942857142857144,0,0,1,0.19150254471830927,0.0803828504416493,1.0,0.24,0.3,0.8,-1.4,-1.24,-0.24,0.0,1.0,2.0,-1.0,1.0,1,0,0
15.0,0.0,15.0,0.0,0.0,0.0,0.0,0.0,485.26423692703247,488.765172958374,None,right,1.0185940265655518,491.3034129142761,bh3,485.26423692703247,488.765172958374,491.3034129142761,None,True,5.0,['r'],False,0.3333333333333333,0.3333333333333333,0.0,0.0,2.0,0.5793801642856949,0.0388172421765338,unsucc_cost,1.0,3.0,,,bh3,1,2023-04-04_10h06.34.937,threat_forest,2021.2.3,60.196737498672434,True,40.0,0.35416666666666663,0.3235119047619047,-0.8958333333333335,-0.972202380952381,1,1,1,0.01842327109377119,0.0388172421765338,0.3333333333333333,0.3333333333333333,0.3333333333333333,1.0,-0.6666666666666669,-0.6666666666666669,4.333333333333333,4.333333333333333,0.0,2.0,-1.0,5.0,0,1,1
15.0,0.0,15.0,0.0,1.0,0.0,1.0,0.0,,,,right,1.0631120204925537,496.747545003891,bh3,485.26423692703247,488.765172958374,496.747545003891,None,True,3.0,['r'],False,0.3333333333333333,0.3333333333333333,0.0,0.0,2.0,0.5793801642856949,0.1051879490716752,unsucc_cost,1.0,1.0,494.37158489227295,None,bh3,1,2023-04-04_10h06.34.937,threat_forest,2021.2.3,60.196737498672434,True,40.0,0.35416666666666663,0.3235119047619047,-0.8958333333333335,-0.972202380952381,1,1,1,0.061200475268114535,0.1051879490716752,0.3333333333333333,0.3333333333333333,0.3333333333333333,1.0,-0.6666666666666669,-0.6666666666666669,2.333333333333333,2.333333333333333,0.0,2.0,-1.0,3.0,0,1,1
15.0,0.0,15.0,0.0,2.0,0.0,2.0,0.0,,,,right,0.808189868927002,501.8302309513092,bh3,485.26423692703247,488.765172958374,501.8302309513092,None,True,1.0,['r'],False,0.3333333333333333,0.3333333333333333,0.0,0.0,2.0,0.5793801642856949,0.1304442796687529,unsucc_cost,1.0,0.0,499.8610689640045,None,bh3,1,2023-04-04_10h06.34.937,threat_forest,2021.2.3,60.196737498672434,True,40.0,0.35416666666666663,0.3235119047619047,-0.8958333333333335,-0.972202380952381,1,1,1,-0.21295826177020236,0.1304442796687529,1.0,0.3333333333333333,0.3333333333333333,1.0,-0.6666666666666669,-0.6666666666666669,0.33333333333333315,0.33333333333333315,0.0,2.0,-1.0,1.0,1,1,1
16.0,0.0,16.0,0.0,0.0,0.0,0.0,0.0,507.6234538555145,511.12299489974976,None,left,0.8506588935852051,514.8862149715424,bh3,514.8862149715424,None,507.6234538555145,511.12299489974976,True,4.0,['r'],True,0.6,0.6,0.0,0.0,1.0,0.6126016192893442,0.106823090374617,unsucc_cost,0.0,2.0,,,bh3,1,2023-04-04_10h06.34.937,threat_forest,2021.2.3,60.196737498672434,True,38.0,0.6125,0.48333333333333334,-0.5218750000000001,-0.7088541666666668,1,1,1,-0.1617440608622617,0.106823090374617,0.6,0.6,0.6,1.0,-0.20000000000000007,-0.20000000000000007,3.8,3.8,1.0,1.0,-1.0,4.0,0,1,1
16.0,0.0,16.0,0.0,1.0,0.0,1.0,0.0,,,,right,1.7224228382110596,519.5599439144135,bh3,519.5599439144135,None,507.6234538555145,511.12299489974976,False,2.0,['r'],True,0.6,0.6,0.0,0.0,1.0,0.6126016192893442,0.0828427075234651,wait_cost,0.0,1.0,517.7639219760895,None,bh3,1,2023-04-04_10h06.34.937,threat_forest,2021.2.3,60.196737498672434,False,38.0,0.6125,0.48333333333333334,-0.5218750000000001,-0.7088541666666668,1,1,0,0.5437319265081283,0.0828427075234651,0.6,0.6,0.6,1.0,-0.20000000000000007,-0.20000000000000007,1.7999999999999998,1.7999999999999998,1.0,1.0,-1.0,2.0,0,1,1
16.0,0.0,16.0,0.0,2.0,0.0,2.0,0.0,,,,right,1.019503831863403,525.7462859153748,bh3,521.3069589138031,523.32017993927,525.7462859153748,None,True,1.0,['r'],False,0.46875,0.625,0.25,2.0,1.0,0.9634951148421658,0.1616292114257812,succ_gain,1.0,2.0,523.32017993927,None,bh3,1,2023-04-04_10h06.34.937,threat_forest,2021.2.3,60.196737498672434,True,38.0,0.6125,0.48333333333333334,-0.5218750000000001,-0.7088541666666668,0,0,1,0.019316069596572862,0.1616292114257812,1.0,0.46875,0.625,0.75,-0.875,-0.84375,0.15625,0.15625,0.0,1.0,-1.0,1.0,1,0,0
16.0,0.0,16.0,0.0,3.0,0.0,3.0,0.0,,,,right,1.018554925918579,530.2446908950806,bh3,530.2446908950806,None,526.7932360172272,528.7929339408875,False,2.0,['r'],True,0.6,0.6,0.0,0.0,1.0,0.6126016192893442,0.0834363281249999,wait_cost,0.0,1.0,528.7929339408875,None,bh3,1,2023-04-04_10h06.34.937,threat_forest,2021.2.3,60.196737498672434,False,38.0,0.6125,0.48333333333333334,-0.5218750000000001,-0.7088541666666668,1,1,0,0.018384883476675464,0.0834363281249999,0.6,0.6,0.6,1.0,-0.20000000000000007,-0.20000000000000007,1.7999999999999998,1.7999999999999998,1.0,1.0,1.0,2.0,0,1,1
16.0,0.0,16.0,0.0,4.0,0.0,4.0,0.0,,,,left,0.9249811172485352,535.9443168640137,bh3,535.9443168640137,None,526.7932360172272,528.7929339408875,True,1.0,['r'],True,0.6,0.6,0.0,0.0,1.0,0.6126016192893442,0.3403125,succ_gain,0.0,2.0,533.3147189617157,None,bh3,1,2023-04-04_10h06.34.937,threat_forest,2021.2.3,60.196737498672434,True,38.0,0.6125,0.48333333333333334,-0.5218750000000001,-0.7088541666666668,1,1,1,-0.07798195546344341,0.3403125,1.0,0.6,0.6,1.0,-0.20000000000000007,-0.20000000000000007,0.7999999999999999,0.7999999999999999,1.0,1.0,-1.0,1.0,1,1,1
16.0,0.0,16.0,0.0,5.0,0.0,5.0,0.0,,,,right,1.352997064590454,542.2800858020782,bh3,536.907744884491,538.9207699298859,542.2800858020782,None,True,2.0,['r'],False,0.46875,0.625,0.25,2.0,1.0,0.9634951148421658,-0.0656249999999999,unsucc_cost,1.0,0.0,538.9207699298859,None,bh3,1,2023-04-04_10h06.34.937,threat_forest,2021.2.3,60.196737498672434,True,38.0,0.6125,0.48333333333333334,-0.5218750000000001,-0.7088541666666668,0,0,1,0.3023221796300921,-0.0656249999999999,0.46875,0.46875,0.625,0.75,-0.875,-0.84375,1.15625,1.15625,0.0,1.0,1.0,2.0,0,0,0
17.0,0.0,17.0,0.0,0.0,0.0,0.0,0.0,547.984680891037,551.4840929508209,None,right,1.017230987548828,554.364091873169,bh3,554.364091873169,None,547.984680891037,551.4840929508209,False,5.0,['r'],True,0.4,0.4,0.0,0.0,2.0,0.6126016192893442,0.0501704926254868,wait_cost,0.0,4.0,,,bh3,1,2023-04-04_10h06.34.937,threat_forest,2021.2.3,60.196737498672434,False,33.0,0.41428571428571426,0.5133928571428572,-0.7306122448979593,-0.6262436224489797,1,0,0,0.01708421767715442,0.0501704926254868,0.4,0.4,0.4,1.0,-0.3999999999999999,-0.3999999999999999,4.6,4.6,1.0,2.0,-1.0,5.0,0,0,1
17.0,0.0,17.0,0.0,1.0,0.0,1.0,0.0,,,,right,2.5304689407348637,559.8721899986267,bh3,559.8721899986267,None,547.984680891037,551.4840929508209,False,4.0,['r'],True,0.4,0.4,0.0,0.0,2.0,0.6126016192893442,0.0773262829540863,wait_cost,0.0,3.0,557.424439907074,None,bh3,1,2023-04-04_10h06.34.937,threat_forest,2021.2.3,60.196737498672434,False,33.0,0.41428571428571426,0.5133928571428572,-0.7306122448979593,-0.6262436224489797,1,0,0,0.9284046376329725,0.0773262829540863,0.4,0.4,0.4,1.0,-0.3999999999999999,-0.3999999999999999,3.6,3.6,1.0,2.0,-1.0,4.0,0,0,1
17.0,0.0,17.0,0.0,2.0,0.0,2.0,0.0,,,,right,0.7635610103607178,568.0071558952332,bh3,562.4363799095154,564.4491209983826,568.0071558952332,None,True,3.0,['r'],False,0.3061224489795918,0.4285714285714285,0.2857142857142857,2.0,2.0,0.9885754083994552,0.0706120338759307,succ_gain,1.0,5.0,564.4491209983826,None,bh3,1,2023-04-04_10h06.34.937,threat_forest,2021.2.3,60.196737498672434,True,33.0,0.41428571428571426,0.5133928571428572,-0.7306122448979593,-0.6262436224489797,0,0,1,-0.26976224872657295,0.0706120338759307,0.3061224489795918,0.3061224489795918,0.4285714285714285,0.7142857142857143,-1.1428571428571432,-1.0612244897959187,1.9387755102040813,1.9387755102040813,0.0,2.0,-1.0,3.0,0,0,0
17.0,0.0,17.0,0.0,3.0,0.0,3.0,0.0,,,,left,0.7403600215911865,572.8892569541931,bh3,562.4363799095154,564.4491209983826,572.8892569541931,None,False,5.0,['r'],False,0.3061224489795918,0.4285714285714285,0.2857142857142857,2.0,2.0,0.9885754083994552,0.0371500395243478,wait_cost,1.0,4.0,570.8060548305511,None,bh3,1,2023-04-04_10h06.34.937,threat_forest,2021.2.3,60.196737498672434,False,33.0,0.41428571428571426,0.5133928571428572,-0.7306122448979593,-0.6262436224489797,0,0,0,-0.30061869543052994,0.0371500395243478,0.3061224489795918,0.3061224489795918,0.4285714285714285,0.7142857142857143,-1.1428571428571432,-1.0612244897959187,3.9387755102040813,3.9387755102040813,0.0,2.0,1.0,5.0,0,0,0
17.0,0.0,17.0,0.0,4.0,0.0,4.0,0.0,,,,left,0.8398630619049072,576.8943629264832,bh3,562.4363799095154,564.4491209983826,576.8943629264832,None,False,4.0,['r'],False,0.3061224489795918,0.4285714285714285,0.2857142857142857,2.0,2.0,0.9885754083994552,0.0296501457725947,wait_cost,1.0,3.0,575.6609818935394,None,bh3,1,2023-04-04_10h06.34.937,threat_forest,2021.2.3,60.196737498672434,False,33.0,0.41428571428571426,0.5133928571428572,-0.7306122448979593,-0.6262436224489797,0,0,0,-0.17451642197601075,0.0296501457725947,0.3061224489795918,0.3061224489795918,0.4285714285714285,0.7142857142857143,-1.1428571428571432,-1.0612244897959187,2.9387755102040813,2.9387755102040813,0.0,2.0,-1.0,4.0,0,0,0
17.0,0.0,17.0,0.0,5.0,0.0,5.0,0.0,,,,left,0.8967800140380859,580.8181438446045,bh3,562.4363799095154,564.4491209983826,580.8181438446045,None,False,3.0,['r'],False,0.3061224489795918,0.4285714285714285,0.2857142857142857,2.0,2.0,0.9885754083994552,0.0736984589754268,wait_cost,1.0,2.0,579.7657659053802,None,bh3,1,2023-04-04_10h06.34.937,threat_forest,2021.2.3,60.196737498672434,False,33.0,0.41428571428571426,0.5133928571428572,-0.7306122448979593,-0.6262436224489797,0,0,0,-0.1089446933354933,0.0736984589754268,0.3061224489795918,0.3061224489795918,0.4285714285714285,0.7142857142857143,-1.1428571428571432,-1.0612244897959187,1.9387755102040813,1.9387755102040813,0.0,2.0,-1.0,3.0,0,0,0
17.0,0.0,17.0,0.0,6.0,0.0,6.0,0.0,,,,right,0.6677370071411133,585.1381208896637,bh3,585.1381208896637,None,581.7365808486938,583.736823797226,False,2.0,['r'],True,0.4,0.4,0.0,0.0,2.0,0.6126016192893442,0.046938775510204,wait_cost,0.0,1.0,583.736823797226,None,bh3,1,2023-04-04_10h06.34.937,threat_forest,2021.2.3,60.196737498672434,False,33.0,0.41428571428571426,0.5133928571428572,-0.7306122448979593,-0.6262436224489797,1,0,0,-0.40386088485098665,0.046938775510204,0.4,0.4,0.4,1.0,-0.3999999999999999,-0.3999999999999999,1.6,1.6,1.0,2.0,-1.0,2.0,0,0,1
17.0,0.0,17.0,0.0,7.0,0.0,7.0,0.0,,,,right,2.171537160873413,591.0559298992157,bh3,591.0559298992157,None,581.7365808486938,583.736823797226,False,1.0,['r'],True,0.4,0.4,0.0,0.0,2.0,0.6126016192893442,0.4,wait_cost,0.0,0.0,587.8414039611816,None,bh3,1,2023-04-04_10h06.34.937,threat_forest,2021.2.3,60.196737498672434,False,33.0,0.41428571428571426,0.5133928571428572,-0.7306122448979593,-0.6262436224489797,1,0,0,0.7754352858435107,0.4,1.0,0.4,0.4,1.0,-0.3999999999999999,-0.3999999999999999,0.6000000000000001,0.6000000000000001,1.0,2.0,-1.0,1.0,1,0,1
0.0,0.0,0.0,0.0,0.0,0.0,0.0,0.0,8.631978034973145,12.139137983322144,None,right,1.5167598724365234,13.52181100845337,bh3,8.631978034973145,12.139137983322144,13.52181100845337,None,True,4.0,['r'],False,0.375,0.5,0.25,1.0,1.0,0.9850568223215076,0.0292062806120119,succ_gain,1.0,5.0,,,bh3,2,2023-04-04_10h17.26.911,threat_forest,2021.2.3,60.004177384327946,True,9.0,0.4,0.40714285714285714,-1.3025,-1.0165561224489796,0,0,1,0.41657639676025965,0.0292062806120119,0.375,0.375,0.5,0.75,-1.25,-1.125,2.875,2.875,0.0,1.0,-1.0,4.0,0,0,0
0.0,0.0,0.0,0.0,1.0,0.0,1.0,0.0,,,,right,1.0373048782348633,19.38810896873474,bh3,19.38810896873474,None,15.06456995010376,17.07814884185791,False,5.0,['r'],True,0.24,0.3,0.2,2.0,1.0,0.9003120349047065,-0.0002154520755,wait_cost,0.0,4.0,17.07814884185791,None,bh3,2,2023-04-04_10h17.26.911,threat_forest,2021.2.3,60.004177384327946,False,9.0,0.4,0.40714285714285714,-1.3025,-1.0165561224489796,0,0,0,0.036625886264275966,-0.0002154520755,0.24,0.24,0.3,0.8,-1.7,-1.48,3.52,3.52,1.0,1.0,1.0,5.0,0,0,0
0.0,0.0,0.0,0.0,2.0,0.0,2.0,0.0,,,,right,0.969878911972046,23.28710103034973,bh3,23.28710103034973,None,15.06456995010376,17.07814884185791,False,4.0,['r'],True,0.24,0.3,0.2,2.0,1.0,0.9003120349047065,0.0026956283906249,wait_cost,0.0,3.0,22.450533866882324,None,bh3,2,2023-04-04_10h17.26.911,threat_forest,2021.2.3,60.004177384327946,False,9.0,0.4,0.40714285714285714,-1.3025,-1.0165561224489796,0,0,0,-0.030584048295507565,0.0026956283906249,0.24,0.24,0.3,0.8,-1.7,-1.48,2.52,2.52,1.0,1.0,-1.0,4.0,0,0,0
0.0,0.0,0.0,0.0,3.0,0.0,3.0,0.0,,,,right,0.8800549507141113,29.058475017547607,bh3,29.058475017547607,None,15.06456995010376,17.07814884185791,False,3.0,['r'],True,0.24,0.3,0.2,2.0,1.0,0.9003120349047065,0.037756659375,wait_cost,0.0,2.0,26.28835201263428,None,bh3,2,2023-04-04_10h17.26.911,threat_forest,2021.2.3,60.004177384327946,False,9.0,0.4,0.40714285714285714,-1.3025,-1.0165561224489796,0,0,0,-0.12777092946612156,0.037756659375,0.24,0.24,0.3,0.8,-1.7,-1.48,1.52,1.52,1.0,1.0,-1.0,3.0,0,0,0
0.0,0.0,0.0,0.0,4.0,0.0,4.0,0.0,,,,right,1.1932148933410645,33.19844698905945,bh3,29.96119785308838,31.961359977722168,33.19844698905945,None,True,2.0,['r'],False,0.375,0.5,0.25,1.0,1.0,0.9850568223215076,0.06428671875,unsucc_cost,1.0,0.0,31.961359977722168,None,bh3,2,2023-04-04_10h17.26.911,threat_forest,2021.2.3,60.004177384327946,True,9.0,0.4,0.40714285714285714,-1.3025,-1.0165561224489796,0,0,1,0.17665125542858465,0.06428671875,0.375,0.375,0.5,0.75,-1.25,-1.125,0.875,0.875,0.0,1.0,-1.0,2.0,0,0,0
1.0,0.0,1.0,0.0,0.0,0.0,0.0,0.0,38.636865854263306,42.14232802391052,None,right,0.7058038711547852,42.78082585334778,bh3,38.636865854263306,42.14232802391052,42.78082585334778,None,True,5.0,['r'],False,0.6,0.6,0.0,0.0,2.0,0.6126016192893442,0.0610993227861605,succ_gain,1.0,6.0,,,bh3,2,2023-04-04_10h17.26.911,threat_forest,2021.2.3,60.004177384327946,True,47.0,0.6333333333333333,0.5166666666666666,-0.07777777777777783,-0.6901388888888889,1,1,1,-0.3484178829801725,0.0610993227861605,0.6,0.6,0.6,1.0,0.3999999999999999,0.3999999999999999,5.4,5.4,0.0,2.0,-1.0,5.0,0,1,1
1.0,0.0,1.0,0.0,1.0,0.0,1.0,0.0,,,,right,1.215562105178833,46.70712399482727,bh3,38.636865854263306,42.14232802391052,46.70712399482727,None,True,6.0,['r'],False,0.6,0.6,0.0,0.0,2.0,0.6126016192893442,-0.0046270987654321,succ_gain,1.0,6.0,45.52624988555908,None,bh3,2,2023-04-04_10h17.26.911,threat_forest,2021.2.3,60.004177384327946,True,47.0,0.6333333333333333,0.5166666666666666,-0.07777777777777783,-0.6901388888888889,1,1,1,0.19520660781581414,-0.0046270987654321,0.6,0.6,0.6,1.0,0.3999999999999999,0.3999999999999999,6.4,6.0,0.0,2.0,1.0,6.0,0,1,1
1.0,0.0,1.0,0.0,2.0,0.0,2.0,0.0,,,,left,1.2889220714569092,50.81139397621155,bh3,38.636865854263306,42.14232802391052,50.81139397621155,None,False,6.0,['r'],False,0.6,0.6,0.0,0.0,2.0,0.6126016192893442,0.0736506172839506,wait_cost,1.0,5.0,49.9478919506073,None,bh3,2,2023-04-04_10h17.26.911,threat_forest,2021.2.3,60.004177384327946,False,47.0,0.6333333333333333,0.5166666666666666,-0.07777777777777783,-0.6901388888888889,1,1,0,0.2538062655405781,0.0736506172839506,0.6,0.6,0.6,1.0,0.3999999999999999,0.3999999999999999,6.4,6.0,0.0,2.0,-1.0,6.0,0,1,1
1.0,0.0,1.0,0.0,3.0,0.0,3.0,0.0,,,,right,0.8147358894348145,56.61006689071655,bh3,56.61006689071655,None,52.12414598464966,54.128050804138184,False,5.0,['r'],True,0.4444444444444445,0.6666666666666666,0.3333333333333333,2.0,2.0,0.9656336071428248,-0.0001234567901234,wait_cost,0.0,4.0,54.12805080413818,None,bh3,2,2023-04-04_10h17.26.911,threat_forest,2021.2.3,60.004177384327946,False,47.0,0.6333333333333333,0.5166666666666666,-0.07777777777777783,-0.6901388888888889,1,0,0,-0.2048912803038974,-0.0001234567901234,0.4444444444444445,0.4444444444444445,0.6666666666666666,0.6666666666666667,-0.3333333333333335,-0.5555555555555556,4.444444444444445,4.444444444444445,1.0,2.0,-1.0,5.0,0,0,1
1.0,0.0,1.0,0.0,4.0,0.0,4.0,0.0,,,,right,0.7007970809936523,63.11561584472656,bh3,57.4610059261322,59.46233892440796,63.11561584472656,None,True,4.0,['r'],False,0.6,0.6,0.0,0.0,2.0,0.6126016192893442,0.1394444444444444,succ_gain,1.0,6.0,59.46233892440796,None,bh3,2,2023-04-04_10h17.26.911,threat_forest,2021.2.3,60.004177384327946,True,47.0,0.6333333333333333,0.5166666666666666,-0.07777777777777783,-0.6901388888888889,1,1,1,-0.3555369046174138,0.1394444444444444,0.6,0.6,0.6,1.0,0.3999999999999999,0.3999999999999999,4.4,4.4,0.0,2.0,-1.0,4.0,0,1,1
1.0,0.0,1.0,0.0,5.0,0.0,5.0,0.0,,,,right,0.7975180149078369,68.5909059047699,bh3,68.5909059047699,None,63.85470080375672,65.86556100845337,False,6.0,['r'],True,0.4444444444444445,0.6666666666666666,0.3333333333333333,2.0,2.0,0.9656336071428248,0.0,wait_cost,0.0,5.0,65.86556100845337,None,bh3,2,2023-04-04_10h17.26.911,threat_forest,2021.2.3,60.004177384327946,False,47.0,0.6333333333333333,0.5166666666666666,-0.07777777777777783,-0.6901388888888889,1,0,0,-0.22625085535214234,0.0,0.0,0.4444444444444445,0.6666666666666666,0.6666666666666667,-0.3333333333333335,-0.5555555555555556,5.444444444444445,5.444444444444445,1.0,2.0,1.0,6.0,0,0,1
1.0,0.0,1.0,0.0,6.0,0.0,6.0,0.0,,,,right,0.8188831806182861,74.35728287696838,bh3,74.35728287696838,None,63.85470080375672,65.86556100845337,False,5.0,['r'],True,0.4444444444444445,0.6666666666666666,0.3333333333333333,2.0,2.0,0.9656336071428248,0.0,wait_cost,0.0,4.0,71.42153596878052,None,bh3,2,2023-04-04_10h17.26.911,threat_forest,2021.2.3,60.004177384327946,False,47.0,0.6333333333333333,0.5166666666666666,-0.07777777777777783,-0.6901388888888889,1,0,0,-0.19981384191034524,0.0,0.0,0.4444444444444445,0.6666666666666666,0.6666666666666667,-0.3333333333333335,-0.5555555555555556,4.444444444444445,4.444444444444445,1.0,2.0,-1.0,5.0,0,0,1
1.0,0.0,1.0,0.0,7.0,0.0,7.0,0.0,,,,left,1.3279259204864502,79.0602958202362,bh3,79.0602958202362,None,63.85470080375672,65.86556100845337,True,4.0,['r'],True,0.4444444444444445,0.6666666666666666,0.3333333333333333,2.0,2.0,0.9656336071428248,0.0,unsucc_cost,0.0,2.0,77.19444799423218,None,bh3,2,2023-04-04_10h17.26.911,threat_forest,2021.2.3,60.004177384327946,True,47.0,0.6333333333333333,0.5166666666666666,-0.07777777777777783,-0.6901388888888889,1,0,1,0.2836182667320985,0.0,0.0,0.4444444444444445,0.6666666666666666,0.6666666666666667,-0.3333333333333335,-0.5555555555555556,3.4444444444444446,3.4444444444444446,1.0,2.0,-1.0,4.0,0,0,1
2.0,0.0,2.0,0.0,0.0,0.0,0.0,0.0,83.4669418334961,86.97179198265076,None,right,1.4612040519714355,87.98239088058472,bh3,87.98239088058472,None,83.4669418334961,86.97179198265076,False,4.0,['p'],True,0.2222222222222222,0.6666666666666666,0.6666666666666666,2.0,1.0,0.77250688571426,-0.0026222925028365,wait_cost,0.0,3.0,,,bh3,2,2023-04-04_10h17.26.911,threat_forest,2021.2.3,60.004177384327946,False,66.0,0.5,0.5666666666666667,-1.5,-0.788888888888889,0,0,0,0.3792607889788326,-0.0026222925028365,0.2222222222222222,0.2222222222222222,0.6666666666666666,0.33333333333333337,-2.0,-2.0,2.0,2.0,1.0,1.0,-1.0,4.0,0,0,0
2.0,0.0,2.0,0.0,1.0,0.0,1.0,0.0,,,,right,0.7346291542053223,94.48213386535645,bh3,89.47856903076172,91.49371695518494,94.48213386535645,None,True,3.0,['p'],False,0.3333333333333333,0.3333333333333333,0.0,0.0,1.0,0.5793801642856949,0.0403131826957271,unsucc_cost,1.0,1.0,91.49371695518494,None,bh3,2,2023-04-04_10h17.26.911,threat_forest,2021.2.3,60.004177384327946,True,66.0,0.5,0.5666666666666667,-1.5,-0.788888888888889,0,0,1,-0.30838945920014565,0.0403131826957271,0.3333333333333333,0.3333333333333333,0.3333333333333333,1.0,-1.0000000000000002,-1.0000000000000002,1.9999999999999998,1.9999999999999998,0.0,1.0,-1.0,3.0,0,0,0
2.0,0.0,2.0,0.0,2.0,0.0,2.0,0.0,,,,right,0.691309928894043,99.9631609916687,bh3,89.47856903076172,91.49371695518494,99.9631609916687,None,True,1.0,['p'],False,0.3333333333333333,0.3333333333333333,0.0,0.0,1.0,0.5793801642856949,0.0334647919524462,unsucc_cost,1.0,0.0,97.25043082237244,None,bh3,2,2023-04-04_10h17.26.911,threat_forest,2021.2.3,60.004177384327946,True,66.0,0.5,0.5666666666666667,-1.5,-0.788888888888889,0,0,1,-0.36916703349259705,0.0334647919524462,1.0,0.3333333333333333,0.3333333333333333,1.0,-1.0000000000000002,-1.0000000000000002,-2.220446049250313e-16,0.0,0.0,1.0,-1.0,1.0,1,0,0
3.0,0.0,3.0,0.0,0.0,0.0,0.0,0.0,104.09543180465698,107.59451985359192,None,right,1.3292999267578125,108.5881860256195,bh3,104.09543180465698,107.59451985359192,108.5881860256195,None,True,4.0,['r'],False,0.375,0.5,0.25,1.0,2.0,0.9850568223215076,0.0640175729863931,fight_cost,1.0,1.0,,,bh3,2,2023-04-04_10h17.26.911,threat_forest,2021.2.3,60.004177384327946,True,59.0,0.3611111111111111,0.4305555555555556,-1.1404320987654322,-1.320216049382716,1,0,1,0.28465243279310193,0.0640175729863931,0.375,0.375,0.5,0.75,-0.75,-0.75,3.25,3.25,0.0,2.0,-1.0,4.0,0,0,1
3.0,0.0,3.0,0.0,1.0,0.0,1.0,0.0,,,,right,0.7182080745697021,114.51424384117126,bh3,104.09543180465698,107.59451985359192,114.51424384117126,None,True,1.0,['r'],False,0.375,0.5,0.25,1.0,2.0,0.9850568223215076,0.0773829730009039,succ_gain,1.0,3.0,111.96636700630188,None,bh3,2,2023-04-04_10h17.26.911,threat_forest,2021.2.3,60.004177384327946,True,59.0,0.3611111111111111,0.4305555555555556,-1.1404320987654322,-1.320216049382716,1,0,1,-0.3309959544662446,0.0773829730009039,1.0,0.375,0.5,0.75,-0.75,-0.75,0.25,0.25,0.0,2.0,-1.0,1.0,1,0,1
3.0,0.0,3.0,0.0,2.0,0.0,2.0,0.0,,,,right,0.7270569801330566,120.5342698097229,bh3,120.5342698097229,None,115.26088881492616,117.26566290855408,False,3.0,['r'],True,0.1728395061728395,0.2222222222222222,0.2222222222222222,2.0,2.0,0.8571721972794328,0.0140809028074422,wait_cost,0.0,2.0,117.26566290855408,None,bh3,2,2023-04-04_10h17.26.911,threat_forest,2021.2.3,60.004177384327946,False,59.0,0.3611111111111111,0.4305555555555556,-1.1404320987654322,-1.320216049382716,0,0,0,-0.31875042744558435,0.0140809028074422,0.1728395061728395,0.1728395061728395,0.2222222222222222,0.7777777777777778,-1.7777777777777777,-1.5308641975308643,1.4691358024691357,1.4691358024691357,1.0,2.0,1.0,3.0,0,0,0
3.0,0.0,3.0,0.0,3.0,0.0,3.0,0.0,,,,right,0.8502838611602783,126.18397784233092,bh3,126.18397784233092,None,115.26088881492616,117.26566290855408,False,2.0,['r'],True,0.1728395061728395,0.2222222222222222,0.2222222222222222,2.0,2.0,0.8571721972794328,-0.0257955579992358,wait_cost,0.0,1.0,123.29544496536256,None,bh3,2,2023-04-04_10h17.26.911,threat_forest,2021.2.3,60.004177384327946,False,59.0,0.3611111111111111,0.4305555555555556,-1.1404320987654322,-1.320216049382716,0,0,0,-0.16218503094189274,-0.0257955579992358,0.1728395061728395,0.1728395061728395,0.2222222222222222,0.7777777777777778,-1.7777777777777777,-1.5308641975308643,0.46913580246913567,0.46913580246913567,1.0,2.0,-1.0,2.0,0,0,0
3.0,0.0,3.0,0.0,4.0,0.0,4.0,0.0,,,,left,1.3582770824432373,131.55546402931213,bh3,131.55546402931213,None,115.26088881492616,117.26566290855408,True,1.0,['r'],True,0.1728395061728395,0.2222222222222222,0.2222222222222222,2.0,2.0,0.8571721972794328,0.0705413294937726,unsucc_cost,0.0,0.0,129.0688669681549,None,bh3,2,2023-04-04_10h17.26.911,threat_forest,2021.2.3,60.004177384327946,True,59.0,0.3611111111111111,0.4305555555555556,-1.1404320987654322,-1.320216049382716,0,0,1,0.3062170454689981,0.0705413294937726,1.0,0.1728395061728395,0.2222222222222222,0.7777777777777778,-1.7777777777777777,-1.5308641975308643,-0.5308641975308643,0.0,1.0,2.0,-1.0,1.0,1,0,0
4.0,0.0,4.0,0.0,0.0,0.0,0.0,0.0,138.3007218837738,141.7992639541626,None,right,1.777169942855835,145.18218994140625,bh3,145.18218994140625,None,138.3007218837738,141.7992639541626,False,5.0,['p'],True,0.1975308641975308,0.2222222222222222,0.1111111111111111,1.0,2.0,0.7461067557824965,-0.0095652367728003,wait_cost,0.0,4.0,,,bh3,2,2023-04-04_10h17.26.911,threat_forest,2021.2.3,60.004177384327946,False,12.0,0.3111111111111111,0.33611111111111114,-1.1204938271604938,-1.130462962962963,0,0,0,0.5750221792963951,-0.0095652367728003,0.1975308641975308,0.1975308641975308,0.2222222222222222,0.8888888888888888,-1.4444444444444444,-1.3209876543209877,3.6790123456790123,3.6790123456790123,1.0,2.0,-1.0,5.0,0,0,0
4.0,0.0,4.0,0.0,1.0,0.0,1.0,0.0,,,,right,1.6361558437347412,152.4804449081421,bh3,146.99611687660217,149.00779390335083,152.4804449081421,None,True,4.0,['p'],False,0.32,0.4,0.2,1.0,2.0,0.9455672104350704,0.0567994478407863,unsucc_cost,1.0,2.0,149.00779390335083,None,bh3,2,2023-04-04_10h17.26.911,threat_forest,2021.2.3,60.004177384327946,True,12.0,0.3111111111111111,0.33611111111111114,-1.1204938271604938,-1.130462962962963,1,0,1,0.4923494926502698,0.0567994478407863,0.32,0.32,0.4,0.8,-1.0,-0.92,3.08,3.08,0.0,2.0,-1.0,4.0,0,0,1
4.0,0.0,4.0,0.0,2.0,0.0,2.0,0.0,,,,right,1.0708742141723633,156.7010359764099,bh3,156.7010359764099,None,154.14961791038513,156.14872002601624,False,2.0,['p'],True,0.1975308641975308,0.2222222222222222,0.1111111111111111,1.0,2.0,0.7461067557824965,-0.0182298931372171,wait_cost,0.0,1.0,156.14872002601624,None,bh3,2,2023-04-04_10h17.26.911,threat_forest,2021.2.3,60.004177384327946,False,12.0,0.3111111111111111,0.33611111111111114,-1.1204938271604938,-1.130462962962963,0,0,0,0.06847533748353468,-0.0182298931372171,0.1975308641975308,0.1975308641975308,0.2222222222222222,0.8888888888888888,-1.4444444444444444,-1.3209876543209877,0.6790123456790123,0.6790123456790123,1.0,2.0,-1.0,2.0,0,0,0
4.0,0.0,4.0,0.0,3.0,0.0,3.0,0.0,,,,right,0.8711349964141846,162.1246519088745,bh3,157.80548191070557,159.81926488876343,162.1246519088745,None,True,1.0,['p'],False,0.32,0.4,0.2,1.0,2.0,0.9455672104350704,0.1313020527358634,unsucc_cost,1.0,0.0,159.81926488876343,None,bh3,2,2023-04-04_10h17.26.911,threat_forest,2021.2.3,60.004177384327946,True,12.0,0.3111111111111111,0.33611111111111114,-1.1204938271604938,-1.130462962962963,1,0,1,-0.13795832399678848,0.1313020527358634,1.0,0.32,0.4,0.8,-1.0,-0.92,0.07999999999999996,0.07999999999999996,0.0,2.0,-1.0,1.0,1,0,1
5.0,0.0,5.0,0.0,0.0,0.0,0.0,0.0,167.50300097465515,171.0147910118103,None,right,1.1350059509277344,172.47960901260376,bh3,172.47960901260376,None,167.50300097465515,171.0147910118103,False,4.0,['p'],True,0.16,0.2,0.2,2.0,1.0,0.8198746470064713,-0.0034169425027313,wait_cost,0.0,3.0,,,bh3,2,2023-04-04_10h17.26.911,threat_forest,2021.2.3,60.004177384327946,False,3.0,0.35,0.33055555555555555,-1.4225000000000003,-1.271496913580247,0,0,0,0.12663789402775696,-0.0034169425027313,0.16,0.16,0.2,0.8,-2.0,-1.7200000000000004,2.2799999999999994,2.2799999999999994,1.0,1.0,-1.0,4.0,0,0,0
5.0,0.0,5.0,0.0,1.0,0.0,1.0,0.0,,,,right,1.1321539878845217,176.32440781593323,bh3,176.32440781593323,None,167.50300097465515,171.0147910118103,False,3.0,['p'],True,0.16,0.2,0.2,2.0,1.0,0.8198746470064713,0.0042614206469725,wait_cost,0.0,2.0,175.65330982208252,None,bh3,2,2023-04-04_10h17.26.911,threat_forest,2021.2.3,60.004177384327946,False,3.0,0.35,0.33055555555555555,-1.4225000000000003,-1.271496913580247,0,0,0,0.12412200222962598,0.0042614206469725,0.16,0.16,0.2,0.8,-2.0,-1.7200000000000004,1.2799999999999996,1.2799999999999996,1.0,1.0,-1.0,3.0,0,0,0
5.0,0.0,5.0,0.0,2.0,0.0,2.0,0.0,,,,right,0.7420809268951416,180.61008095741272,bh3,177.4919500350952,179.4907078742981,180.61008095741272,None,True,2.0,['p'],False,0.375,0.5,0.25,1.0,1.0,0.9850568223215076,0.0307890540771484,succ_gain,1.0,3.0,179.4907078742981,None,bh3,2,2023-04-04_10h17.26.911,threat_forest,2021.2.3,60.004177384327946,True,3.0,0.35,0.33055555555555555,-1.4225000000000003,-1.271496913580247,1,1,1,-0.2982969758655918,0.0307890540771484,0.375,0.375,0.5,0.75,-1.25,-1.125,0.875,0.875,0.0,1.0,-1.0,2.0,0,1,1
5.0,0.0,5.0,0.0,3.0,0.0,3.0,0.0,,,,right,1.4813470840454102,184.4407160282135,bh3,177.4919500350952,179.4907078742981,184.4407160282135,None,True,3.0,['p'],False,0.375,0.5,0.25,1.0,1.0,0.9850568223215076,0.086186767578125,unsucc_cost,1.0,1.0,183.395085811615,None,bh3,2,2023-04-04_10h17.26.911,threat_forest,2021.2.3,60.004177384327946,True,3.0,0.35,0.33055555555555555,-1.4225000000000003,-1.271496913580247,1,1,1,0.392951865725108,0.086186767578125,0.375,0.375,0.5,0.75,-1.25,-1.125,1.875,1.875,0.0,1.0,1.0,3.0,0,1,1
5.0,0.0,5.0,0.0,4.0,0.0,4.0,0.0,,,,right,0.8438720703125,189.24741196632385,bh3,177.4919500350952,179.4907078742981,189.24741196632385,None,True,1.0,['p'],False,0.375,0.5,0.25,1.0,1.0,0.9850568223215076,0.12046875,succ_gain,1.0,2.0,187.96717500686648,None,bh3,2,2023-04-04_10h17.26.911,threat_forest,2021.2.3,60.004177384327946,True,3.0,0.35,0.33055555555555555,-1.4225000000000003,-1.271496913580247,1,1,1,-0.16975437133402402,0.12046875,1.0,0.375,0.5,0.75,-1.25,-1.125,-0.125,0.0,0.0,1.0,-1.0,1.0,1,1,1
5.0,0.0,5.0,0.0,5.0,0.0,5.0,0.0,,,,right,1.0349678993225098,195.03757095336917,bh3,177.4919500350952,179.4907078742981,195.03757095336917,None,True,2.0,['p'],False,0.375,0.5,0.25,1.0,1.0,0.9850568223215076,0.1075,succ_gain,1.0,3.0,192.13841795921329,None,bh3,2,2023-04-04_10h17.26.911,threat_forest,2021.2.3,60.004177384327946,True,3.0,0.35,0.33055555555555555,-1.4225000000000003,-1.271496913580247,1,1,1,0.03437041108901921,0.1075,0.375,0.375,0.5,0.75,-1.25,-1.125,0.875,0.875,0.0,1.0,1.0,2.0,0,1,1
5.0,0.0,5.0,0.0,6.0,0.0,6.0,0.0,,,,right,0.922760009765625,198.80016684532168,bh3,198.80016684532168,None,196.09551000595093,198.09516096115112,False,3.0,['p'],True,0.16,0.2,0.2,2.0,1.0,0.8198746470064713,-0.6688000000000001,wait_cost,0.0,2.0,198.09516096115112,None,bh3,2,2023-04-04_10h17.26.911,threat_forest,2021.2.3,60.004177384327946,False,3.0,0.35,0.33055555555555555,-1.4225000000000003,-1.271496913580247,0,0,0,-0.08038608937619203,-0.6688000000000001,0.0,0.16,0.2,0.8,-2.0,-1.7200000000000004,1.2799999999999996,1.2799999999999996,1.0,1.0,1.0,3.0,0,0,0
5.0,0.0,5.0,0.0,7.0,0.0,7.0,0.0,,,,right,0.6548140048980713,203.56601095199585,bh3,203.56601095199585,None,196.09551000595093,198.09516096115112,False,2.0,['p'],True,0.16,0.2,0.2,2.0,1.0,0.8198746470064713,-0.8400000000000001,wait_cost,0.0,1.0,201.7490110397339,None,bh3,2,2023-04-04_10h17.26.911,threat_forest,2021.2.3,60.004177384327946,False,3.0,0.35,0.33055555555555555,-1.4225000000000003,-1.271496913580247,0,0,0,-0.42340404565940176,-0.8400000000000001,0.0,0.16,0.2,0.8,-2.0,-1.7200000000000004,0.2799999999999996,0.2799999999999996,1.0,1.0,-1.0,2.0,0,0,0
6.0,0.0,6.0,0.0,0.0,0.0,0.0,0.0,209.8946208953857,213.3946528434753,None,left,1.0785889625549316,217.10601496696472,bh3,217.10601496696472,None,209.8946208953857,213.39465284347534,True,5.0,['p'],True,0.4444444444444445,0.6666666666666666,0.3333333333333333,1.0,2.0,0.9656336071428248,0.0340745001853471,succ_gain,0.0,6.0,,,bh3,2,2023-04-04_10h17.26.911,threat_forest,2021.2.3,60.004177384327946,True,21.0,0.47619047619047616,0.41309523809523807,-1.012471655328798,-1.2174858276643992,1,1,1,0.0756536707469283,0.0340745001853471,0.4444444444444445,0.4444444444444445,0.6666666666666666,0.6666666666666667,-0.3333333333333335,-0.5555555555555556,4.444444444444445,4.444444444444445,1.0,2.0,-1.0,5.0,0,1,1
6.0,0.0,6.0,0.0,1.0,0.0,1.0,0.0,,,,right,0.748183012008667,222.77021098136905,bh3,222.77021098136905,None,209.8946208953857,213.39465284347534,False,6.0,['p'],True,0.4444444444444445,0.6666666666666666,0.3333333333333333,1.0,2.0,0.9656336071428248,-0.0745100407362003,wait_cost,0.0,5.0,220.23602390289307,None,bh3,2,2023-04-04_10h17.26.911,threat_forest,2021.2.3,60.004177384327946,False,21.0,0.47619047619047616,0.41309523809523807,-1.012471655328798,-1.2174858276643992,1,1,0,-0.29010766247332165,-0.0745100407362003,0.4444444444444445,0.4444444444444445,0.6666666666666666,0.6666666666666667,-0.3333333333333335,-0.5555555555555556,5.444444444444445,5.444444444444445,1.0,2.0,1.0,6.0,0,1,1
6.0,0.0,6.0,0.0,2.0,0.0,2.0,0.0,,,,right,0.5954699516296387,227.17475080490112,bh3,227.17475080490112,None,209.8946208953857,213.39465284347534,False,5.0,['p'],True,0.4444444444444445,0.6666666666666666,0.3333333333333333,1.0,2.0,0.9656336071428248,0.0918775427186178,wait_cost,0.0,4.0,225.54203987121585,None,bh3,2,2023-04-04_10h17.26.911,threat_forest,2021.2.3,60.004177384327946,False,21.0,0.47619047619047616,0.41309523809523807,-1.012471655328798,-1.2174858276643992,1,1,0,-0.518404350520104,0.0918775427186178,0.4444444444444445,0.4444444444444445,0.6666666666666666,0.6666666666666667,-0.3333333333333335,-0.5555555555555556,4.444444444444445,4.444444444444445,1.0,2.0,-1.0,5.0,0,1,1
6.0,0.0,6.0,0.0,3.0,0.0,3.0,0.0,,,,left,1.0319669246673584,231.98847794532776,bh3,227.80178594589236,229.8138198852539,231.98847794532776,None,False,4.0,['p'],False,0.2040816326530612,0.2857142857142857,0.2857142857142857,2.0,2.0,0.9335459102197724,-0.0085171946857663,wait_cost,1.0,3.0,229.8138198852539,None,bh3,2,2023-04-04_10h17.26.911,threat_forest,2021.2.3,60.004177384327946,False,21.0,0.47619047619047616,0.41309523809523807,-1.012471655328798,-1.2174858276643992,0,0,0,0.031466616804835285,-0.0085171946857663,0.2040816326530612,0.2040816326530612,0.2857142857142857,0.7142857142857143,-1.7142857142857144,-1.4693877551020407,2.5306122448979593,2.5306122448979593,0.0,2.0,-1.0,4.0,0,0,0
6.0,0.0,6.0,0.0,4.0,0.0,4.0,0.0,,,,left,1.150376796722412,237.0214138031006,bh3,237.0214138031006,None,233.0531380176544,235.05250096321106,True,3.0,['p'],True,0.4444444444444445,0.6666666666666666,0.3333333333333333,1.0,2.0,0.9656336071428248,0.1321491559586798,succ_gain,0.0,5.0,235.05250096321103,None,bh3,2,2023-04-04_10h17.26.911,threat_forest,2021.2.3,60.004177384327946,True,21.0,0.47619047619047616,0.41309523809523807,-1.012471655328798,-1.2174858276643992,1,1,1,0.14008953803367755,0.1321491559586798,0.4444444444444445,0.4444444444444445,0.6666666666666666,0.6666666666666667,-0.3333333333333335,-0.5555555555555556,2.4444444444444446,2.4444444444444446,1.0,2.0,-1.0,3.0,0,1,1
6.0,0.0,6.0,0.0,5.0,0.0,5.0,0.0,,,,right,0.7929160594940186,240.7720530033112,bh3,240.7720530033112,None,233.0531380176544,235.05250096321106,False,5.0,['p'],True,0.4444444444444445,0.6666666666666666,0.3333333333333333,1.0,2.0,0.9656336071428248,-0.2052154195011337,wait_cost,0.0,4.0,240.19651794433597,None,bh3,2,2023-04-04_10h17.26.911,threat_forest,2021.2.3,60.004177384327946,False,21.0,0.47619047619047616,0.41309523809523807,-1.012471655328798,-1.2174858276643992,1,1,0,-0.23203791478603222,-0.2052154195011337,0.0,0.4444444444444445,0.6666666666666666,0.6666666666666667,-0.3333333333333335,-0.5555555555555556,4.444444444444445,4.444444444444445,1.0,2.0,1.0,5.0,0,1,1
6.0,0.0,6.0,0.0,6.0,0.0,6.0,0.0,,,,left,1.173609972000122,246.95244693756104,bh3,241.60020899772644,243.61173796653748,246.95244693756104,None,False,4.0,['p'],False,0.2040816326530612,0.2857142857142857,0.2857142857142857,2.0,2.0,0.9335459102197724,-0.1930677032717849,wait_cost,1.0,3.0,243.61173796653748,None,bh3,2,2023-04-04_10h17.26.911,threat_forest,2021.2.3,60.004177384327946,False,21.0,0.47619047619047616,0.41309523809523807,-1.012471655328798,-1.2174858276643992,0,0,0,0.16008444474315553,-0.1930677032717849,0.0,0.2040816326530612,0.2857142857142857,0.7142857142857143,-1.7142857142857144,-1.4693877551020407,2.5306122448979593,2.5306122448979593,0.0,2.0,-1.0,4.0,0,0,0
6.0,0.0,6.0,0.0,7.0,0.0,7.0,0.0,,,,right,0.6982388496398926,253.438768863678,bh3,253.438768863678,None,248.15229201316836,250.15239596366882,False,3.0,['p'],True,0.4444444444444445,0.6666666666666666,0.3333333333333333,1.0,2.0,0.9656336071428248,-0.3333333333333333,wait_cost,0.0,2.0,250.1523959636688,None,bh3,2,2023-04-04_10h17.26.911,threat_forest,2021.2.3,60.004177384327946,False,21.0,0.47619047619047616,0.41309523809523807,-1.012471655328798,-1.2174858276643992,1,1,0,-0.3591940432927456,-0.3333333333333333,0.0,0.4444444444444445,0.6666666666666666,0.6666666666666667,-0.3333333333333335,-0.5555555555555556,2.4444444444444446,2.4444444444444446,1.0,2.0,-1.0,3.0,0,1,1
7.0,0.0,7.0,0.0,0.0,0.0,0.0,0.0,258.96659994125366,262.46351981163025,None,right,1.6523780822753906,264.5610818862915,bh3,264.5610818862915,None,258.96659994125366,262.46351981163025,False,5.0,['p'],True,0.4081632653061224,0.5714285714285714,0.2857142857142857,2.0,2.0,0.9885754083994552,-0.0170150236195817,wait_cost,0.0,4.0,,,bh3,2,2023-04-04_10h17.26.911,threat_forest,2021.2.3,60.004177384327946,False,64.0,0.5357142857142857,0.5059523809523809,-0.326530612244898,-0.669501133786848,1,0,0,0.5022155122763893,-0.0170150236195817,0.4081632653061224,0.4081632653061224,0.5714285714285714,0.7142857142857143,-0.5714285714285715,-0.653061224489796,4.346938775510204,4.346938775510204,1.0,2.0,-1.0,5.0,0,0,1
7.0,0.0,7.0,0.0,1.0,0.0,1.0,0.0,,,,right,0.8733828067779541,269.2898659706116,bh3,269.2898659706116,None,258.96659994125366,262.46351981163025,False,4.0,['p'],True,0.4081632653061224,0.5714285714285714,0.2857142857142857,2.0,2.0,0.9885754083994552,0.0323849776056033,wait_cost,0.0,3.0,268.2558619976044,None,bh3,2,2023-04-04_10h17.26.911,threat_forest,2021.2.3,60.004177384327946,False,64.0,0.5357142857142857,0.5059523809523809,-0.326530612244898,-0.669501133786848,1,0,0,-0.13538132351720703,0.0323849776056033,0.4081632653061224,0.4081632653061224,0.5714285714285714,0.7142857142857143,-0.5714285714285715,-0.653061224489796,3.3469387755102042,3.3469387755102042,1.0,2.0,-1.0,4.0,0,0,1
7.0,0.0,7.0,0.0,2.0,0.0,2.0,0.0,,,,right,0.8850150108337402,273.13103580474854,bh3,270.1938669681549,272.1934280395508,273.13103580474854,None,True,3.0,['p'],False,0.5,0.5,0.0,0.0,2.0,0.6309297535714574,0.2112047143409633,unsucc_cost,1.0,1.0,272.1934280395508,None,bh3,2,2023-04-04_10h17.26.911,threat_forest,2021.2.3,60.004177384327946,True,64.0,0.5357142857142857,0.5059523809523809,-0.326530612244898,-0.669501133786848,1,0,1,-0.12215067272399359,0.2112047143409633,0.5,0.5,0.5,1.0,0.0,0.0,3.0,3.0,0.0,2.0,-1.0,3.0,0,0,1
7.0,0.0,7.0,0.0,3.0,0.0,3.0,0.0,,,,left,0.9256749153137208,278.5058479309082,bh3,278.5058479309082,None,274.0522418022156,276.06476187705994,True,1.0,['p'],True,0.4081632653061224,0.5714285714285714,0.2857142857142857,2.0,2.0,0.9885754083994552,0.260042584297359,succ_gain,0.0,3.0,276.06476187705994,None,bh3,2,2023-04-04_10h17.26.911,threat_forest,2021.2.3,60.004177384327946,True,64.0,0.5357142857142857,0.5059523809523809,-0.326530612244898,-0.669501133786848,1,0,1,-0.07723216934924225,0.260042584297359,1.0,0.4081632653061224,0.5714285714285714,0.7142857142857143,-0.5714285714285715,-0.653061224489796,0.346938775510204,0.346938775510204,1.0,2.0,-1.0,1.0,1,0,1
7.0,0.0,7.0,0.0,4.0,0.0,4.0,0.0,,,,left,1.957888126373291,283.369735956192,bh3,283.369735956192,None,274.0522418022156,276.06476187705994,True,3.0,['p'],True,0.4081632653061224,0.5714285714285714,0.2857142857142857,2.0,2.0,0.9885754083994552,0.0701270304039983,fight_cost,0.0,0.0,281.4704329967499,None,bh3,2,2023-04-04_10h17.26.911,threat_forest,2021.2.3,60.004177384327946,True,64.0,0.5357142857142857,0.5059523809523809,-0.326530612244898,-0.669501133786848,1,0,1,0.6718664057922437,0.0701270304039983,0.4081632653061224,0.4081632653061224,0.5714285714285714,0.7142857142857143,-0.5714285714285715,-0.653061224489796,2.3469387755102042,2.3469387755102042,1.0,2.0,1.0,3.0,0,0,1
8.0,0.0,8.0,0.0,0.0,0.0,0.0,0.0,291.18347001075745,294.6856210231781,None,right,1.704822063446045,296.9501328468323,bh3,296.9501328468323,None,291.18347001075745,294.6856210231781,False,5.0,['p'],True,0.2962962962962963,0.3333333333333333,0.1111111111111111,1.0,2.0,0.8325252476189534,-0.0036833572583059,wait_cost,0.0,4.0,,,bh3,2,2023-04-04_10h17.26.911,threat_forest,2021.2.3,60.004177384327946,False,22.0,0.41666666666666663,0.47619047619047616,-0.7129629629629629,-0.5197467876039304,0,0,0,0.5334607436742049,-0.0036833572583059,0.2962962962962963,0.2962962962962963,0.3333333333333333,0.8888888888888888,-1.0000000000000002,-0.925925925925926,4.074074074074074,4.074074074074074,1.0,2.0,-1.0,5.0,0,0,0
8.0,0.0,8.0,0.0,1.0,0.0,1.0,0.0,,,,right,0.8596189022064209,303.2661259174347,bh3,298.67606592178345,300.67463397979736,303.2661259174347,None,True,4.0,['p'],False,0.4166666666666667,0.5,0.1666666666666666,1.0,2.0,0.9358932809493992,0.0740380070829472,succ_gain,1.0,6.0,300.67463397979736,None,bh3,2,2023-04-04_10h17.26.911,threat_forest,2021.2.3,60.004177384327946,True,22.0,0.41666666666666663,0.47619047619047616,-0.7129629629629629,-0.5197467876039304,1,0,1,-0.1512661249180644,0.0740380070829472,0.4166666666666667,0.4166666666666667,0.5,0.8333333333333334,-0.4999999999999998,-0.4999999999999998,3.5,3.5,0.0,2.0,-1.0,4.0,0,0,1
8.0,0.0,8.0,0.0,2.0,0.0,2.0,0.0,,,,right,0.8889188766479492,309.3896038532257,bh3,309.3896038532257,None,304.1630058288574,306.16449093818665,False,6.0,['p'],True,0.2962962962962963,0.3333333333333333,0.1111111111111111,1.0,2.0,0.8325252476189534,0.0083709863502963,wait_cost,0.0,5.0,306.16449093818665,None,bh3,2,2023-04-04_10h17.26.911,threat_forest,2021.2.3,60.004177384327946,False,22.0,0.41666666666666663,0.47619047619047616,-0.7129629629629629,-0.5197467876039304,0,0,0,-0.11774929999649436,0.0083709863502963,0.2962962962962963,0.2962962962962963,0.3333333333333333,0.8888888888888888,-1.0000000000000002,-0.925925925925926,5.074074074074074,5.074074074074074,1.0,2.0,1.0,6.0,0,0,0
8.0,0.0,8.0,0.0,3.0,0.0,3.0,0.0,,,,left,2.007215976715088,313.8123619556427,bh3,310.3062379360199,312.31027388572693,313.8123619556427,None,False,5.0,['p'],False,0.4166666666666667,0.5,0.1666666666666666,1.0,2.0,0.9358932809493992,0.1035147319387288,wait_cost,1.0,4.0,312.31027388572693,None,bh3,2,2023-04-04_10h17.26.911,threat_forest,2021.2.3,60.004177384327946,False,22.0,0.41666666666666663,0.47619047619047616,-0.7129629629629629,-0.5197467876039304,1,0,0,0.6967486757410117,0.1035147319387288,0.4166666666666667,0.4166666666666667,0.5,0.8333333333333334,-0.4999999999999998,-0.4999999999999998,4.5,4.5,0.0,2.0,-1.0,5.0,0,0,1
8.0,0.0,8.0,0.0,4.0,0.0,4.0,0.0,,,,right,0.8656649589538574,321.1485538482666,bh3,310.3062379360199,312.31027388572693,321.1485538482666,None,True,4.0,['p'],False,0.4166666666666667,0.5,0.1666666666666666,1.0,2.0,0.9358932809493992,0.1007801783264746,succ_gain,1.0,6.0,317.8440399169922,None,bh3,2,2023-04-04_10h17.26.911,threat_forest,2021.2.3,60.004177384327946,True,22.0,0.41666666666666663,0.47619047619047616,-0.7129629629629629,-0.5197467876039304,1,0,1,-0.14425732870350946,0.1007801783264746,0.4166666666666667,0.4166666666666667,0.5,0.8333333333333334,-0.4999999999999998,-0.4999999999999998,3.5,3.5,0.0,2.0,-1.0,4.0,0,0,1
8.0,0.0,8.0,0.0,5.0,0.0,5.0,0.0,,,,right,0.8468167781829834,325.6587448120117,bh3,325.6587448120117,None,322.03439497947693,324.0336449146271,False,6.0,['p'],True,0.2962962962962963,0.3333333333333333,0.1111111111111111,1.0,2.0,0.8325252476189534,0.0,wait_cost,0.0,5.0,324.0336449146271,None,bh3,2,2023-04-04_10h17.26.911,threat_forest,2021.2.3,60.004177384327946,False,22.0,0.41666666666666663,0.47619047619047616,-0.7129629629629629,-0.5197467876039304,0,0,0,-0.16627092628641607,0.0,0.0,0.2962962962962963,0.3333333333333333,0.8888888888888888,-1.0000000000000002,-0.925925925925926,5.074074074074074,5.074074074074074,1.0,2.0,1.0,6.0,0,0,0
8.0,0.0,8.0,0.0,6.0,0.0,6.0,0.0,,,,left,1.2292962074279783,329.2088768482208,bh3,326.5298488140106,328.53881192207336,329.2088768482208,None,False,5.0,['p'],False,0.4166666666666667,0.5,0.1666666666666666,1.0,2.0,0.9358932809493992,0.0,wait_cost,1.0,4.0,328.53881192207336,None,bh3,2,2023-04-04_10h17.26.911,threat_forest,2021.2.3,60.004177384327946,False,22.0,0.41666666666666663,0.47619047619047616,-0.7129629629629629,-0.5197467876039304,1,0,0,0.20644181653873656,0.0,0.0,0.4166666666666667,0.5,0.8333333333333334,-0.4999999999999998,-0.4999999999999998,4.5,4.5,0.0,2.0,-1.0,5.0,0,0,1
8.0,0.0,8.0,0.0,7.0,0.0,7.0,0.0,,,,left,0.9412961006164552,335.86093401908875,bh3,326.5298488140106,328.53881192207336,335.86093401908875,None,False,4.0,['p'],False,0.4166666666666667,0.5,0.1666666666666666,1.0,2.0,0.9358932809493992,0.0,wait_cost,1.0,3.0,332.4767439365387,None,bh3,2,2023-04-04_10h17.26.911,threat_forest,2021.2.3,60.004177384327946,False,22.0,0.41666666666666663,0.47619047619047616,-0.7129629629629629,-0.5197467876039304,1,0,0,-0.060497522988849396,0.0,0.0,0.4166666666666667,0.5,0.8333333333333334,-0.4999999999999998,-0.4999999999999998,3.5,3.5,0.0,2.0,-1.0,4.0,0,0,1
9.0,0.0,9.0,0.0,0.0,0.0,0.0,0.0,342.5569899082184,346.0580668449402,None,left,1.4427540302276611,346.9040958881378,bh3,342.5569899082184,346.0580668449402,346.9040958881378,None,False,5.0,['r'],False,0.2448979591836734,0.2857142857142857,0.1428571428571428,1.0,1.0,0.8400769154957735,-0.0059145108757046,wait_cost,1.0,4.0,,,bh3,2,2023-04-04_10h17.26.911,threat_forest,2021.2.3,60.004177384327946,False,69.0,0.39285714285714285,0.40476190476190477,-1.2665816326530612,-0.9897722978080121,0,0,0,0.3665538080395623,-0.0059145108757046,0.2448979591836734,0.2448979591836734,0.2857142857142857,0.8571428571428572,-1.5714285714285712,-1.4081632653061225,3.5918367346938775,3.5918367346938775,0.0,1.0,-1.0,5.0,0,0,0
9.0,0.0,9.0,0.0,1.0,0.0,1.0,0.0,,,,left,1.314054012298584,351.9491398334503,bh3,342.5569899082184,346.0580668449402,351.9491398334503,None,False,4.0,['r'],False,0.2448979591836734,0.2857142857142857,0.1428571428571428,1.0,1.0,0.8400769154957735,0.0039335814476322,wait_cost,1.0,3.0,350.3966238498688,None,bh3,2,2023-04-04_10h17.26.911,threat_forest,2021.2.3,60.004177384327946,False,69.0,0.39285714285714285,0.40476190476190477,-1.2665816326530612,-0.9897722978080121,0,0,0,0.27311702446768504,0.0039335814476322,0.2448979591836734,0.2448979591836734,0.2857142857142857,0.8571428571428572,-1.5714285714285712,-1.4081632653061225,2.5918367346938775,2.5918367346938775,0.0,1.0,-1.0,4.0,0,0,0
9.0,0.0,9.0,0.0,2.0,0.0,2.0,0.0,,,,left,0.8199560642242432,355.8373639583588,bh3,355.8373639583588,None,353.2881188392639,355.2855398654938,True,3.0,['r'],True,0.375,0.5,0.25,1.0,1.0,0.9850568223215076,0.0489805383249788,unsucc_cost,0.0,1.0,355.2855398654938,None,bh3,2,2023-04-04_10h17.26.911,threat_forest,2021.2.3,60.004177384327946,True,69.0,0.39285714285714285,0.40476190476190477,-1.2665816326530612,-0.9897722978080121,0,0,1,-0.19850452037364683,0.0489805383249788,0.375,0.375,0.5,0.75,-1.25,-1.125,1.875,1.875,1.0,1.0,-1.0,3.0,0,0,0
9.0,0.0,9.0,0.0,3.0,0.0,3.0,0.0,,,,right,0.7752749919891357,362.230437040329,bh3,356.6906659603119,358.7058198451996,362.230437040329,None,True,1.0,['r'],False,0.2448979591836734,0.2857142857142857,0.1428571428571428,1.0,1.0,0.8400769154957735,0.0351403773047088,succ_gain,1.0,2.0,358.7058198451996,None,bh3,2,2023-04-04_10h17.26.911,threat_forest,2021.2.3,60.004177384327946,True,69.0,0.39285714285714285,0.40476190476190477,-1.2665816326530612,-0.9897722978080121,0,0,1,-0.25453748419241146,0.0351403773047088,1.0,0.2448979591836734,0.2857142857142857,0.8571428571428572,-1.5714285714285712,-1.4081632653061225,-0.40816326530612246,0.0,0.0,1.0,-1.0,1.0,1,0,0
9.0,0.0,9.0,0.0,4.0,0.0,4.0,0.0,,,,left,1.3924870491027832,367.5304329395294,bh3,356.6906659603119,358.7058198451996,367.5304329395294,None,False,2.0,['r'],False,0.2448979591836734,0.2857142857142857,0.1428571428571428,1.0,1.0,0.8400769154957735,0.0072250966062186,wait_cost,1.0,1.0,365.0454759597778,None,bh3,2,2023-04-04_10h17.26.911,threat_forest,2021.2.3,60.004177384327946,False,69.0,0.39285714285714285,0.40476190476190477,-1.2665816326530612,-0.9897722978080121,0,0,0,0.3310913923112648,0.0072250966062186,0.2448979591836734,0.2448979591836734,0.2857142857142857,0.8571428571428572,-1.5714285714285712,-1.4081632653061225,0.5918367346938775,0.5918367346938775,0.0,1.0,1.0,2.0,0,0,0
9.0,0.0,9.0,0.0,5.0,0.0,5.0,0.0,,,,left,0.8807210922241211,373.2883689403534,bh3,373.2883689403534,None,368.952910900116,370.9524869918823,True,1.0,['r'],True,0.375,0.5,0.25,1.0,1.0,0.9850568223215076,0.1284279336734693,succ_gain,0.0,2.0,370.9524869918823,None,bh3,2,2023-04-04_10h17.26.911,threat_forest,2021.2.3,60.004177384327946,True,69.0,0.39285714285714285,0.40476190476190477,-1.2665816326530612,-0.9897722978080121,0,0,1,-0.1270142840716518,0.1284279336734693,1.0,0.375,0.5,0.75,-1.25,-1.125,-0.125,0.0,1.0,1.0,-1.0,1.0,1,0,0
9.0,0.0,9.0,0.0,6.0,0.0,6.0,0.0,,,,left,1.0318520069122314,377.4633598327637,bh3,374.1960878372192,376.2086248397827,377.4633598327637,None,False,2.0,['r'],False,0.2448979591836734,0.2857142857142857,0.1428571428571428,1.0,1.0,0.8400769154957735,-0.0650510204081632,wait_cost,1.0,1.0,376.2086248397827,None,bh3,2,2023-04-04_10h17.26.911,threat_forest,2021.2.3,60.004177384327946,False,69.0,0.39285714285714285,0.40476190476190477,-1.2665816326530612,-0.9897722978080121,0,0,0,0.03135525262119756,-0.0650510204081632,0.2448979591836734,0.2448979591836734,0.2857142857142857,0.8571428571428572,-1.5714285714285712,-1.4081632653061225,0.5918367346938775,0.5918367346938775,0.0,1.0,1.0,2.0,0,0,0
9.0,0.0,9.0,0.0,7.0,0.0,7.0,0.0,,,,right,1.0289008617401123,382.8280119895935,bh3,374.1960878372192,376.2086248397827,382.8280119895935,None,True,1.0,['r'],False,0.2448979591836734,0.2857142857142857,0.1428571428571428,1.0,1.0,0.8400769154957735,0.2448979591836735,unsucc_cost,1.0,0.0,380.52994990348816,None,bh3,2,2023-04-04_10h17.26.911,threat_forest,2021.2.3,60.004177384327946,True,69.0,0.39285714285714285,0.40476190476190477,-1.2665816326530612,-0.9897722978080121,0,0,1,0.028491107934617715,0.2448979591836735,1.0,0.2448979591836734,0.2857142857142857,0.8571428571428572,-1.5714285714285712,-1.4081632653061225,-0.40816326530612246,0.0,0.0,1.0,-1.0,1.0,1,0,0
10.0,0.0,10.0,0.0,0.0,0.0,0.0,0.0,387.4576590061188,390.9575548171997,None,left,0.8918850421905518,391.73438692092896,bh3,391.73438692092896,None,387.4576590061188,390.9575548171997,True,5.0,['r'],True,0.375,0.5,0.25,1.0,2.0,0.9850568223215076,0.0170934234469043,fight_cost,0.0,2.0,,,bh3,2,2023-04-04_10h17.26.911,threat_forest,2021.2.3,60.004177384327946,True,42.0,0.39285714285714285,0.39285714285714285,-0.9566326530612245,-1.1116071428571428,1,0,1,-0.11441803117540456,0.0170934234469043,0.375,0.375,0.5,0.75,-0.75,-0.75,4.25,4.25,1.0,2.0,-1.0,5.0,0,0,1
10.0,0.0,10.0,0.0,1.0,0.0,1.0,0.0,,,,left,0.6124260425567627,398.0970299243927,bh3,398.0970299243927,None,387.4576590061188,390.9575548171997,True,2.0,['r'],True,0.375,0.5,0.25,1.0,2.0,0.9850568223215076,0.0419793571159062,succ_gain,0.0,4.0,394.6621809005737,None,bh3,2,2023-04-04_10h17.26.911,threat_forest,2021.2.3,60.004177384327946,True,42.0,0.39285714285714285,0.39285714285714285,-0.9566326530612245,-1.1116071428571428,1,0,1,-0.49032709069984404,0.0419793571159062,0.375,0.375,0.5,0.75,-0.75,-0.75,1.25,1.25,1.0,2.0,-1.0,2.0,0,0,1
10.0,0.0,10.0,0.0,2.0,0.0,2.0,0.0,,,,left,1.1533589363098145,402.925637960434,bh3,398.7390010356903,400.7523789405823,402.925637960434,None,False,4.0,['r'],False,0.2448979591836734,0.2857142857142857,0.1428571428571428,1.0,2.0,0.8400769154957735,-0.0143430278316863,wait_cost,1.0,3.0,400.7523789405823,None,bh3,2,2023-04-04_10h17.26.911,threat_forest,2021.2.3,60.004177384327946,False,42.0,0.39285714285714285,0.39285714285714285,-0.9566326530612245,-1.1116071428571428,0,0,0,0.14267849926768242,-0.0143430278316863,0.2448979591836734,0.2448979591836734,0.2857142857142857,0.8571428571428572,-1.2857142857142856,-1.163265306122449,2.836734693877551,2.836734693877551,0.0,2.0,1.0,4.0,0,0,0
10.0,0.0,10.0,0.0,3.0,0.0,3.0,0.0,,,,left,0.7192909717559814,409.5424020290375,bh3,398.7390010356903,400.7523789405823,409.5424020290375,None,False,3.0,['r'],False,0.2448979591836734,0.2857142857142857,0.1428571428571428,1.0,2.0,0.8400769154957735,-0.0097255873504729,wait_cost,1.0,2.0,406.1248469352722,None,bh3,2,2023-04-04_10h17.26.911,threat_forest,2021.2.3,60.004177384327946,False,42.0,0.39285714285714285,0.39285714285714285,-0.9566326530612245,-1.1116071428571428,0,0,0,-0.3294893136181797,-0.0097255873504729,0.2448979591836734,0.2448979591836734,0.2857142857142857,0.8571428571428572,-1.2857142857142856,-1.163265306122449,1.836734693877551,1.836734693877551,0.0,2.0,-1.0,3.0,0,0,0
10.0,0.0,10.0,0.0,4.0,0.0,4.0,0.0,,,,left,0.9738259315490724,412.9700698852539,bh3,412.9700698852539,None,410.2905459403992,412.2981448173523,True,2.0,['r'],True,0.375,0.5,0.25,1.0,2.0,0.9850568223215076,0.0650510204081632,succ_gain,0.0,4.0,412.2981448173523,None,bh3,2,2023-04-04_10h17.26.911,threat_forest,2021.2.3,60.004177384327946,True,42.0,0.39285714285714285,0.39285714285714285,-0.9566326530612245,-1.1116071428571428,1,0,1,-0.026522706353058142,0.0650510204081632,0.375,0.375,0.5,0.75,-0.75,-0.75,1.25,1.25,1.0,2.0,-1.0,2.0,0,0,1
10.0,0.0,10.0,0.0,5.0,0.0,5.0,0.0,,,,left,0.5649271011352539,417.97448086738586,bh3,413.9738190174103,415.98565697669983,417.97448086738586,None,False,4.0,['r'],False,0.2448979591836734,0.2857142857142857,0.1428571428571428,1.0,2.0,0.8400769154957735,-0.5011453561016244,wait_cost,1.0,3.0,415.98565697669983,None,bh3,2,2023-04-04_10h17.26.911,threat_forest,2021.2.3,60.004177384327946,False,42.0,0.39285714285714285,0.39285714285714285,-0.9566326530612245,-1.1116071428571428,0,0,0,-0.5710585806994517,-0.5011453561016244,0.0,0.2448979591836734,0.2857142857142857,0.8571428571428572,-1.2857142857142856,-1.163265306122449,2.836734693877551,2.836734693877551,0.0,2.0,1.0,4.0,0,0,0
10.0,0.0,10.0,0.0,6.0,0.0,6.0,0.0,,,,right,0.8850209712982178,423.0443308353424,bh3,423.0443308353424,None,418.5763478279114,420.5824840068817,False,3.0,['r'],True,0.375,0.5,0.25,1.0,2.0,0.9850568223215076,-0.5087691326530612,wait_cost,0.0,2.0,420.5824840068817,None,bh3,2,2023-04-04_10h17.26.911,threat_forest,2021.2.3,60.004177384327946,False,42.0,0.39285714285714285,0.39285714285714285,-0.9566326530612245,-1.1116071428571428,1,0,0,-0.12214393787279539,-0.5087691326530612,0.0,0.375,0.5,0.75,-0.75,-0.75,2.25,2.25,1.0,2.0,-1.0,3.0,0,0,1
10.0,0.0,10.0,0.0,7.0,0.0,7.0,0.0,,,,left,0.6676828861236572,427.36754298210144,bh3,423.9653730392456,425.9803259372711,427.36754298210144,None,False,2.0,['r'],False,0.2448979591836734,0.2857142857142857,0.1428571428571428,1.0,2.0,0.8400769154957735,-0.7551020408163265,wait_cost,1.0,1.0,425.9803259372711,None,bh3,2,2023-04-04_10h17.26.911,threat_forest,2021.2.3,60.004177384327946,False,42.0,0.39285714285714285,0.39285714285714285,-0.9566326530612245,-1.1116071428571428,0,0,0,-0.4039419395331262,-0.7551020408163265,0.0,0.2448979591836734,0.2857142857142857,0.8571428571428572,-1.2857142857142856,-1.163265306122449,0.8367346938775511,0.8367346938775511,0.0,2.0,-1.0,2.0,0,0,0
11.0,0.0,11.0,0.0,0.0,0.0,0.0,0.0,431.5585768222809,435.0732188224793,None,left,0.667557954788208,438.8493049144745,bh3,438.8493049144745,None,431.5585768222809,435.07321882247925,True,5.0,['p'],True,0.4081632653061224,0.5714285714285714,0.2857142857142857,2.0,1.0,0.9885754083994552,-0.0004231906775603,succ_gain,0.0,6.0,,,bh3,2,2023-04-04_10h17.26.911,threat_forest,2021.2.3,60.004177384327946,True,35.0,0.5357142857142857,0.4642857142857143,-0.7806122448979592,-0.8686224489795918,0,0,1,-0.40412906882394156,-0.0004231906775603,0.4081632653061224,0.4081632653061224,0.5714285714285714,0.7142857142857143,-1.1428571428571428,-1.0612244897959184,3.9387755102040813,3.9387755102040813,1.0,1.0,-1.0,5.0,0,0,0
11.0,0.0,11.0,0.0,1.0,0.0,1.0,0.0,,,,right,1.851505994796753,443.95128083229065,bh3,443.95128083229065,None,431.5585768222809,435.07321882247925,False,6.0,['p'],True,0.4081632653061224,0.5714285714285714,0.2857142857142857,2.0,1.0,0.9885754083994552,-0.1076532809956411,wait_cost,0.0,5.0,441.547269821167,None,bh3,2,2023-04-04_10h17.26.911,threat_forest,2021.2.3,60.004177384327946,False,35.0,0.5357142857142857,0.4642857142857143,-0.7806122448979592,-0.8686224489795918,0,0,0,0.6159993591717182,-0.1076532809956411,0.4081632653061224,0.4081632653061224,0.5714285714285714,0.7142857142857143,-1.1428571428571428,-1.0612244897959184,4.938775510204081,4.938775510204081,1.0,1.0,1.0,6.0,0,0,0
11.0,0.0,11.0,0.0,2.0,0.0,2.0,0.0,,,,right,0.4751641750335693,451.0279939174652,bh3,445.8381860256195,447.83759093284607,451.0279939174652,None,True,5.0,['p'],False,0.5,0.5,0.0,0.0,1.0,0.6309297535714574,0.0981848763621676,unsucc_cost,1.0,3.0,447.83759093284607,None,bh3,2,2023-04-04_10h17.26.911,threat_forest,2021.2.3,60.004177384327946,True,35.0,0.5357142857142857,0.4642857142857143,-0.7806122448979592,-0.8686224489795918,1,1,1,-0.7440949030147352,0.0981848763621676,0.5,0.5,0.5,1.0,-0.5,-0.5,4.5,4.5,0.0,1.0,-1.0,5.0,0,1,1
11.0,0.0,11.0,0.0,3.0,0.0,3.0,0.0,,,,right,0.7066080570220947,456.6606588363648,bh3,445.8381860256195,447.83759093284607,456.6606588363648,None,True,3.0,['p'],False,0.5,0.5,0.0,0.0,1.0,0.6309297535714574,0.1629165462519868,succ_gain,1.0,4.0,453.5269889831543,None,bh3,2,2023-04-04_10h17.26.911,threat_forest,2021.2.3,60.004177384327946,True,35.0,0.5357142857142857,0.4642857142857143,-0.7806122448979592,-0.8686224489795918,1,1,1,-0.34727914160003037,0.1629165462519868,0.5,0.5,0.5,1.0,-0.5,-0.5,2.5,2.5,0.0,1.0,-1.0,3.0,0,1,1
11.0,0.0,11.0,0.0,4.0,0.0,4.0,0.0,,,,right,1.0721321105957031,459.9629228115082,bh3,445.8381860256195,447.83759093284607,459.9629228115082,None,True,4.0,['p'],False,0.5,0.5,0.0,0.0,1.0,0.6309297535714574,0.1014160766347355,unsucc_cost,1.0,2.0,459.4032969474793,None,bh3,2,2023-04-04_10h17.26.911,threat_forest,2021.2.3,60.004177384327946,True,35.0,0.5357142857142857,0.4642857142857143,-0.7806122448979592,-0.8686224489795918,1,1,1,0.0696492925514856,0.1014160766347355,0.5,0.5,0.5,1.0,-0.5,-0.5,3.5,3.5,0.0,1.0,1.0,4.0,0,1,1
11.0,0.0,11.0,0.0,5.0,0.0,5.0,0.0,,,,right,0.987673044204712,465.6712520122528,bh3,445.8381860256195,447.83759093284607,465.6712520122528,None,True,2.0,['p'],False,0.5,0.5,0.0,0.0,1.0,0.6309297535714574,0.0459183673469387,unsucc_cost,1.0,0.0,463.0887129306793,None,bh3,2,2023-04-04_10h17.26.911,threat_forest,2021.2.3,60.004177384327946,True,35.0,0.5357142857142857,0.4642857142857143,-0.7806122448979592,-0.8686224489795918,1,1,1,-0.012403562920972758,0.0459183673469387,0.5,0.5,0.5,1.0,-0.5,-0.5,1.5,1.5,0.0,1.0,-1.0,2.0,0,1,1
12.0,0.0,12.0,0.0,0.0,0.0,0.0,0.0,471.33427596092224,474.83321380615234,None,left,1.1547160148620603,476.8110568523407,bh3,476.8110568523407,None,471.33427596092224,474.83321380615234,True,5.0,['p'],True,0.4444444444444445,0.6666666666666666,0.3333333333333333,1.0,2.0,0.9656336071428248,0.0210978181405199,unsucc_cost,0.0,3.0,,,bh3,2,2023-04-04_10h17.26.911,threat_forest,2021.2.3,60.004177384327946,True,53.0,0.5,0.5178571428571428,-0.8703703703703706,-0.8254913076341649,1,0,1,0.14385443916334434,0.0210978181405199,0.4444444444444445,0.4444444444444445,0.6666666666666666,0.6666666666666667,-0.3333333333333335,-0.5555555555555556,4.444444444444445,4.444444444444445,1.0,2.0,-1.0,5.0,0,0,1
