miniblock.thisRepN,miniblock.thisTrialN,miniblock.thisN,miniblock.thisIndex,day.thisRepN,day.thisTrialN,day.thisN,day.thisIndex,forest.started,fixation_forest.started,fixation_forest.stopped,key_resp.keys,key_resp.rt,key_resp.started,Subject_ID,weather_left.started,weather_left.stopped,weather_right.started,weather_right.stopped,foraging T/F,in_LP,p/r heuristic,good_weather.T/F,p_succ_correct,p_succ_uncorrected,r_threat,n_oponents,gain_if_succ,weather_entropy,OP_value_difference,action_outcome,forest_side_L=0_R=1,out_LP,fixation_day.started,fixation_day.stopped,participant,session,date,expName,psychopyVersion,frameRate,foraging T/F NaNs,fora_NR,forest_mean_p,mvt_cutoff_p,forest_mean_ev,mvt_cutoff_ev,mvt_policy_eg,mvt_policy_p,fora_response,logRT,optimal policy,$\mathit{p}$ success cor + cap,$\mathit{p}$ success cor,$\mathit{p}$ success,risk threat encounter,expected gain naive,expected gain correct,expected state no bounds,expected state with bounds,weather type,gain magnitude,win stay lose shift,continuous energy state,binary energy state,$\mathit{p}$ success based MVT,expected gain based MVT
0.0,0.0,0.0,0.0,0.0,0.0,0.0,0.0,13.983258962631226,17.495529890060425,None,left,0.9139389991760254,20.317471981048584,os8,13.983258962631226,17.495529890060425,20.317471981048584,None,False,4.0,['p'],False,0.1875,0.25,0.25,2.0,1.0,0.895754137500101,-0.0017291066874999,wait_cost,1.0,3.0,,,os8,1,2023-02-28_10h20.45.819,threat_forest,2021.2.3,59.989072882728,False,57.0,0.4583333333333333,0.4583333333333333,-1.34375,-1.34375,0,0,0,-0.08999145026286469,-0.0017291066874999,0.1875,0.1875,0.25,0.75,-2.0,-1.6875,2.3125,2.3125,0.0,1.0,,4.0,0,0,0
0.0,0.0,0.0,0.0,1.0,0.0,1.0,0.0,,,,left,2.522274971008301,25.20548796653748,os8,13.983258962631226,17.495529890060425,25.20548796653748,None,False,3.0,['p'],False,0.1875,0.25,0.25,2.0,1.0,0.895754137500101,0.0033269309357997,wait_cost,1.0,2.0,23.25098705291748,None,os8,1,2023-02-28_10h20.45.819,threat_forest,2021.2.3,59.989072882728,False,57.0,0.4583333333333333,0.4583333333333333,-1.34375,-1.34375,0,0,0,0.9251612605480769,0.0033269309357997,0.1875,0.1875,0.25,0.75,-2.0,-1.6875,1.3125,1.3125,0.0,1.0,-1.0,3.0,0,0,0
0.0,0.0,0.0,0.0,2.0,0.0,2.0,0.0,,,,left,0.8375232219696045,33.36758804321289,os8,33.36758804321289,None,27.760000944137573,29.77489399909973,True,2.0,['p'],True,0.4444444444444445,0.6666666666666666,0.3333333333333333,1.0,1.0,0.9656336071428248,0.0419213577407721,figh_cost,0.0,0.0,29.77489399909973,None,os8,1,2023-02-28_10h20.45.819,threat_forest,2021.2.3,59.989072882728,True,57.0,0.4583333333333333,0.4583333333333333,-1.34375,-1.34375,1,0,1,-0.17730628794242093,0.0419213577407721,0.4444444444444445,0.4444444444444445,0.6666666666666666,0.6666666666666667,-1.0,-1.0,1.0,1.0,1.0,1.0,-1.0,2.0,0,0,1
1.0,0.0,1.0,0.0,0.0,0.0,0.0,0.0,39.780051946640015,43.28937005996704,None,right,2.104271173477173,46.707956075668335,os8,46.707956075668335,None,39.780051946640015,43.28937005996704,False,5.0,['r'],True,0.24,0.3,0.2,2.0,2.0,0.9003120349047065,-0.0006443703968158,wait_cost,0.0,4.0,,,os8,1,2023-02-28_10h20.45.819,threat_forest,2021.2.3,59.989072882728,False,55.0,0.2928571428571428,0.3755952380952381,-1.0485714285714285,-1.1961607142857142,0,0,0,0.7439691713030365,-0.0006443703968158,0.24,0.24,0.3,0.8,-1.4,-1.24,3.76,3.76,1.0,2.0,-1.0,5.0,0,0,0
1.0,0.0,1.0,0.0,1.0,0.0,1.0,0.0,,,,left,1.9381048679351809,51.8827428817749,os8,51.8827428817749,None,39.780051946640015,43.28937005996704,True,4.0,['r'],True,0.24,0.3,0.2,2.0,2.0,0.9003120349047065,0.006419000614582,unsucc_cost,0.0,2.0,50.83864903450012,None,os8,1,2023-02-28_10h20.45.819,threat_forest,2021.2.3,59.989072882728,True,55.0,0.2928571428571428,0.3755952380952381,-1.0485714285714285,-1.1961607142857142,0,0,1,0.6617106234262663,0.006419000614582,0.24,0.24,0.3,0.8,-1.4,-1.24,2.76,2.76,1.0,2.0,-1.0,4.0,0,0,0
1.0,0.0,1.0,0.0,2.0,0.0,2.0,0.0,,,,right,2.0289831161499023,58.29197502136231,os8,53.85144090652466,55.85404396057129,58.29197502136231,None,True,2.0,['r'],False,0.2857142857142857,0.2857142857142857,0.0,0.0,2.0,0.5445684476282007,0.0171645014577258,unsucc_cost,1.0,0.0,55.85404396057129,None,os8,1,2023-02-28_10h20.45.819,threat_forest,2021.2.3,59.989072882728,True,55.0,0.2928571428571428,0.3755952380952381,-1.0485714285714285,-1.1961607142857142,1,0,1,0.7075347395423738,0.0171645014577258,0.2857142857142857,0.2857142857142857,0.2857142857142857,1.0,-0.8571428571428572,-0.8571428571428572,1.1428571428571428,1.1428571428571428,0.0,2.0,-1.0,2.0,0,0,1
2.0,0.0,2.0,0.0,0.0,0.0,0.0,0.0,65.19639301300049,68.70090389251709,None,left,1.1169559955596924,69.25829195976257,os8,69.25829195976257,None,65.19639301300049,68.70090389251709,True,4.0,['r'],True,0.5,0.5,0.0,0.0,2.0,0.6309297535714574,0.096737473125,unsucc_cost,0.0,2.0,,,os8,1,2023-02-28_10h20.45.819,threat_forest,2021.2.3,59.989072882728,True,67.0,0.55,0.42142857142857143,-0.4800000000000001,-0.7642857142857142,1,1,1,0.1106071241093445,0.096737473125,0.5,0.5,0.5,1.0,0.0,0.0,4.0,4.0,1.0,2.0,-1.0,4.0,0,1,1
2.0,0.0,2.0,0.0,1.0,0.0,1.0,0.0,,,,left,1.2222239971160889,74.966726064682,os8,74.966726064682,None,65.19639301300049,68.70090389251709,True,2.0,['r'],True,0.5,0.5,0.0,0.0,2.0,0.6309297535714574,0.0640913125000001,succ_gain,0.0,4.0,72.40500402450562,None,os8,1,2023-02-28_10h20.45.819,threat_forest,2021.2.3,59.989072882728,True,67.0,0.55,0.42142857142857143,-0.4800000000000001,-0.7642857142857142,1,1,1,0.20067214764698763,0.0640913125000001,0.5,0.5,0.5,1.0,0.0,0.0,2.0,2.0,1.0,2.0,-1.0,2.0,0,1,1
2.0,0.0,2.0,0.0,2.0,0.0,2.0,0.0,,,,left,2.1952569484710693,80.6475579738617,os8,80.6475579738617,None,65.19639301300049,68.70090389251709,True,4.0,['r'],True,0.5,0.5,0.0,0.0,2.0,0.6309297535714574,0.10350625,succ_gain,0.0,6.0,78.2119529247284,None,os8,1,2023-02-28_10h20.45.819,threat_forest,2021.2.3,59.989072882728,True,67.0,0.55,0.42142857142857143,-0.4800000000000001,-0.7642857142857142,1,1,1,0.7862991004829184,0.10350625,0.5,0.5,0.5,1.0,0.0,0.0,4.0,4.0,1.0,2.0,1.0,4.0,0,1,1
2.0,0.0,2.0,0.0,3.0,0.0,3.0,0.0,,,,left,1.5418980121612549,87.74113607406616,os8,82.87323999404907,84.88586807250977,87.74113607406616,None,False,6.0,['r'],False,0.36,0.6,0.4,2.0,2.0,0.9801625908629508,-0.238868,wait_cost,1.0,5.0,84.88586807250977,None,os8,1,2023-02-28_10h20.45.819,threat_forest,2021.2.3,59.989072882728,False,67.0,0.55,0.42142857142857143,-0.4800000000000001,-0.7642857142857142,0,0,0,0.4330141329805474,-0.238868,0.0,0.36,0.6,0.6,-0.8000000000000003,-0.9600000000000002,5.04,5.04,0.0,2.0,1.0,6.0,0,0,0
2.0,0.0,2.0,0.0,4.0,0.0,4.0,0.0,,,,left,1.284964084625244,91.97681784629822,os8,82.87323999404907,84.88586807250977,91.97681784629822,None,False,5.0,['r'],False,0.36,0.6,0.4,2.0,2.0,0.9801625908629508,-0.3124,wait_cost,1.0,4.0,91.3262369632721,None,os8,1,2023-02-28_10h20.45.819,threat_forest,2021.2.3,59.989072882728,False,67.0,0.55,0.42142857142857143,-0.4800000000000001,-0.7642857142857142,0,0,0,0.25073076824860135,-0.3124,0.0,0.36,0.6,0.6,-0.8000000000000003,-0.9600000000000002,4.04,4.04,0.0,2.0,-1.0,5.0,0,0,0
2.0,0.0,2.0,0.0,5.0,0.0,5.0,0.0,,,,left,1.0273361206054688,97.69972705841064,os8,82.87323999404907,84.88586807250977,97.69972705841064,None,False,4.0,['r'],False,0.36,0.6,0.4,2.0,2.0,0.9801625908629508,-0.3564,wait_cost,1.0,3.0,95.28038191795348,None,os8,1,2023-02-28_10h20.45.819,threat_forest,2021.2.3,59.989072882728,False,67.0,0.55,0.42142857142857143,-0.4800000000000001,-0.7642857142857142,0,0,0,0.026969161339828265,-0.3564,0.0,0.36,0.6,0.6,-0.8000000000000003,-0.9600000000000002,3.04,3.04,0.0,2.0,-1.0,4.0,0,0,0
2.0,0.0,2.0,0.0,6.0,0.0,6.0,0.0,,,,right,2.099591016769409,102.59176588058472,os8,102.59176588058472,None,98.7564389705658,100.76972389221191,False,3.0,['r'],True,0.5,0.5,0.0,0.0,2.0,0.6309297535714574,-0.285,wait_cost,0.0,2.0,100.76972389221191,None,os8,1,2023-02-28_10h20.45.819,threat_forest,2021.2.3,59.989072882728,False,67.0,0.55,0.42142857142857143,-0.4800000000000001,-0.7642857142857142,1,1,0,0.7417425718430412,-0.285,0.0,0.5,0.5,1.0,0.0,0.0,3.0,3.0,1.0,2.0,-1.0,3.0,0,1,1
2.0,0.0,2.0,0.0,7.0,0.0,7.0,0.0,,,,left,1.831852912902832,108.01114797592165,os8,104.71732497215272,106.72664093971252,108.01114797592165,None,False,2.0,['r'],False,0.36,0.6,0.4,2.0,2.0,0.9801625908629508,-0.64,wait_cost,1.0,1.0,106.72664093971252,None,os8,1,2023-02-28_10h20.45.819,threat_forest,2021.2.3,59.989072882728,False,67.0,0.55,0.42142857142857143,-0.4800000000000001,-0.7642857142857142,0,0,0,0.6053279753119125,-0.64,0.0,0.36,0.6,0.6,-0.8000000000000003,-0.9600000000000002,1.0399999999999998,1.0399999999999998,0.0,2.0,-1.0,2.0,0,0,0
3.0,0.0,3.0,0.0,0.0,0.0,0.0,0.0,114.31746101379396,117.82164907455444,None,right,1.4738140106201172,121.47596502304076,os8,114.31746101379396,117.82164907455444,121.47596502304076,None,True,4.0,['r'],False,0.2222222222222222,0.6666666666666666,0.6666666666666666,2.0,1.0,0.77250688571426,-0.0026222925028365,succ_gain,1.0,5.0,,,os8,1,2023-02-28_10h20.45.819,threat_forest,2021.2.3,59.989072882728,True,66.0,0.5,0.525,-1.5,-0.99,0,0,1,0.38785360576514777,-0.0026222925028365,0.2222222222222222,0.2222222222222222,0.6666666666666666,0.33333333333333337,-2.0,-2.0,2.0,2.0,0.0,1.0,-1.0,4.0,0,0,0
3.0,0.0,3.0,0.0,1.0,0.0,1.0,0.0,,,,left,2.868546962738037,125.81411504745483,os8,125.81411504745483,None,122.9830858707428,124.99667406082153,True,5.0,['r'],True,0.3333333333333333,0.3333333333333333,0.0,0.0,1.0,0.5793801642856949,0.0643615366051922,succ_gain,0.0,6.0,124.99667406082152,None,os8,1,2023-02-28_10h20.45.819,threat_forest,2021.2.3,59.989072882728,True,66.0,0.5,0.525,-1.5,-0.99,0,0,1,1.0538056168058605,0.0643615366051922,0.3333333333333333,0.3333333333333333,0.3333333333333333,1.0,-1.0000000000000002,-1.0000000000000002,4.0,4.0,1.0,1.0,1.0,5.0,0,0,0
3.0,0.0,3.0,0.0,2.0,0.0,2.0,0.0,,,,left,1.2433369159698486,132.48958206176758,os8,128.7086079120636,130.71979689598083,132.48958206176758,None,False,6.0,['r'],False,0.2222222222222222,0.6666666666666666,0.6666666666666666,2.0,1.0,0.77250688571426,-0.145666628562719,wait_cost,1.0,5.0,130.71979689598083,None,os8,1,2023-02-28_10h20.45.819,threat_forest,2021.2.3,59.989072882728,False,66.0,0.5,0.525,-1.5,-0.99,0,0,0,0.2177988264605531,-0.145666628562719,0.2222222222222222,0.2222222222222222,0.6666666666666666,0.33333333333333337,-2.0,-2.0,4.0,4.0,0.0,1.0,1.0,6.0,0,0,0
3.0,0.0,3.0,0.0,3.0,0.0,3.0,0.0,,,,left,1.7677180767059326,138.05759406089783,os8,128.7086079120636,130.71979689598083,138.05759406089783,None,False,5.0,['r'],False,0.2222222222222222,0.6666666666666666,0.6666666666666666,2.0,1.0,0.77250688571426,-0.1373742569730223,wait_cost,1.0,4.0,135.75864005088806,None,os8,1,2023-02-28_10h20.45.819,threat_forest,2021.2.3,59.989072882728,False,66.0,0.5,0.525,-1.5,-0.99,0,0,0,0.5696894926237984,-0.1373742569730223,0.2222222222222222,0.2222222222222222,0.6666666666666666,0.33333333333333337,-2.0,-2.0,3.0,3.0,0.0,1.0,-1.0,5.0,0,0,0
3.0,0.0,3.0,0.0,4.0,0.0,4.0,0.0,,,,left,2.2399940490722656,143.2166929244995,os8,128.7086079120636,130.71979689598083,143.2166929244995,None,False,4.0,['r'],False,0.2222222222222222,0.6666666666666666,0.6666666666666666,2.0,1.0,0.77250688571426,-0.0992798353909464,wait_cost,1.0,3.0,141.84857201576233,None,os8,1,2023-02-28_10h20.45.819,threat_forest,2021.2.3,59.989072882728,False,66.0,0.5,0.525,-1.5,-0.99,0,0,0,0.8064732091992524,-0.0992798353909464,0.2222222222222222,0.2222222222222222,0.6666666666666666,0.33333333333333337,-2.0,-2.0,2.0,2.0,0.0,1.0,-1.0,4.0,0,0,0
3.0,0.0,3.0,0.0,5.0,0.0,5.0,0.0,,,,left,2.1635310649871826,149.4399778842926,os8,149.4399778842926,None,145.48582291603088,147.48816895484924,True,3.0,['r'],True,0.3333333333333333,0.3333333333333333,0.0,0.0,1.0,0.5793801642856949,0.2129629629629629,succ_gain,0.0,4.0,147.48816895484924,None,os8,1,2023-02-28_10h20.45.819,threat_forest,2021.2.3,59.989072882728,True,66.0,0.5,0.525,-1.5,-0.99,0,0,1,0.7717416392518612,0.2129629629629629,0.3333333333333333,0.3333333333333333,0.3333333333333333,1.0,-1.0000000000000002,-1.0000000000000002,1.9999999999999998,1.9999999999999998,1.0,1.0,-1.0,3.0,0,0,0
3.0,0.0,3.0,0.0,6.0,0.0,6.0,0.0,,,,left,0.7741820812225342,157.28329706192017,os8,151.63652396202087,153.6446568965912,157.28329706192017,None,False,4.0,['r'],False,0.2222222222222222,0.6666666666666666,0.6666666666666666,2.0,1.0,0.77250688571426,-0.4814814814814815,wait_cost,1.0,3.0,153.6446568965912,None,os8,1,2023-02-28_10h20.45.819,threat_forest,2021.2.3,59.989072882728,False,66.0,0.5,0.525,-1.5,-0.99,0,0,0,-0.2559481860011224,-0.4814814814814815,0.0,0.2222222222222222,0.6666666666666666,0.33333333333333337,-2.0,-2.0,2.0,2.0,0.0,1.0,1.0,4.0,0,0,0
3.0,0.0,3.0,0.0,7.0,0.0,7.0,0.0,,,,right,0.9183139801025392,163.48893284797668,os8,163.48893284797668,None,158.08683705329895,160.10205698013306,False,3.0,['r'],True,0.3333333333333333,0.3333333333333333,0.0,0.0,1.0,0.5793801642856949,0.0,wait_cost,0.0,2.0,160.10205698013306,None,os8,1,2023-02-28_10h20.45.819,threat_forest,2021.2.3,59.989072882728,False,66.0,0.5,0.525,-1.5,-0.99,0,0,0,-0.08521592058380346,0.0,0.0,0.3333333333333333,0.3333333333333333,1.0,-1.0000000000000002,-1.0000000000000002,1.9999999999999998,1.9999999999999998,1.0,1.0,-1.0,3.0,0,0,0
4.0,0.0,4.0,0.0,0.0,0.0,0.0,0.0,169.1429078578949,172.64897203445437,None,left,2.342580795288086,173.7001268863678,os8,169.1429078578949,172.64897203445435,173.7001268863678,None,False,4.0,['r'],False,0.2222222222222222,0.6666666666666666,0.6666666666666666,2.0,1.0,0.77250688571426,-0.0341076534259416,wait_cost,1.0,3.0,,,os8,1,2023-02-28_10h20.45.819,threat_forest,2021.2.3,59.989072882728,False,30.0,0.5833333333333333,0.5416666666666666,-1.25,-1.375,0,0,0,0.851253225587115,-0.0341076534259416,0.2222222222222222,0.2222222222222222,0.6666666666666666,0.33333333333333337,-2.0,-2.0,2.0,2.0,0.0,1.0,-1.0,4.0,0,0,0
4.0,0.0,4.0,0.0,1.0,0.0,1.0,0.0,,,,left,1.099241018295288,180.3271999359131,os8,180.3271999359131,None,176.06941390037537,178.07222700119019,True,3.0,['r'],True,0.5,0.5,0.0,0.0,1.0,0.6309297535714574,0.1098696443115568,unsucc_cost,0.0,1.0,178.0722270011902,None,os8,1,2023-02-28_10h20.45.819,threat_forest,2021.2.3,59.989072882728,True,30.0,0.5833333333333333,0.5416666666666666,-1.25,-1.375,1,0,1,0.09461995828832916,0.1098696443115568,0.5,0.5,0.5,1.0,-0.5,-0.5,2.5,2.5,1.0,1.0,-1.0,3.0,0,0,1
4.0,0.0,4.0,0.0,2.0,0.0,2.0,0.0,,,,right,1.3041341304779053,184.82898998260495,os8,181.45855402946472,183.46101093292236,184.82898998260495,None,True,1.0,['r'],False,0.2222222222222222,0.6666666666666666,0.6666666666666666,2.0,1.0,0.77250688571426,0.0452835648148148,figh_cost,1.0,0.0,183.4610109329224,None,os8,1,2023-02-28_10h20.45.819,threat_forest,2021.2.3,59.989072882728,True,30.0,0.5833333333333333,0.5416666666666666,-1.25,-1.375,0,0,1,0.2655393190105919,0.0452835648148148,1.0,0.2222222222222222,0.6666666666666666,0.33333333333333337,-2.0,-2.0,-1.0,0.0,0.0,1.0,-1.0,1.0,1,0,0
5.0,0.0,5.0,0.0,0.0,0.0,0.0,0.0,189.74426102638245,193.2552380561829,None,None,,196.9382770061493,os8,189.74426102638245,193.25523805618286,196.9382770061493,None,False,5.0,['p'],False,0.24,0.3,0.2,2.0,1.0,0.9003120349047065,-0.0090981991697076,wait_cost,1.0,4.0,,,os8,1,2023-02-28_10h20.45.819,threat_forest,2021.2.3,59.989072882728,None,9.0,0.4,0.49166666666666664,-1.3025,-1.27625,0,0,0,,-0.0090981991697076,0.24,0.24,0.3,0.8,-1.7,-1.48,3.52,3.52,0.0,1.0,-1.0,5.0,0,0,0
5.0,0.0,5.0,0.0,1.0,0.0,1.0,0.0,,,,None,,204.83477306365967,os8,189.74426102638245,193.25523805618286,204.83477306365967,None,False,4.0,['p'],False,0.24,0.3,0.2,2.0,1.0,0.9003120349047065,0.0018466381927442,wait_cost,1.0,3.0,201.9480540752411,None,os8,1,2023-02-28_10h20.45.819,threat_forest,2021.2.3,59.989072882728,None,9.0,0.4,0.49166666666666664,-1.3025,-1.27625,0,0,0,,0.0018466381927442,0.24,0.24,0.3,0.8,-1.7,-1.48,2.52,2.52,0.0,1.0,-1.0,4.0,0,0,0
5.0,0.0,5.0,0.0,2.0,0.0,2.0,0.0,,,,left,1.3220791816711426,213.61130905151367,os8,189.74426102638245,193.25523805618286,213.61130905151367,None,False,3.0,['p'],False,0.24,0.3,0.2,2.0,1.0,0.9003120349047065,0.0003182842476561,wait_cost,1.0,2.0,209.85669803619385,None,os8,1,2023-02-28_10h20.45.819,threat_forest,2021.2.3,59.989072882728,False,9.0,0.4,0.49166666666666664,-1.3025,-1.27625,0,0,0,0.27920563499978934,0.0003182842476561,0.24,0.24,0.3,0.8,-1.7,-1.48,1.52,1.52,0.0,1.0,-1.0,3.0,0,0,0
5.0,0.0,5.0,0.0,3.0,0.0,3.0,0.0,,,,left,0.9235720634460448,219.9203629493713,os8,219.9203629493713,None,214.95828795433044,216.96436095237732,True,2.0,['p'],True,0.375,0.5,0.25,1.0,1.0,0.9850568223215076,0.0367406982421875,figh_cost,0.0,0.0,216.9643609523773,None,os8,1,2023-02-28_10h20.45.819,threat_forest,2021.2.3,59.989072882728,True,9.0,0.4,0.49166666666666664,-1.3025,-1.27625,1,0,1,-0.07950644941915125,0.0367406982421875,0.375,0.375,0.5,0.75,-1.25,-1.125,0.875,0.875,1.0,1.0,-1.0,2.0,0,0,1
6.0,0.0,6.0,0.0,0.0,0.0,0.0,0.0,226.2438099384308,229.7453680038452,None,right,1.852895975112915,231.19690203666687,os8,226.2438099384308,229.74536800384521,231.19690203666687,None,True,4.0,['r'],False,0.25,0.25,0.0,0.0,1.0,0.5118595071429148,0.013244588621374,succ_gain,1.0,5.0,,,os8,1,2023-02-28_10h20.45.819,threat_forest,2021.2.3,59.989072882728,True,20.0,0.4583333333333333,0.4291666666666667,-1.625,-1.46375,1,0,1,0.6167498070943174,0.013244588621374,0.25,0.25,0.25,1.0,-1.25,-1.25,2.75,2.75,0.0,1.0,-1.0,4.0,0,0,1
6.0,0.0,6.0,0.0,1.0,0.0,1.0,0.0,,,,right,2.606854200363159,238.71798396110532,os8,226.2438099384308,229.74536800384521,238.71798396110532,None,True,5.0,['r'],False,0.25,0.25,0.0,0.0,1.0,0.5118595071429148,0.0342150382295962,unsucc_cost,1.0,3.0,235.08459091186523,None,os8,1,2023-02-28_10h20.45.819,threat_forest,2021.2.3,59.989072882728,True,20.0,0.4583333333333333,0.4291666666666667,-1.625,-1.46375,1,0,1,0.9581442071746084,0.0342150382295962,0.25,0.25,0.25,1.0,-1.25,-1.25,3.75,3.75,0.0,1.0,1.0,5.0,0,0,1
6.0,0.0,6.0,0.0,2.0,0.0,2.0,0.0,,,,right,1.1754610538482666,245.09317588806152,os8,226.2438099384308,229.74536800384521,245.09317588806152,None,True,3.0,['r'],False,0.25,0.25,0.0,0.0,1.0,0.5118595071429148,0.0232278910774843,succ_gain,1.0,4.0,243.3608169555664,None,os8,1,2023-02-28_10h20.45.819,threat_forest,2021.2.3,59.989072882728,True,20.0,0.4583333333333333,0.4291666666666667,-1.625,-1.46375,1,0,1,0.16166045688661235,0.0232278910774843,0.25,0.25,0.25,1.0,-1.25,-1.25,1.75,1.75,0.0,1.0,-1.0,3.0,0,0,1
6.0,0.0,6.0,0.0,3.0,0.0,3.0,0.0,,,,right,1.973194122314453,252.0230078697205,os8,252.0230078697205,None,246.29702186584475,248.3140778541565,False,4.0,['r'],True,0.2222222222222222,0.6666666666666666,0.6666666666666666,2.0,1.0,0.77250688571426,0.0012938969383476,wait_cost,0.0,3.0,248.3140778541565,None,os8,1,2023-02-28_10h20.45.819,threat_forest,2021.2.3,59.989072882728,False,20.0,0.4583333333333333,0.4291666666666667,-1.625,-1.46375,0,0,0,0.6796536116148771,0.0012938969383476,0.2222222222222222,0.2222222222222222,0.6666666666666666,0.33333333333333337,-2.0,-2.0,2.0,2.0,1.0,1.0,1.0,4.0,0,0,0
6.0,0.0,6.0,0.0,4.0,0.0,4.0,0.0,,,,right,1.9033949375152588,258.97747588157654,os8,254.0205760002136,256.02466106414795,258.97747588157654,None,True,3.0,['r'],False,0.25,0.25,0.0,0.0,1.0,0.5118595071429148,0.0499855324074074,succ_gain,1.0,4.0,256.02466106414795,None,os8,1,2023-02-28_10h20.45.819,threat_forest,2021.2.3,59.989072882728,True,20.0,0.4583333333333333,0.4291666666666667,-1.625,-1.46375,1,0,1,0.6436391009463899,0.0499855324074074,0.25,0.25,0.25,1.0,-1.25,-1.25,1.75,1.75,0.0,1.0,-1.0,3.0,0,0,1
6.0,0.0,6.0,0.0,5.0,0.0,5.0,0.0,,,,right,1.0115017890930176,265.20833802223206,os8,265.20833802223206,None,260.92036485672,262.9326410293579,False,4.0,['r'],True,0.2222222222222222,0.6666666666666666,0.6666666666666666,2.0,1.0,0.77250688571426,-0.5933641975308642,wait_cost,0.0,3.0,262.9326410293579,None,os8,1,2023-02-28_10h20.45.819,threat_forest,2021.2.3,59.989072882728,False,20.0,0.4583333333333333,0.4291666666666667,-1.625,-1.46375,0,0,0,0.01143614637646424,-0.5933641975308642,0.0,0.2222222222222222,0.6666666666666666,0.33333333333333337,-2.0,-2.0,2.0,2.0,1.0,1.0,1.0,4.0,0,0,0
6.0,0.0,6.0,0.0,6.0,0.0,6.0,0.0,,,,left,1.867366075515747,271.79433393478394,os8,266.2523319721222,268.254891872406,271.79433393478394,None,False,3.0,['r'],False,0.25,0.25,0.0,0.0,1.0,0.5118595071429148,-0.5729166666666667,wait_cost,1.0,2.0,268.254891872406,None,os8,1,2023-02-28_10h20.45.819,threat_forest,2021.2.3,59.989072882728,False,20.0,0.4583333333333333,0.4291666666666667,-1.625,-1.46375,1,0,0,0.6245289222087378,-0.5729166666666667,0.0,0.25,0.25,1.0,-1.25,-1.25,1.75,1.75,0.0,1.0,-1.0,3.0,0,0,1
6.0,0.0,6.0,0.0,7.0,0.0,7.0,0.0,,,,right,1.4822371006011963,278.60078406333923,os8,278.60078406333923,None,273.70059299468994,275.7130229473114,False,2.0,['r'],True,0.2222222222222222,0.6666666666666666,0.6666666666666666,2.0,1.0,0.77250688571426,-0.7777777777777778,wait_cost,0.0,1.0,275.7130229473114,None,os8,1,2023-02-28_10h20.45.819,threat_forest,2021.2.3,59.989072882728,False,20.0,0.4583333333333333,0.4291666666666667,-1.625,-1.46375,0,0,0,0.3935525009877431,-0.7777777777777778,0.0,0.2222222222222222,0.6666666666666666,0.33333333333333337,-2.0,-2.0,0.0,0.0,1.0,1.0,-1.0,2.0,0,0,0
7.0,0.0,7.0,0.0,0.0,0.0,0.0,0.0,285.26180696487427,288.7601180076599,None,left,0.8969471454620361,289.369521856308,os8,289.369521856308,None,285.26180696487427,288.7601180076599,True,4.0,['r'],True,0.6,0.6,0.0,0.0,2.0,0.6126016192893442,0.0913331728581944,unsucc_cost,0.0,2.0,,,os8,1,2023-02-28_10h20.45.819,threat_forest,2021.2.3,59.989072882728,True,62.0,0.6125,0.5354166666666667,0.012499999999999956,-0.80625,1,1,1,-0.10875834233606879,0.0913331728581944,0.6,0.6,0.6,1.0,0.3999999999999999,0.3999999999999999,4.4,4.4,1.0,2.0,-1.0,4.0,0,1,1
7.0,0.0,7.0,0.0,1.0,0.0,1.0,0.0,,,,left,2.4370341300964355,293.8880548477173,os8,290.29559803009033,292.2972559928894,293.8880548477173,None,False,2.0,['r'],False,0.46875,0.625,0.25,2.0,2.0,0.9634951148421658,-0.0137064703989028,wait_cost,1.0,1.0,292.2972559928894,None,os8,1,2023-02-28_10h20.45.819,threat_forest,2021.2.3,59.989072882728,False,62.0,0.6125,0.5354166666666667,0.012499999999999956,-0.80625,1,0,0,0.890781779508659,-0.0137064703989028,0.46875,0.46875,0.625,0.75,-0.25,-0.375,1.625,1.625,0.0,2.0,-1.0,2.0,0,0,1
7.0,0.0,7.0,0.0,2.0,0.0,2.0,0.0,,,,right,1.2776539325714111,300.7404479980469,os8,290.29559803009033,292.2972559928894,300.7404479980469,None,True,1.0,['r'],False,0.46875,0.625,0.25,2.0,2.0,0.9634951148421658,0.3116130710095167,succ_gain,1.0,3.0,298.3544008731842,None,os8,1,2023-02-28_10h20.45.819,threat_forest,2021.2.3,59.989072882728,True,62.0,0.6125,0.5354166666666667,0.012499999999999956,-0.80625,1,0,1,0.24502553100029456,0.3116130710095167,1.0,0.46875,0.625,0.75,-0.25,-0.375,0.625,0.625,0.0,2.0,-1.0,1.0,1,0,1
7.0,0.0,7.0,0.0,3.0,0.0,3.0,0.0,,,,left,2.4698989391326904,304.5764939785004,os8,290.29559803009033,292.2972559928894,304.5764939785004,None,False,3.0,['r'],False,0.46875,0.625,0.25,2.0,2.0,0.9634951148421658,0.0092318544387817,wait_cost,1.0,2.0,304.0439138412476,None,os8,1,2023-02-28_10h20.45.819,threat_forest,2021.2.3,59.989072882728,False,62.0,0.6125,0.5354166666666667,0.012499999999999956,-0.80625,1,0,0,0.9041772344719363,0.0092318544387817,0.46875,0.46875,0.625,0.75,-0.25,-0.375,2.625,2.625,0.0,2.0,1.0,3.0,0,0,1
7.0,0.0,7.0,0.0,4.0,0.0,4.0,0.0,,,,None,,312.0696170330048,os8,290.29559803009033,292.2972559928894,312.0696170330048,None,False,2.0,['r'],False,0.46875,0.625,0.25,2.0,2.0,0.9634951148421658,-0.0656249999999999,wait_cost,1.0,1.0,309.0664179325104,None,os8,1,2023-02-28_10h20.45.819,threat_forest,2021.2.3,59.989072882728,None,62.0,0.6125,0.5354166666666667,0.012499999999999956,-0.80625,1,0,0,,-0.0656249999999999,0.46875,0.46875,0.625,0.75,-0.25,-0.375,1.625,1.625,0.0,2.0,-1.0,2.0,0,0,1
7.0,0.0,7.0,0.0,5.0,0.0,5.0,0.0,,,,left,0.9365198612213136,318.9436950683594,os8,318.9436950683594,None,315.0751249790192,317.0752019882202,True,1.0,['r'],True,0.6,0.6,0.0,0.0,2.0,0.6126016192893442,0.6,succ_gain,0.0,3.0,317.0752019882202,None,os8,1,2023-02-28_10h20.45.819,threat_forest,2021.2.3,59.989072882728,True,62.0,0.6125,0.5354166666666667,0.012499999999999956,-0.80625,1,1,1,-0.06558454939835805,0.6,1.0,0.6,0.6,1.0,0.3999999999999999,0.3999999999999999,1.4,1.4,1.0,2.0,-1.0,1.0,1,1,1
7.0,0.0,7.0,0.0,6.0,0.0,6.0,0.0,,,,right,0.7896051406860352,323.0983319282532,os8,323.0983319282532,None,315.0751249790192,317.0752019882202,False,3.0,['r'],True,0.6,0.6,0.0,0.0,2.0,0.6126016192893442,-0.18625,wait_cost,0.0,2.0,321.9138550758362,None,os8,1,2023-02-28_10h20.45.819,threat_forest,2021.2.3,59.989072882728,False,62.0,0.6125,0.5354166666666667,0.012499999999999956,-0.80625,1,1,0,-0.2362222803900929,-0.18625,0.0,0.6,0.6,1.0,0.3999999999999999,0.3999999999999999,3.4,3.4,1.0,2.0,1.0,3.0,0,1,1
7.0,0.0,7.0,0.0,7.0,0.0,7.0,0.0,,,,right,0.5472869873046875,327.9818229675293,os8,327.9818229675293,None,315.0751249790192,317.0752019882202,False,2.0,['r'],True,0.6,0.6,0.0,0.0,2.0,0.6126016192893442,-0.4,wait_cost,0.0,1.0,325.9239778518677,None,os8,1,2023-02-28_10h20.45.819,threat_forest,2021.2.3,59.989072882728,False,62.0,0.6125,0.5354166666666667,0.012499999999999956,-0.80625,1,1,0,-0.6027819572803021,-0.4,0.0,0.6,0.6,1.0,0.3999999999999999,0.3999999999999999,2.4,2.4,1.0,2.0,-1.0,2.0,0,1,1
8.0,0.0,8.0,0.0,0.0,0.0,0.0,0.0,332.2474510669708,335.762099981308,None,left,2.3655991554260254,338.80147194862366,os8,332.2474510669708,335.762099981308,338.80147194862366,None,False,4.0,['r'],False,0.2,0.2,0.0,0.0,2.0,0.4554859150035951,0.0111872651087291,wait_cost,1.0,3.0,,,os8,1,2023-02-28_10h20.45.819,threat_forest,2021.2.3,59.989072882728,False,26.0,0.2111111111111111,0.4118055555555556,-1.3654320987654323,-0.6764660493827162,0,0,0,0.8610313325329121,0.0111872651087291,0.2,0.2,0.2,1.0,-1.2000000000000002,-1.2000000000000002,2.8,2.8,0.0,2.0,-1.0,4.0,0,0,0
8.0,0.0,8.0,0.0,1.0,0.0,1.0,0.0,,,,None,,346.7129819393158,os8,346.7129819393158,None,341.1935820579529,343.2040169239044,False,3.0,['r'],True,0.1728395061728395,0.2222222222222222,0.2222222222222222,2.0,2.0,0.8571721972794328,0.0246106580002458,wait_cost,0.0,2.0,343.2040169239044,None,os8,1,2023-02-28_10h20.45.819,threat_forest,2021.2.3,59.989072882728,None,26.0,0.2111111111111111,0.4118055555555556,-1.3654320987654323,-0.6764660493827162,0,0,0,,0.0246106580002458,0.1728395061728395,0.1728395061728395,0.2222222222222222,0.7777777777777778,-1.7777777777777777,-1.5308641975308643,1.4691358024691357,1.4691358024691357,1.0,2.0,-1.0,3.0,0,0,0
8.0,0.0,8.0,0.0,2.0,0.0,2.0,0.0,,,,right,2.2535319328308105,354.3823800086975,os8,349.7320020198822,351.7468068599701,354.3823800086975,None,True,2.0,['r'],False,0.2,0.2,0.0,0.0,2.0,0.4554859150035951,0.0080294181291996,succ_gain,1.0,4.0,351.7468068599701,None,os8,1,2023-02-28_10h20.45.819,threat_forest,2021.2.3,59.989072882728,True,26.0,0.2111111111111111,0.4118055555555556,-1.3654320987654323,-0.6764660493827162,0,0,1,0.8124987333746868,0.0080294181291996,0.2,0.2,0.2,1.0,-1.2000000000000002,-1.2000000000000002,0.7999999999999998,0.7999999999999998,0.0,2.0,-1.0,2.0,0,0,0
8.0,0.0,8.0,0.0,3.0,0.0,3.0,0.0,,,,None,,361.40174889564514,os8,349.7320020198822,351.7468068599701,361.40174889564514,None,False,4.0,['r'],False,0.2,0.2,0.0,0.0,2.0,0.4554859150035951,0.0371940253010211,wait_cost,1.0,3.0,358.67120385169983,None,os8,1,2023-02-28_10h20.45.819,threat_forest,2021.2.3,59.989072882728,None,26.0,0.2111111111111111,0.4118055555555556,-1.3654320987654323,-0.6764660493827162,0,0,0,,0.0371940253010211,0.2,0.2,0.2,1.0,-1.2000000000000002,-1.2000000000000002,2.8,2.8,0.0,2.0,1.0,4.0,0,0,0
8.0,0.0,8.0,0.0,4.0,0.0,4.0,0.0,,,,left,1.1752870082855225,369.4329650402069,os8,369.4329650402069,None,364.4171688556671,366.42949891090393,True,3.0,['r'],True,0.1728395061728395,0.2222222222222222,0.2222222222222222,2.0,2.0,0.8571721972794328,0.0924020728547477,unsucc_cost,0.0,1.0,366.42949891090393,None,os8,1,2023-02-28_10h20.45.819,threat_forest,2021.2.3,59.989072882728,True,26.0,0.2111111111111111,0.4118055555555556,-1.3654320987654323,-0.6764660493827162,0,0,1,0.16151238013958386,0.0924020728547477,0.1728395061728395,0.1728395061728395,0.2222222222222222,0.7777777777777778,-1.7777777777777777,-1.5308641975308643,1.4691358024691357,1.4691358024691357,1.0,2.0,-1.0,3.0,0,0,0
8.0,0.0,8.0,0.0,5.0,0.0,5.0,0.0,,,,right,1.3802180290222168,373.5205910205841,os8,370.6381900310517,372.6421630382538,373.5205910205841,None,True,1.0,['r'],False,0.2,0.2,0.0,0.0,2.0,0.4554859150035951,0.1999999999999999,unsucc_cost,1.0,0.0,372.6421630382538,None,os8,1,2023-02-28_10h20.45.819,threat_forest,2021.2.3,59.989072882728,True,26.0,0.2111111111111111,0.4118055555555556,-1.3654320987654323,-0.6764660493827162,0,0,1,0.3222414787347692,0.1999999999999999,1.0,0.2,0.2,1.0,-1.2000000000000002,-1.2000000000000002,-0.20000000000000018,0.0,0.0,2.0,-1.0,1.0,1,0,0
9.0,0.0,9.0,0.0,0.0,0.0,0.0,0.0,380.1823689937592,383.681872844696,None,left,1.9567070007324217,386.9864649772644,os8,380.1823689937592,383.68187284469604,386.9864649772644,None,False,5.0,['r'],False,0.5,0.5,0.0,0.0,2.0,0.6309297535714574,0.0630973775,wait_cost,1.0,4.0,,,os8,1,2023-02-28_10h20.45.819,threat_forest,2021.2.3,59.989072882728,False,18.0,0.55,0.3805555555555556,-0.4800000000000001,-0.9227160493827162,1,1,0,0.6712629586216625,0.0630973775,0.5,0.5,0.5,1.0,0.0,0.0,5.0,5.0,0.0,2.0,-1.0,5.0,0,1,1
9.0,0.0,9.0,0.0,1.0,0.0,1.0,0.0,,,,left,1.8121209144592283,391.941015958786,os8,391.941015958786,None,388.97822284698486,390.9902138710022,True,4.0,['r'],True,0.36,0.6,0.4,2.0,2.0,0.9801625908629508,0.03428035,figh_cost,0.0,1.0,390.9902138710022,None,os8,1,2023-02-28_10h20.45.819,threat_forest,2021.2.3,59.989072882728,True,18.0,0.55,0.3805555555555556,-0.4800000000000001,-0.9227160493827162,0,0,1,0.5944979352284625,0.03428035,0.36,0.36,0.6,0.6,-0.8000000000000003,-0.9600000000000002,3.04,3.04,1.0,2.0,-1.0,4.0,0,0,0
9.0,0.0,9.0,0.0,2.0,0.0,2.0,0.0,,,,right,0.745913028717041,399.3656098842621,os8,393.7813799381256,395.79558205604553,399.3656098842621,None,True,1.0,['r'],False,0.5,0.5,0.0,0.0,2.0,0.6309297535714574,0.2729625,unsucc_cost,1.0,0.0,395.79558205604553,None,os8,1,2023-02-28_10h20.45.819,threat_forest,2021.2.3,59.989072882728,True,18.0,0.55,0.3805555555555556,-0.4800000000000001,-0.9227160493827162,1,1,1,-0.29314626906398056,0.2729625,1.0,0.5,0.5,1.0,0.0,0.0,1.0,1.0,0.0,2.0,-1.0,1.0,1,1,1
10.0,0.0,10.0,0.0,0.0,0.0,0.0,0.0,405.8263568878174,409.326721906662,None,right,1.6183748245239258,412.29700684547424,os8,405.8263568878174,409.326721906662,412.29700684547424,None,True,5.0,['p'],False,0.4444444444444445,0.6666666666666666,0.3333333333333333,1.0,2.0,0.9656336071428248,0.014840682614443,unsucc_cost,1.0,3.0,,,os8,1,2023-02-28_10h20.45.819,threat_forest,2021.2.3,59.989072882728,True,1.0,0.4833333333333333,0.5166666666666666,-0.7877777777777778,-0.633888888888889,1,0,1,0.4814224509693421,0.014840682614443,0.4444444444444445,0.4444444444444445,0.6666666666666666,0.6666666666666667,-0.3333333333333335,-0.5555555555555556,4.444444444444445,4.444444444444445,0.0,2.0,-1.0,5.0,0,0,1
10.0,0.0,10.0,0.0,1.0,0.0,1.0,0.0,,,,None,,419.3210248947144,os8,405.8263568878174,409.326721906662,419.3210248947144,None,False,3.0,['p'],False,0.4444444444444445,0.6666666666666666,0.3333333333333333,1.0,2.0,0.9656336071428248,0.0824166039453132,wait_cost,1.0,2.0,415.9559278488159,None,os8,1,2023-02-28_10h20.45.819,threat_forest,2021.2.3,59.989072882728,None,1.0,0.4833333333333333,0.5166666666666666,-0.7877777777777778,-0.633888888888889,1,0,0,,0.0824166039453132,0.4444444444444445,0.4444444444444445,0.6666666666666666,0.6666666666666667,-0.3333333333333335,-0.5555555555555556,2.4444444444444446,2.4444444444444446,0.0,2.0,-1.0,3.0,0,0,1
10.0,0.0,10.0,0.0,2.0,0.0,2.0,0.0,,,,left,1.2399208545684814,426.42399287223816,os8,405.8263568878174,409.326721906662,426.42399287223816,None,False,2.0,['p'],False,0.4444444444444445,0.6666666666666666,0.3333333333333333,1.0,2.0,0.9656336071428248,0.0702178235965045,wait_cost,1.0,1.0,424.343633890152,None,os8,1,2023-02-28_10h20.45.819,threat_forest,2021.2.3,59.989072882728,False,1.0,0.4833333333333333,0.5166666666666666,-0.7877777777777778,-0.633888888888889,1,0,0,0.2150475506190163,0.0702178235965045,0.4444444444444445,0.4444444444444445,0.6666666666666666,0.6666666666666667,-0.3333333333333335,-0.5555555555555556,1.4444444444444444,1.4444444444444444,0.0,2.0,-1.0,2.0,0,0,1
10.0,0.0,10.0,0.0,3.0,0.0,3.0,0.0,,,,right,1.2752339839935305,430.68357491493225,os8,405.8263568878174,409.326721906662,430.68357491493225,None,True,1.0,['p'],False,0.4444444444444445,0.6666666666666666,0.3333333333333333,1.0,2.0,0.9656336071428248,0.226417146776406,succ_gain,1.0,3.0,429.6998610496521,None,os8,1,2023-02-28_10h20.45.819,threat_forest,2021.2.3,59.989072882728,True,1.0,0.4833333333333333,0.5166666666666666,-0.7877777777777778,-0.633888888888889,1,0,1,0.24312967863090182,0.226417146776406,1.0,0.4444444444444445,0.6666666666666666,0.6666666666666667,-0.3333333333333335,-0.5555555555555556,0.4444444444444444,0.4444444444444444,0.0,2.0,-1.0,1.0,1,0,1
10.0,0.0,10.0,0.0,4.0,0.0,4.0,0.0,,,,right,1.844709873199463,436.30037903785706,os8,405.8263568878174,409.326721906662,436.30037903785706,None,True,3.0,['p'],False,0.4444444444444445,0.6666666666666666,0.3333333333333333,1.0,2.0,0.9656336071428248,0.1229938271604937,figh_cost,1.0,0.0,433.9874498844147,None,os8,1,2023-02-28_10h20.45.819,threat_forest,2021.2.3,59.989072882728,True,1.0,0.4833333333333333,0.5166666666666666,-0.7877777777777778,-0.633888888888889,1,0,1,0.612322014828972,0.1229938271604937,0.4444444444444445,0.4444444444444445,0.6666666666666666,0.6666666666666667,-0.3333333333333335,-0.5555555555555556,2.4444444444444446,2.4444444444444446,0.0,2.0,1.0,3.0,0,0,1
11.0,0.0,11.0,0.0,0.0,0.0,0.0,0.0,442.03350496292114,445.5331039428711,None,right,1.1297287940979004,449.3190779685974,os8,449.3190779685974,None,442.03350496292114,445.5331039428711,False,5.0,['p'],True,0.2962962962962963,0.3333333333333333,0.1111111111111111,1.0,1.0,0.8325252476189534,-0.0072014784086608,wait_cost,0.0,4.0,,,os8,1,2023-02-28_10h20.45.819,threat_forest,2021.2.3,59.989072882728,False,4.0,0.4666666666666667,0.475,-0.9911111111111113,-0.8894444444444445,0,0,0,0.12197759869528951,-0.0072014784086608,0.2962962962962963,0.2962962962962963,0.3333333333333333,0.8888888888888888,-1.3333333333333335,-1.2222222222222223,3.7777777777777777,3.7777777777777777,1.0,1.0,-1.0,5.0,0,0,0
11.0,0.0,11.0,0.0,1.0,0.0,1.0,0.0,,,,right,2.078122854232788,456.0270550251007,os8,456.0270550251007,None,442.03350496292114,445.5331039428711,False,4.0,['p'],True,0.2962962962962963,0.3333333333333333,0.1111111111111111,1.0,1.0,0.8325252476189534,0.0058509134989481,wait_cost,0.0,3.0,452.4913330078125,None,os8,1,2023-02-28_10h20.45.819,threat_forest,2021.2.3,59.989072882728,False,4.0,0.4666666666666667,0.475,-0.9911111111111113,-0.8894444444444445,0,0,0,0.731465012311913,0.0058509134989481,0.2962962962962963,0.2962962962962963,0.3333333333333333,0.8888888888888888,-1.3333333333333335,-1.2222222222222223,2.7777777777777777,2.7777777777777777,1.0,1.0,-1.0,4.0,0,0,0
11.0,0.0,11.0,0.0,2.0,0.0,2.0,0.0,,,,right,1.0377981662750244,460.73725986480713,os8,458.13610887527466,460.1497309207916,460.73725986480713,None,True,3.0,['p'],False,0.48,0.6,0.2,1.0,1.0,0.9455672104350704,0.0832472147447441,succ_gain,1.0,4.0,460.1497309207916,None,os8,1,2023-02-28_10h20.45.819,threat_forest,2021.2.3,59.989072882728,True,4.0,0.4666666666666667,0.475,-0.9911111111111113,-0.8894444444444445,1,1,1,0.037101321015102495,0.0832472147447441,0.48,0.48,0.6,0.8,-0.8000000000000002,-0.7600000000000002,2.2399999999999998,2.2399999999999998,0.0,1.0,-1.0,3.0,0,1,1
11.0,0.0,11.0,0.0,3.0,0.0,3.0,0.0,,,,right,1.209378004074097,465.8224458694458,os8,458.13610887527466,460.1497309207916,465.8224458694458,None,True,4.0,['p'],False,0.48,0.6,0.2,1.0,1.0,0.9455672104350704,0.1000718415363511,figh_cost,1.0,1.0,463.8034279346466,None,os8,1,2023-02-28_10h20.45.819,threat_forest,2021.2.3,59.989072882728,True,4.0,0.4666666666666667,0.475,-0.9911111111111113,-0.8894444444444445,1,1,1,0.1901061812218418,0.1000718415363511,0.48,0.48,0.6,0.8,-0.8000000000000002,-0.7600000000000002,3.2399999999999998,3.2399999999999998,0.0,1.0,1.0,4.0,0,1,1
11.0,0.0,11.0,0.0,4.0,0.0,4.0,0.0,,,,right,0.4728660583496094,471.5100739002228,os8,458.13610887527466,460.1497309207916,471.5100739002228,None,True,1.0,['p'],False,0.48,0.6,0.2,1.0,1.0,0.9455672104350704,0.2083555555555555,unsucc_cost,1.0,0.0,469.0595998764038,None,os8,1,2023-02-28_10h20.45.819,threat_forest,2021.2.3,59.989072882728,True,4.0,0.4666666666666667,0.475,-0.9911111111111113,-0.8894444444444445,1,1,1,-0.7489431053282957,0.2083555555555555,1.0,0.48,0.6,0.8,-0.8000000000000002,-0.7600000000000002,0.23999999999999977,0.23999999999999977,0.0,1.0,-1.0,1.0,1,1,1
12.0,0.0,12.0,0.0,0.0,0.0,0.0,0.0,474.8070249557495,478.3195340633392,None,left,1.7956199645996094,479.4708070755005,os8,479.4708070755005,None,474.8070249557495,478.31953406333923,True,5.0,['p'],True,0.4444444444444445,0.6666666666666666,0.3333333333333333,1.0,1.0,0.9656336071428248,0.0498748920388152,figh_cost,0.0,2.0,,,os8,1,2023-02-28_10h20.45.819,threat_forest,2021.2.3,59.989072882728,True,56.0,0.4444444444444444,0.45555555555555555,-1.1666666666666667,-1.078888888888889,1,0,1,0.5853503464869124,0.0498748920388152,0.4444444444444445,0.4444444444444445,0.6666666666666666,0.6666666666666667,-1.0,-1.0,4.0,4.0,1.0,1.0,-1.0,5.0,0,0,1
12.0,0.0,12.0,0.0,1.0,0.0,1.0,0.0,,,,left,1.168834924697876,484.7266290187836,os8,484.7266290187836,None,474.8070249557495,478.31953406333923,True,2.0,['p'],True,0.4444444444444445,0.6666666666666666,0.3333333333333333,1.0,1.0,0.9656336071428248,0.0323502514860539,unsucc_cost,0.0,0.0,483.2918908596039,None,os8,1,2023-02-28_10h20.45.819,threat_forest,2021.2.3,59.989072882728,True,56.0,0.4444444444444444,0.45555555555555555,-1.1666666666666667,-1.078888888888889,1,0,1,0.15600746182404562,0.0323502514860539,0.4444444444444445,0.4444444444444445,0.6666666666666666,0.6666666666666667,-1.0,-1.0,1.0,1.0,1.0,1.0,-1.0,2.0,0,0,1
13.0,0.0,13.0,0.0,0.0,0.0,0.0,0.0,488.8653709888458,492.3683960437775,None,left,2.256488084793091,495.9076268672943,os8,488.8653709888458,492.36839604377747,495.9076268672943,None,False,4.0,['r'],False,0.4081632653061224,0.5714285714285714,0.2857142857142857,2.0,2.0,0.9885754083994552,0.0102904310319958,wait_cost,1.0,3.0,,,os8,1,2023-02-28_10h20.45.819,threat_forest,2021.2.3,59.989072882728,False,58.0,0.5357142857142857,0.49007936507936506,-0.326530612244898,-0.7465986394557824,1,0,0,0.8138096598779311,0.0102904310319958,0.4081632653061224,0.4081632653061224,0.5714285714285714,0.7142857142857143,-0.5714285714285715,-0.653061224489796,3.3469387755102042,3.3469387755102042,0.0,2.0,-1.0,4.0,0,0,1
13.0,0.0,13.0,0.0,1.0,0.0,1.0,0.0,,,,left,1.7021958827972412,501.0611870288849,os8,501.0611870288849,None,498.1952679157257,500.2104048728943,True,3.0,['r'],True,0.5,0.5,0.0,0.0,2.0,0.6309297535714574,0.1812561435782258,succ_gain,0.0,5.0,500.2104048728943,None,os8,1,2023-02-28_10h20.45.819,threat_forest,2021.2.3,59.989072882728,True,58.0,0.5357142857142857,0.49007936507936506,-0.326530612244898,-0.7465986394557824,1,1,1,0.5319191133039747,0.1812561435782258,0.5,0.5,0.5,1.0,0.0,0.0,3.0,3.0,1.0,2.0,-1.0,3.0,0,1,1
13.0,0.0,13.0,0.0,2.0,0.0,2.0,0.0,,,,left,2.521962881088257,506.1064028739929,os8,502.7870018482208,504.79940390586853,506.1064028739929,None,False,5.0,['r'],False,0.4081632653061224,0.5714285714285714,0.2857142857142857,2.0,2.0,0.9885754083994552,-0.0126763486945585,wait_cost,1.0,4.0,504.7994039058685,None,os8,1,2023-02-28_10h20.45.819,threat_forest,2021.2.3,59.989072882728,False,58.0,0.5357142857142857,0.49007936507936506,-0.326530612244898,-0.7465986394557824,1,0,0,0.925037519388523,-0.0126763486945585,0.4081632653061224,0.4081632653061224,0.5714285714285714,0.7142857142857143,-0.5714285714285715,-0.653061224489796,4.346938775510204,4.346938775510204,0.0,2.0,1.0,5.0,0,0,1
13.0,0.0,13.0,0.0,3.0,0.0,3.0,0.0,,,,right,1.7470369338989258,512.337907075882,os8,502.7870018482208,504.79940390586853,512.337907075882,None,True,4.0,['r'],False,0.4081632653061224,0.5714285714285714,0.2857142857142857,2.0,2.0,0.9885754083994552,-0.0002517703993597,figh_cost,1.0,1.0,510.6552798748016,None,os8,1,2023-02-28_10h20.45.819,threat_forest,2021.2.3,59.989072882728,True,58.0,0.5357142857142857,0.49007936507936506,-0.326530612244898,-0.7465986394557824,1,0,1,0.5579211722558207,-0.0002517703993597,0.4081632653061224,0.4081632653061224,0.5714285714285714,0.7142857142857143,-0.5714285714285715,-0.653061224489796,3.3469387755102042,3.3469387755102042,0.0,2.0,-1.0,4.0,0,0,1
13.0,0.0,13.0,0.0,4.0,0.0,4.0,0.0,,,,left,0.7399961948394775,518.6614639759064,os8,518.6614639759064,None,514.1114718914032,516.1115720272064,True,1.0,['r'],True,0.5,0.5,0.0,0.0,2.0,0.6309297535714574,0.3185521657642649,unsucc_cost,0.0,0.0,516.1115720272064,None,os8,1,2023-02-28_10h20.45.819,threat_forest,2021.2.3,59.989072882728,True,58.0,0.5357142857142857,0.49007936507936506,-0.326530612244898,-0.7465986394557824,1,1,1,-0.30111023490595645,0.3185521657642649,1.0,0.5,0.5,1.0,0.0,0.0,1.0,1.0,1.0,2.0,-1.0,1.0,1,1,1
14.0,0.0,14.0,0.0,0.0,0.0,0.0,0.0,523.4367380142212,526.9399790763855,None,right,1.5058989524841309,527.6487560272217,os8,523.4367380142212,526.9399790763855,527.6487560272217,None,True,4.0,['r'],False,0.25,0.5,0.5,2.0,1.0,0.9463946303571862,0.0015300455080301,succ_gain,1.0,5.0,,,os8,1,2023-02-28_10h20.45.819,threat_forest,2021.2.3,59.989072882728,True,43.0,0.41666666666666663,0.47619047619047616,-1.375,-0.8507653061224489,0,0,1,0.4093900305025396,0.0015300455080301,0.25,0.25,0.5,0.5,-2.0,-1.75,2.25,2.25,0.0,1.0,-1.0,4.0,0,0,0
14.0,0.0,14.0,0.0,1.0,0.0,1.0,0.0,,,,left,2.57780122756958,534.1144778728485,os8,534.1144778728485,None,529.1830499172211,531.1947078704834,True,5.0,['r'],True,0.3333333333333333,0.3333333333333333,0.0,0.0,1.0,0.5793801642856949,0.0579319078735853,succ_gain,0.0,6.0,531.1947078704834,None,os8,1,2023-02-28_10h20.45.819,threat_forest,2021.2.3,59.989072882728,True,43.0,0.41666666666666663,0.47619047619047616,-1.375,-0.8507653061224489,0,0,1,0.9469367981966605,0.0579319078735853,0.3333333333333333,0.3333333333333333,0.3333333333333333,1.0,-1.0000000000000002,-1.0000000000000002,4.0,4.0,1.0,1.0,1.0,5.0,0,0,0
14.0,0.0,14.0,0.0,2.0,0.0,2.0,0.0,,,,left,1.507585048675537,540.3083288669586,os8,536.7247569561005,538.7360410690308,540.3083288669586,None,False,6.0,['r'],False,0.25,0.5,0.5,2.0,1.0,0.9463946303571862,-0.0886200327932098,wait_cost,1.0,5.0,538.7360410690308,None,os8,1,2023-02-28_10h20.45.819,threat_forest,2021.2.3,59.989072882728,False,43.0,0.41666666666666663,0.47619047619047616,-1.375,-0.8507653061224489,0,0,0,0.410509065059688,-0.0886200327932098,0.25,0.25,0.5,0.5,-2.0,-1.75,4.25,4.25,0.0,1.0,1.0,6.0,0,0,0
14.0,0.0,14.0,0.0,3.0,0.0,3.0,0.0,,,,None,,547.2264549732208,os8,536.7247569561005,538.7360410690308,547.2264549732208,None,False,5.0,['r'],False,0.25,0.5,0.5,2.0,1.0,0.9463946303571862,-0.0831524884259258,wait_cost,1.0,4.0,543.8421728610992,None,os8,1,2023-02-28_10h20.45.819,threat_forest,2021.2.3,59.989072882728,None,43.0,0.41666666666666663,0.47619047619047616,-1.375,-0.8507653061224489,0,0,0,,-0.0831524884259258,0.25,0.25,0.5,0.5,-2.0,-1.75,3.25,3.25,0.0,1.0,-1.0,5.0,0,0,0
14.0,0.0,14.0,0.0,4.0,0.0,4.0,0.0,,,,left,2.745865821838379,555.5881478786469,os8,555.5881478786469,None,550.2365598678589,552.2514259815216,True,4.0,['r'],True,0.3333333333333333,0.3333333333333333,0.0,0.0,1.0,0.5793801642856949,0.1163194444444443,succ_gain,0.0,5.0,552.2514259815216,None,os8,1,2023-02-28_10h20.45.819,threat_forest,2021.2.3,59.989072882728,True,43.0,0.41666666666666663,0.47619047619047616,-1.375,-0.8507653061224489,0,0,1,1.0100964430195192,0.1163194444444443,0.3333333333333333,0.3333333333333333,0.3333333333333333,1.0,-1.0000000000000002,-1.0000000000000002,3.0,3.0,1.0,1.0,-1.0,4.0,0,0,0
14.0,0.0,14.0,0.0,5.0,0.0,5.0,0.0,,,,left,0.9863488674163818,563.51358294487,os8,558.3652880191803,560.3771719932556,563.51358294487,None,False,5.0,['r'],False,0.25,0.5,0.5,2.0,1.0,0.9463946303571862,-0.34375,wait_cost,1.0,4.0,560.3771719932556,None,os8,1,2023-02-28_10h20.45.819,threat_forest,2021.2.3,59.989072882728,False,43.0,0.41666666666666663,0.47619047619047616,-1.375,-0.8507653061224489,0,0,0,-0.01374516605024919,-0.34375,0.0,0.25,0.5,0.5,-2.0,-1.75,3.25,3.25,0.0,1.0,1.0,5.0,0,0,0
14.0,0.0,14.0,0.0,6.0,0.0,6.0,0.0,,,,left,0.8419389724731445,568.5007688999176,os8,558.3652880191803,560.3771719932556,568.5007688999176,None,False,4.0,['r'],False,0.25,0.5,0.5,2.0,1.0,0.9463946303571862,-0.3541666666666667,wait_cost,1.0,3.0,566.5502269268036,None,os8,1,2023-02-28_10h20.45.819,threat_forest,2021.2.3,59.989072882728,False,43.0,0.41666666666666663,0.47619047619047616,-1.375,-0.8507653061224489,0,0,0,-0.1720477466146048,-0.3541666666666667,0.0,0.25,0.5,0.5,-2.0,-1.75,2.25,2.25,0.0,1.0,-1.0,4.0,0,0,0
14.0,0.0,14.0,0.0,7.0,0.0,7.0,0.0,,,,right,1.2724487781524658,573.3063468933105,os8,573.3063468933105,None,569.3699078559875,571.3724980354309,False,3.0,['r'],True,0.3333333333333333,0.3333333333333333,0.0,0.0,1.0,0.5793801642856949,0.0,wait_cost,0.0,2.0,571.3724980354309,None,os8,1,2023-02-28_10h20.45.819,threat_forest,2021.2.3,59.989072882728,False,43.0,0.41666666666666663,0.47619047619047616,-1.375,-0.8507653061224489,0,0,0,0.24094321570699934,0.0,0.0,0.3333333333333333,0.3333333333333333,1.0,-1.0000000000000002,-1.0000000000000002,1.9999999999999998,1.9999999999999998,1.0,1.0,-1.0,3.0,0,0,0
15.0,0.0,15.0,0.0,0.0,0.0,0.0,0.0,580.1648030281067,583.6691908836365,None,left,1.1427710056304932,585.294203042984,os8,585.294203042984,None,580.1648030281067,583.6691908836365,True,5.0,['r'],True,0.5,0.5,0.0,0.0,2.0,0.6309297535714574,0.0898892961248285,succ_gain,0.0,6.0,,,os8,1,2023-02-28_10h20.45.819,threat_forest,2021.2.3,59.989072882728,True,49.0,0.5833333333333333,0.49999999999999994,-0.888888888888889,-1.1319444444444444,1,1,1,0.13345601971073745,0.0898892961248285,0.5,0.5,0.5,1.0,0.0,0.0,5.0,5.0,1.0,2.0,-1.0,5.0,0,1,1
15.0,0.0,15.0,0.0,1.0,0.0,1.0,0.0,,,,left,1.534045934677124,590.447839975357,os8,586.4557099342346,588.4579529762268,590.447839975357,None,False,6.0,['r'],False,0.2222222222222222,0.6666666666666666,0.6666666666666666,2.0,2.0,0.77250688571426,-0.2259971922153635,wait_cost,1.0,5.0,588.4579529762268,None,os8,1,2023-02-28_10h20.45.819,threat_forest,2021.2.3,59.989072882728,False,49.0,0.5833333333333333,0.49999999999999994,-0.888888888888889,-1.1319444444444444,0,0,0,0.4279086468755697,-0.2259971922153635,0.2222222222222222,0.2222222222222222,0.6666666666666666,0.33333333333333337,-1.3333333333333335,-1.777777777777778,4.222222222222222,4.222222222222222,0.0,2.0,1.0,6.0,0,0,0
15.0,0.0,15.0,0.0,2.0,0.0,2.0,0.0,,,,left,1.753612995147705,595.3653450012207,os8,586.4557099342346,588.4579529762268,595.3653450012207,None,False,5.0,['r'],False,0.2222222222222222,0.6666666666666666,0.6666666666666666,2.0,2.0,0.77250688571426,-0.1831490054869685,wait_cost,1.0,4.0,594.0139498710632,None,os8,1,2023-02-28_10h20.45.819,threat_forest,2021.2.3,59.989072882728,False,49.0,0.5833333333333333,0.49999999999999994,-0.888888888888889,-1.1319444444444444,0,0,0,0.5616782282982214,-0.1831490054869685,0.2222222222222222,0.2222222222222222,0.6666666666666666,0.33333333333333337,-1.3333333333333335,-1.777777777777778,3.2222222222222223,3.2222222222222223,0.0,2.0,-1.0,5.0,0,0,0
15.0,0.0,15.0,0.0,3.0,0.0,3.0,0.0,,,,left,1.7377870082855225,601.4032950401306,os8,586.4557099342346,588.4579529762268,601.4032950401306,None,False,4.0,['r'],False,0.2222222222222222,0.6666666666666666,0.6666666666666666,2.0,2.0,0.77250688571426,-0.1517489711934156,wait_cost,1.0,3.0,599.1529049873352,None,os8,1,2023-02-28_10h20.45.819,threat_forest,2021.2.3,59.989072882728,False,49.0,0.5833333333333333,0.49999999999999994,-0.888888888888889,-1.1319444444444444,0,0,0,0.5526124694400933,-0.1517489711934156,0.2222222222222222,0.2222222222222222,0.6666666666666666,0.33333333333333337,-1.3333333333333335,-1.777777777777778,2.2222222222222223,2.2222222222222223,0.0,2.0,-1.0,4.0,0,0,0
15.0,0.0,15.0,0.0,4.0,0.0,4.0,0.0,,,,left,1.650475025177002,607.4294860363007,os8,586.4557099342346,588.4579529762268,607.4294860363007,None,False,3.0,['r'],False,0.2222222222222222,0.6666666666666666,0.6666666666666666,2.0,2.0,0.77250688571426,-0.1682098765432098,wait_cost,1.0,2.0,605.1763389110565,None,os8,1,2023-02-28_10h20.45.819,threat_forest,2021.2.3,59.989072882728,False,49.0,0.5833333333333333,0.49999999999999994,-0.888888888888889,-1.1319444444444444,0,0,0,0.5010631405256182,-0.1682098765432098,0.2222222222222222,0.2222222222222222,0.6666666666666666,0.33333333333333337,-1.3333333333333335,-1.777777777777778,1.222222222222222,1.222222222222222,0.0,2.0,-1.0,3.0,0,0,0
15.0,0.0,15.0,0.0,5.0,0.0,5.0,0.0,,,,left,1.0645389556884766,614.7529129981995,os8,614.7529129981995,None,609.0992288589478,611.1042940616608,True,2.0,['r'],True,0.5,0.5,0.0,0.0,2.0,0.6309297535714574,0.1388888888888888,succ_gain,0.0,4.0,611.1042940616608,None,os8,1,2023-02-28_10h20.45.819,threat_forest,2021.2.3,59.989072882728,True,49.0,0.5833333333333333,0.49999999999999994,-0.888888888888889,-1.1319444444444444,1,1,1,0.06254179997393966,0.1388888888888888,0.5,0.5,0.5,1.0,0.0,0.0,2.0,2.0,1.0,2.0,-1.0,2.0,0,1,1
15.0,0.0,15.0,0.0,6.0,0.0,6.0,0.0,,,,left,1.1248400211334229,620.8438198566437,os8,615.8471598625183,617.857017993927,620.8438198566437,None,False,4.0,['r'],False,0.2222222222222222,0.6666666666666666,0.6666666666666666,2.0,2.0,0.77250688571426,-0.4259259259259259,wait_cost,1.0,3.0,617.857017993927,None,os8,1,2023-02-28_10h20.45.819,threat_forest,2021.2.3,59.989072882728,False,49.0,0.5833333333333333,0.49999999999999994,-0.888888888888889,-1.1319444444444444,0,0,0,0.1176408221075586,-0.4259259259259259,0.0,0.2222222222222222,0.6666666666666666,0.33333333333333337,-1.3333333333333335,-1.777777777777778,2.2222222222222223,2.2222222222222223,0.0,2.0,1.0,4.0,0,0,0
15.0,0.0,15.0,0.0,7.0,0.0,7.0,0.0,,,,right,1.0062358379364014,625.8425898551941,os8,625.8425898551941,None,621.9982340335846,623.9968719482422,False,3.0,['r'],True,0.5,0.5,0.0,0.0,2.0,0.6309297535714574,0.0,wait_cost,0.0,2.0,623.9968719482422,None,os8,1,2023-02-28_10h20.45.819,threat_forest,2021.2.3,59.989072882728,False,49.0,0.5833333333333333,0.49999999999999994,-0.888888888888889,-1.1319444444444444,1,1,0,0.0062164755511243015,0.0,0.0,0.5,0.5,1.0,0.0,0.0,3.0,3.0,1.0,2.0,-1.0,3.0,0,1,1
16.0,0.0,16.0,0.0,0.0,0.0,0.0,0.0,631.7594728469849,635.2595129013062,None,left,1.947077989578247,637.6232490539551,os8,631.7594728469849,635.2595129013062,637.6232490539551,None,False,4.0,['p'],False,0.2448979591836734,0.2857142857142857,0.1428571428571428,1.0,2.0,0.8400769154957735,0.0066793633871859,wait_cost,1.0,3.0,,,os8,1,2023-02-28_10h20.45.819,threat_forest,2021.2.3,59.989072882728,False,29.0,0.47619047619047616,0.5297619047619047,-0.8594104308390023,-0.8741496598639455,0,0,0,0.6663297818683895,0.0066793633871859,0.2448979591836734,0.2448979591836734,0.2857142857142857,0.8571428571428572,-1.2857142857142856,-1.163265306122449,2.836734693877551,2.836734693877551,0.0,2.0,-1.0,4.0,0,0,0
16.0,0.0,16.0,0.0,1.0,0.0,1.0,0.0,,,,left,0.9054930210113524,643.9574449062347,os8,643.9574449062347,None,639.6050930023193,641.6164569854736,True,3.0,['p'],True,0.4444444444444445,0.6666666666666666,0.3333333333333333,1.0,2.0,0.9656336071428248,0.0857569121584442,figh_cost,0.0,0.0,641.6164569854736,None,os8,1,2023-02-28_10h20.45.819,threat_forest,2021.2.3,59.989072882728,True,29.0,0.47619047619047616,0.5297619047619047,-0.8594104308390023,-0.8741496598639455,1,0,1,-0.09927570901984226,0.0857569121584442,0.4444444444444445,0.4444444444444445,0.6666666666666666,0.6666666666666667,-0.3333333333333335,-0.5555555555555556,2.4444444444444446,2.4444444444444446,1.0,2.0,-1.0,3.0,0,0,1
17.0,0.0,17.0,0.0,0.0,0.0,0.0,0.0,649.0613260269165,652.5614950656891,None,right,0.8105008602142334,656.2610318660736,os8,649.0613260269165,652.5614950656891,656.2610318660736,None,True,5.0,['r'],False,0.2040816326530612,0.2857142857142857,0.2857142857142857,2.0,2.0,0.9335459102197724,-0.0078150263394839,unsucc_cost,1.0,3.0,,,os8,1,2023-02-28_10h20.45.819,threat_forest,2021.2.3,59.989072882728,True,17.0,0.26785714285714285,0.37202380952380953,-1.2346938775510203,-1.0470521541950113,0,0,1,-0.21010287646923548,-0.0078150263394839,0.2040816326530612,0.2040816326530612,0.2857142857142857,0.7142857142857143,-1.7142857142857144,-1.4693877551020407,3.5306122448979593,3.5306122448979593,0.0,2.0,-1.0,5.0,0,0,0
17.0,0.0,17.0,0.0,1.0,0.0,1.0,0.0,,,,right,1.7541460990905762,661.8374478816986,os8,649.0613260269165,652.5614950656891,661.8374478816986,None,True,3.0,['r'],False,0.2040816326530612,0.2857142857142857,0.2857142857142857,2.0,2.0,0.9335459102197724,0.028184703228122,succ_gain,1.0,5.0,659.119176864624,None,os8,1,2023-02-28_10h20.45.819,threat_forest,2021.2.3,59.989072882728,True,17.0,0.26785714285714285,0.37202380952380953,-1.2346938775510203,-1.0470521541950113,0,0,1,0.5619821852876574,0.028184703228122,0.2040816326530612,0.2040816326530612,0.2857142857142857,0.7142857142857143,-1.7142857142857144,-1.4693877551020407,1.5306122448979593,1.5306122448979593,0.0,2.0,-1.0,3.0,0,0,0
17.0,0.0,17.0,0.0,2.0,0.0,2.0,0.0,,,,left,1.1037828922271729,669.1676599979401,os8,649.0613260269165,652.5614950656891,669.1676599979401,None,False,5.0,['r'],False,0.2040816326530612,0.2857142857142857,0.2857142857142857,2.0,2.0,0.9335459102197724,-0.0259244149428543,wait_cost,1.0,4.0,665.630126953125,None,os8,1,2023-02-28_10h20.45.819,threat_forest,2021.2.3,59.989072882728,False,17.0,0.26785714285714285,0.37202380952380953,-1.2346938775510203,-1.0470521541950113,0,0,0,0.09874327292432834,-0.0259244149428543,0.2040816326530612,0.2040816326530612,0.2857142857142857,0.7142857142857143,-1.7142857142857144,-1.4693877551020407,3.5306122448979593,3.5306122448979593,0.0,2.0,1.0,5.0,0,0,0
17.0,0.0,17.0,0.0,3.0,0.0,3.0,0.0,,,,left,1.9648189544677732,673.5349760055542,os8,649.0613260269165,652.5614950656891,673.5349760055542,None,False,4.0,['r'],False,0.2040816326530612,0.2857142857142857,0.2857142857142857,2.0,2.0,0.9335459102197724,-0.0203160545730458,wait_cost,1.0,3.0,672.3001880645752,None,os8,1,2023-02-28_10h20.45.819,threat_forest,2021.2.3,59.989072882728,False,17.0,0.26785714285714285,0.37202380952380953,-1.2346938775510203,-1.0470521541950113,0,0,0,0.6754001059456184,-0.0203160545730458,0.2040816326530612,0.2040816326530612,0.2857142857142857,0.7142857142857143,-1.7142857142857144,-1.4693877551020407,2.5306122448979593,2.5306122448979593,0.0,2.0,-1.0,4.0,0,0,0
17.0,0.0,17.0,0.0,4.0,0.0,4.0,0.0,,,,left,2.0403149127960205,679.6738328933716,os8,649.0613260269165,652.5614950656891,679.6738328933716,None,False,3.0,['r'],False,0.2040816326530612,0.2857142857142857,0.2857142857142857,2.0,2.0,0.9335459102197724,0.0813983756768013,wait_cost,1.0,2.0,677.5228860378265,None,os8,1,2023-02-28_10h20.45.819,threat_forest,2021.2.3,59.989072882728,False,17.0,0.26785714285714285,0.37202380952380953,-1.2346938775510203,-1.0470521541950113,0,0,0,0.7131041649601114,0.0813983756768013,0.2040816326530612,0.2040816326530612,0.2857142857142857,0.7142857142857143,-1.7142857142857144,-1.4693877551020407,1.5306122448979593,1.5306122448979593,0.0,2.0,-1.0,3.0,0,0,0
17.0,0.0,17.0,0.0,5.0,0.0,5.0,0.0,,,,left,1.7835140228271484,685.4116609096527,os8,649.0613260269165,652.5614950656891,685.4116609096527,None,False,2.0,['r'],False,0.2040816326530612,0.2857142857142857,0.2857142857142857,2.0,2.0,0.9335459102197724,-0.0229591836734693,wait_cost,1.0,1.0,683.7461578845978,None,os8,1,2023-02-28_10h20.45.819,threat_forest,2021.2.3,59.989072882728,False,17.0,0.26785714285714285,0.37202380952380953,-1.2346938775510203,-1.0470521541950113,0,0,0,0.5785855883186434,-0.0229591836734693,0.2040816326530612,0.2040816326530612,0.2857142857142857,0.7142857142857143,-1.7142857142857144,-1.4693877551020407,0.5306122448979593,0.5306122448979593,0.0,2.0,-1.0,2.0,0,0,0
17.0,0.0,17.0,0.0,6.0,0.0,6.0,0.0,,,,left,0.9528789520263672,692.0731189250946,os8,692.0731189250946,None,687.2200889587402,689.2191209793091,True,1.0,['r'],True,0.25,0.25,0.0,0.0,2.0,0.5118595071429148,0.25,unsucc_cost,0.0,0.0,689.2191209793091,None,os8,1,2023-02-28_10h20.45.819,threat_forest,2021.2.3,59.989072882728,True,17.0,0.26785714285714285,0.37202380952380953,-1.2346938775510203,-1.0470521541950113,1,0,1,-0.04826740120611768,0.25,1.0,0.25,0.25,1.0,-1.0,-1.0,0.0,0.0,1.0,2.0,-1.0,1.0,1,0,1
0.0,0.0,0.0,0.0,0.0,0.0,0.0,0.0,7.535717964172363,11.049340963363647,None,right,1.672652006149292,12.487278938293455,os8,7.535717964172363,11.049340963363647,12.487278938293455,None,True,5.0,['r'],False,0.375,0.5,0.25,1.0,1.0,0.9850568223215076,0.0361323788439721,fight_cost,1.0,2.0,,,os8,2,2023-02-28_10h33.40.928,threat_forest,2021.2.3,60.05392147738548,True,69.0,0.39285714285714285,0.33035714285714285,-1.2665816326530612,-1.2506377551020407,1,1,1,0.5144103944804116,0.0361323788439721,0.375,0.375,0.5,0.75,-1.25,-1.125,3.875,3.875,0.0,1.0,-1.0,5.0,0,1,1
0.0,0.0,0.0,0.0,1.0,0.0,1.0,0.0,,,,right,2.123210906982422,17.48974299430847,os8,7.535717964172363,11.049340963363647,17.48974299430847,None,True,2.0,['r'],False,0.375,0.5,0.25,1.0,1.0,0.9850568223215076,0.0182447652734547,succ_gain,1.0,3.0,16.19244909286499,None,os8,2,2023-02-28_10h33.40.928,threat_forest,2021.2.3,60.05392147738548,True,69.0,0.39285714285714285,0.33035714285714285,-1.2665816326530612,-1.2506377551020407,1,1,1,0.7529295216316044,0.0182447652734547,0.375,0.375,0.5,0.75,-1.25,-1.125,0.875,0.875,0.0,1.0,-1.0,2.0,0,1,1
0.0,0.0,0.0,0.0,2.0,0.0,2.0,0.0,,,,right,1.6164469718933103,24.53371000289917,os8,7.535717964172363,11.049340963363647,24.53371000289917,None,True,3.0,['r'],False,0.375,0.5,0.25,1.0,1.0,0.9850568223215076,0.0489805383249788,unsucc_cost,1.0,1.0,21.648648023605347,None,os8,2,2023-02-28_10h33.40.928,threat_forest,2021.2.3,60.05392147738548,True,69.0,0.39285714285714285,0.33035714285714285,-1.2665816326530612,-1.2506377551020407,1,1,1,0.48023051337265915,0.0489805383249788,0.375,0.375,0.5,0.75,-1.25,-1.125,1.875,1.875,0.0,1.0,1.0,3.0,0,1,1
0.0,0.0,0.0,0.0,3.0,0.0,3.0,0.0,,,,left,1.1981971263885498,31.045623064041138,os8,31.045623064041138,None,26.175808906555176,28.188528060913086,True,1.0,['r'],True,0.2448979591836734,0.2857142857142857,0.1428571428571428,1.0,1.0,0.8400769154957735,0.0351403773047088,unsucc_cost,0.0,0.0,28.18852806091309,None,os8,2,2023-02-28_10h33.40.928,threat_forest,2021.2.3,60.05392147738548,True,69.0,0.39285714285714285,0.33035714285714285,-1.2665816326530612,-1.2506377551020407,0,0,1,0.1808180323911927,0.0351403773047088,1.0,0.2448979591836734,0.2857142857142857,0.8571428571428572,-1.5714285714285712,-1.4081632653061225,-0.40816326530612246,0.0,1.0,1.0,-1.0,1.0,1,0,0
1.0,0.0,1.0,0.0,0.0,0.0,0.0,0.0,37.63495898246765,41.136059045791626,None,right,2.7206759452819824,41.95924997329712,os8,41.95924997329712,None,37.63495898246765,41.136059045791626,False,5.0,['r'],True,0.25,0.25,0.0,0.0,2.0,0.5118595071429148,0.0218437876829995,wait_cost,0.0,4.0,,,os8,2,2023-02-28_10h33.40.928,threat_forest,2021.2.3,60.05392147738548,False,34.0,0.4583333333333333,0.4255952380952381,-1.3888888888888888,-1.3277352607709751,1,0,0,1.0008803587294324,0.0218437876829995,0.25,0.25,0.25,1.0,-1.0,-1.0,4.0,4.0,1.0,2.0,-1.0,5.0,0,0,1
1.0,0.0,1.0,0.0,1.0,0.0,1.0,0.0,,,,right,0.8475139141082764,47.81440305709839,os8,44.71262288093567,46.72597789764404,47.81440305709839,None,True,4.0,['r'],False,0.2222222222222222,0.6666666666666666,0.6666666666666666,2.0,2.0,0.77250688571426,0.0213204889540228,fight_cost,1.0,1.0,46.72597789764404,None,os8,2,2023-02-28_10h33.40.928,threat_forest,2021.2.3,60.05392147738548,True,34.0,0.4583333333333333,0.4255952380952381,-1.3888888888888888,-1.3277352607709751,0,0,1,-0.165448022035428,0.0213204889540228,0.2222222222222222,0.2222222222222222,0.6666666666666666,0.33333333333333337,-1.3333333333333335,-1.777777777777778,2.2222222222222223,2.2222222222222223,0.0,2.0,-1.0,4.0,0,0,0
1.0,0.0,1.0,0.0,2.0,0.0,2.0,0.0,,,,left,0.7260921001434326,51.96780705451965,os8,51.96780705451965,None,48.70034909248352,50.71384310722351,True,1.0,['r'],True,0.25,0.25,0.0,0.0,2.0,0.5118595071429148,0.0691086254983281,unsucc_cost,0.0,0.0,50.71384310722351,None,os8,2,2023-02-28_10h33.40.928,threat_forest,2021.2.3,60.05392147738548,True,34.0,0.4583333333333333,0.4255952380952381,-1.3888888888888888,-1.3277352607709751,1,0,1,-0.32007841250165464,0.0691086254983281,1.0,0.25,0.25,1.0,-1.0,-1.0,0.0,0.0,1.0,2.0,-1.0,1.0,1,0,1
2.0,0.0,2.0,0.0,0.0,0.0,0.0,0.0,56.89175701141357,60.39088010787964,None,right,2.07339096069336,61.209534883499146,os8,56.89175701141357,60.39088010787964,61.209534883499146,None,True,4.0,['p'],False,0.3333333333333333,0.3333333333333333,0.0,0.0,2.0,0.5793801642856949,0.0326749431231451,succ_gain,1.0,6.0,,,os8,2,2023-02-28_10h33.40.928,threat_forest,2021.2.3,60.05392147738548,True,10.0,0.35416666666666663,0.40625,-0.8958333333333335,-1.1423611111111112,1,0,1,0.7291854122433536,0.0326749431231451,0.3333333333333333,0.3333333333333333,0.3333333333333333,1.0,-0.6666666666666669,-0.6666666666666669,3.333333333333333,3.333333333333333,0.0,2.0,-1.0,4.0,0,0,1
2.0,0.0,2.0,0.0,1.0,0.0,1.0,0.0,,,,left,1.2182979583740234,67.82961988449097,os8,56.89175701141357,60.39088010787964,67.82961988449097,None,False,6.0,['p'],False,0.3333333333333333,0.3333333333333333,0.0,0.0,2.0,0.5793801642856949,-0.059542589226868,wait_cost,1.0,5.0,65.32993006706238,None,os8,2,2023-02-28_10h33.40.928,threat_forest,2021.2.3,60.05392147738548,False,10.0,0.35416666666666663,0.40625,-0.8958333333333335,-1.1423611111111112,1,0,0,0.19745476857777555,-0.059542589226868,0.3333333333333333,0.3333333333333333,0.3333333333333333,1.0,-0.6666666666666669,-0.6666666666666669,5.333333333333333,5.333333333333333,0.0,2.0,1.0,6.0,0,0,1
2.0,0.0,2.0,0.0,2.0,0.0,2.0,0.0,,,,right,1.1150779724121094,72.05871105194092,os8,72.05871105194092,None,69.06913709640503,71.06946992874146,False,5.0,['p'],True,0.28125,0.375,0.25,2.0,2.0,0.9634951148421658,-0.0090943703910818,wait_cost,0.0,4.0,71.06946992874146,None,os8,2,2023-02-28_10h33.40.928,threat_forest,2021.2.3,60.05392147738548,False,10.0,0.35416666666666663,0.40625,-0.8958333333333335,-1.1423611111111112,1,0,0,0.1089243328815125,-0.0090943703910818,0.28125,0.28125,0.375,0.75,-1.25,-1.125,3.875,3.875,1.0,2.0,-1.0,5.0,0,0,1
2.0,0.0,2.0,0.0,3.0,0.0,3.0,0.0,,,,left,2.125556945800781,78.24369311332703,os8,78.24369311332703,None,69.06913709640503,71.06946992874146,True,4.0,['p'],True,0.28125,0.375,0.25,2.0,2.0,0.9634951148421658,-0.0133382655956126,fight_cost,0.0,1.0,75.20683002471924,None,os8,2,2023-02-28_10h33.40.928,threat_forest,2021.2.3,60.05392147738548,True,10.0,0.35416666666666663,0.40625,-0.8958333333333335,-1.1423611111111112,1,0,1,0.7540338601777787,-0.0133382655956126,0.28125,0.28125,0.375,0.75,-1.25,-1.125,2.875,2.875,1.0,2.0,-1.0,4.0,0,0,1
2.0,0.0,2.0,0.0,4.0,0.0,4.0,0.0,,,,left,0.868476152420044,85.05358004570007,os8,85.05358004570007,None,69.06913709640503,71.06946992874146,True,1.0,['p'],True,0.28125,0.375,0.25,2.0,2.0,0.9634951148421658,0.1354904174804687,unsucc_cost,0.0,0.0,82.39843392372131,None,os8,2,2023-02-28_10h33.40.928,threat_forest,2021.2.3,60.05392147738548,True,10.0,0.35416666666666663,0.40625,-0.8958333333333335,-1.1423611111111112,1,0,1,-0.14101515203139733,0.1354904174804687,1.0,0.28125,0.375,0.75,-1.25,-1.125,-0.125,0.0,1.0,2.0,-1.0,1.0,1,0,1
3.0,0.0,3.0,0.0,0.0,0.0,0.0,0.0,89.36013197898865,92.85970091819765,None,right,1.9365158081054688,94.97448110580444,os8,89.36013197898865,92.85970091819763,94.97448110580444,None,True,4.0,['r'],False,0.1975308641975308,0.2222222222222222,0.1111111111111111,1.0,2.0,0.7461067557824965,-0.0011819097279037,unsucc_cost,1.0,2.0,,,os8,2,2023-02-28_10h33.40.928,threat_forest,2021.2.3,60.05392147738548,True,54.0,0.2777777777777778,0.3159722222222222,-1.1882716049382718,-1.0420524691358026,0,0,1,0.6608903831748111,-0.0011819097279037,0.1975308641975308,0.1975308641975308,0.2222222222222222,0.8888888888888888,-1.4444444444444444,-1.3209876543209877,2.6790123456790123,2.6790123456790123,0.0,2.0,-1.0,4.0,0,0,0
3.0,0.0,3.0,0.0,1.0,0.0,1.0,0.0,,,,left,2.53462815284729,100.24987506866456,os8,89.36013197898865,92.85970091819763,100.24987506866456,None,False,2.0,['r'],False,0.1975308641975308,0.2222222222222222,0.1111111111111111,1.0,2.0,0.7461067557824965,-0.0062004160416093,wait_cost,1.0,1.0,98.95007991790771,None,os8,2,2023-02-28_10h33.40.928,threat_forest,2021.2.3,60.05392147738548,False,54.0,0.2777777777777778,0.3159722222222222,-1.1882716049382718,-1.0420524691358026,0,0,0,0.9300469410164692,-0.0062004160416093,0.1975308641975308,0.1975308641975308,0.2222222222222222,0.8888888888888888,-1.4444444444444444,-1.3209876543209877,0.6790123456790123,0.6790123456790123,0.0,2.0,-1.0,2.0,0,0,0
3.0,0.0,3.0,0.0,2.0,0.0,2.0,0.0,,,,left,0.7536771297454834,105.64449310302734,os8,105.64449310302734,None,102.80921292304993,104.82327198982239,True,1.0,['r'],True,0.2777777777777778,0.3333333333333333,0.1666666666666666,1.0,2.0,0.8929352898779304,0.0818945598659017,succ_gain,0.0,3.0,104.8232719898224,None,os8,2,2023-02-28_10h33.40.928,threat_forest,2021.2.3,60.05392147738548,True,54.0,0.2777777777777778,0.3159722222222222,-1.1882716049382718,-1.0420524691358026,0,0,1,-0.2827912125688424,0.0818945598659017,1.0,0.2777777777777778,0.3333333333333333,0.8333333333333334,-1.1666666666666665,-1.0555555555555556,-0.05555555555555558,0.0,1.0,2.0,-1.0,1.0,1,0,0
3.0,0.0,3.0,0.0,3.0,0.0,3.0,0.0,,,,left,2.523169040679932,109.84820508956908,os8,106.42974495887756,108.44396090507507,109.84820508956908,None,False,3.0,['r'],False,0.1975308641975308,0.2222222222222222,0.1111111111111111,1.0,2.0,0.7461067557824965,0.0032069196397095,wait_cost,1.0,2.0,108.44396090507507,None,os8,2,2023-02-28_10h33.40.928,threat_forest,2021.2.3,60.05392147738548,False,54.0,0.2777777777777778,0.3159722222222222,-1.1882716049382718,-1.0420524691358026,0,0,0,0.9255156672876694,0.0032069196397095,0.1975308641975308,0.1975308641975308,0.2222222222222222,0.8888888888888888,-1.4444444444444444,-1.3209876543209877,1.6790123456790123,1.6790123456790123,0.0,2.0,1.0,3.0,0,0,0
3.0,0.0,3.0,0.0,4.0,0.0,4.0,0.0,,,,left,1.1753859519958496,117.6908049583435,os8,117.6908049583435,None,112.39936900138856,114.4006290435791,True,2.0,['r'],True,0.2777777777777778,0.3333333333333333,0.1666666666666666,1.0,2.0,0.8929352898779304,0.0401234567901234,succ_gain,0.0,4.0,114.4006290435791,None,os8,2,2023-02-28_10h33.40.928,threat_forest,2021.2.3,60.05392147738548,True,54.0,0.2777777777777778,0.3159722222222222,-1.1882716049382718,-1.0420524691358026,0,0,1,0.1615965634454349,0.0401234567901234,0.2777777777777778,0.2777777777777778,0.3333333333333333,0.8333333333333334,-1.1666666666666665,-1.0555555555555556,0.9444444444444444,0.9444444444444444,1.0,2.0,-1.0,2.0,0,0,0
3.0,0.0,3.0,0.0,5.0,0.0,5.0,0.0,,,,left,1.8828718662261963,123.147784948349,os8,118.89668703079224,120.9077398777008,123.147784948349,None,False,4.0,['r'],False,0.1975308641975308,0.2222222222222222,0.1111111111111111,1.0,2.0,0.7461067557824965,-0.5978890413046791,wait_cost,1.0,3.0,120.9077398777008,None,os8,2,2023-02-28_10h33.40.928,threat_forest,2021.2.3,60.05392147738548,False,54.0,0.2777777777777778,0.3159722222222222,-1.1882716049382718,-1.0420524691358026,0,0,0,0.6327981996837226,-0.5978890413046791,0.0,0.1975308641975308,0.2222222222222222,0.8888888888888888,-1.4444444444444444,-1.3209876543209877,2.6790123456790123,2.6790123456790123,0.0,2.0,1.0,4.0,0,0,0
3.0,0.0,3.0,0.0,6.0,0.0,6.0,0.0,,,,right,0.4700429439544678,128.93658089637756,os8,128.93658089637756,None,125.06459307670592,127.06433200836182,False,3.0,['r'],True,0.2777777777777778,0.3333333333333333,0.1666666666666666,1.0,2.0,0.8929352898779304,-0.5901920438957476,wait_cost,0.0,2.0,127.06433200836182,None,os8,2,2023-02-28_10h33.40.928,threat_forest,2021.2.3,60.05392147738548,False,54.0,0.2777777777777778,0.3159722222222222,-1.1882716049382718,-1.0420524691358026,0,0,0,-0.7549312183361387,-0.5901920438957476,0.0,0.2777777777777778,0.3333333333333333,0.8333333333333334,-1.1666666666666665,-1.0555555555555556,1.9444444444444444,1.9444444444444444,1.0,2.0,-1.0,3.0,0,0,0
3.0,0.0,3.0,0.0,7.0,0.0,7.0,0.0,,,,left,0.862109899520874,132.57502102851868,os8,129.43563604354858,131.43606805801392,132.57502102851868,None,False,2.0,['r'],False,0.1975308641975308,0.2222222222222222,0.1111111111111111,1.0,2.0,0.7461067557824965,-0.8024691358024691,wait_cost,1.0,1.0,131.43606805801392,None,os8,2,2023-02-28_10h33.40.928,threat_forest,2021.2.3,60.05392147738548,False,54.0,0.2777777777777778,0.3159722222222222,-1.1882716049382718,-1.0420524691358026,0,0,0,-0.14837252280136246,-0.8024691358024691,0.0,0.1975308641975308,0.2222222222222222,0.8888888888888888,-1.4444444444444444,-1.3209876543209877,0.6790123456790123,0.6790123456790123,0.0,2.0,-1.0,2.0,0,0,0
4.0,0.0,4.0,0.0,0.0,0.0,0.0,0.0,136.5794870853424,140.0885100364685,None,left,2.673733949661255,143.8748059272766,os8,143.8748059272766,None,136.5794870853424,140.0885100364685,True,5.0,['r'],True,0.3333333333333333,0.3333333333333333,0.0,0.0,2.0,0.5793801642856949,0.0474629650798488,unsucc_cost,0.0,3.0,,,os8,2,2023-02-28_10h33.40.928,threat_forest,2021.2.3,60.05392147738548,True,68.0,0.5,0.3888888888888889,-1.2222222222222223,-1.205246913580247,1,0,1,0.9834759784647187,0.0474629650798488,0.3333333333333333,0.3333333333333333,0.3333333333333333,1.0,-0.6666666666666669,-0.6666666666666669,4.333333333333333,4.333333333333333,1.0,2.0,-1.0,5.0,0,0,1
4.0,0.0,4.0,0.0,1.0,0.0,1.0,0.0,,,,None,,149.32206988334656,os8,146.57649993896484,148.58842301368713,149.32206988334656,None,False,3.0,['r'],False,0.2222222222222222,0.6666666666666666,0.6666666666666666,2.0,2.0,0.77250688571426,-0.0090279894663753,wait_cost,1.0,2.0,148.58842301368713,None,os8,2,2023-02-28_10h33.40.928,threat_forest,2021.2.3,60.05392147738548,None,68.0,0.5,0.3888888888888889,-1.2222222222222223,-1.205246913580247,0,0,0,,-0.0090279894663753,0.2222222222222222,0.2222222222222222,0.6666666666666666,0.33333333333333337,-1.3333333333333335,-1.777777777777778,1.222222222222222,1.222222222222222,0.0,2.0,-1.0,3.0,0,0,0
4.0,0.0,4.0,0.0,2.0,0.0,2.0,0.0,,,,right,2.195268154144287,156.96525597572327,os8,156.96525597572327,None,152.32877111434937,154.3282129764557,False,2.0,['r'],True,0.3333333333333333,0.3333333333333333,0.0,0.0,2.0,0.5793801642856949,0.0437242798353909,wait_cost,0.0,1.0,154.3282129764557,None,os8,2,2023-02-28_10h33.40.928,threat_forest,2021.2.3,60.05392147738548,False,68.0,0.5,0.3888888888888889,-1.2222222222222223,-1.205246913580247,1,0,0,0.7863042049626587,0.0437242798353909,0.3333333333333333,0.3333333333333333,0.3333333333333333,1.0,-0.6666666666666669,-0.6666666666666669,1.333333333333333,1.333333333333333,1.0,2.0,-1.0,2.0,0,0,1
4.0,0.0,4.0,0.0,3.0,0.0,3.0,0.0,,,,left,0.9559938907623292,161.74503898620603,os8,161.74503898620603,None,152.32877111434937,154.3282129764557,True,1.0,['r'],True,0.3333333333333333,0.3333333333333333,0.0,0.0,2.0,0.5793801642856949,0.1373456790123456,succ_gain,0.0,3.0,161.20243906974792,None,os8,2,2023-02-28_10h33.40.928,threat_forest,2021.2.3,60.05392147738548,True,68.0,0.5,0.3888888888888889,-1.2222222222222223,-1.205246913580247,1,0,1,-0.04500375636712819,0.1373456790123456,1.0,0.3333333333333333,0.3333333333333333,1.0,-0.6666666666666669,-0.6666666666666669,0.33333333333333315,0.33333333333333315,1.0,2.0,-1.0,1.0,1,0,1
4.0,0.0,4.0,0.0,4.0,0.0,4.0,0.0,,,,right,2.6993730068206787,168.48699402809143,os8,168.48699402809143,None,152.32877111434937,154.3282129764557,False,3.0,['r'],True,0.3333333333333333,0.3333333333333333,0.0,0.0,2.0,0.5793801642856949,0.2129629629629629,wait_cost,0.0,2.0,164.7398910522461,None,os8,2,2023-02-28_10h33.40.928,threat_forest,2021.2.3,60.05392147738548,False,68.0,0.5,0.3888888888888889,-1.2222222222222223,-1.205246913580247,1,0,0,0.9930195263470699,0.2129629629629629,0.3333333333333333,0.3333333333333333,0.3333333333333333,1.0,-0.6666666666666669,-0.6666666666666669,2.333333333333333,2.333333333333333,1.0,2.0,1.0,3.0,0,0,1
4.0,0.0,4.0,0.0,5.0,0.0,5.0,0.0,,,,right,2.9471378326416016,174.6969919204712,os8,174.6969919204712,None,152.32877111434937,154.3282129764557,False,2.0,['r'],True,0.3333333333333333,0.3333333333333333,0.0,0.0,2.0,0.5793801642856949,0.0555555555555555,wait_cost,0.0,1.0,173.2154998779297,None,os8,2,2023-02-28_10h33.40.928,threat_forest,2021.2.3,60.05392147738548,False,68.0,0.5,0.3888888888888889,-1.2222222222222223,-1.205246913580247,1,0,0,1.0808344731544215,0.0555555555555555,0.3333333333333333,0.3333333333333333,0.3333333333333333,1.0,-0.6666666666666669,-0.6666666666666669,1.333333333333333,1.333333333333333,1.0,2.0,-1.0,2.0,0,0,1
4.0,0.0,4.0,0.0,6.0,0.0,6.0,0.0,,,,left,0.7968080043792725,180.38963389396667,os8,180.38963389396667,None,152.32877111434937,154.3282129764557,True,1.0,['r'],True,0.3333333333333333,0.3333333333333333,0.0,0.0,2.0,0.5793801642856949,0.3333333333333332,unsucc_cost,0.0,0.0,179.6893949508667,None,os8,2,2023-02-28_10h33.40.928,threat_forest,2021.2.3,60.05392147738548,True,68.0,0.5,0.3888888888888889,-1.2222222222222223,-1.205246913580247,1,0,1,-0.2271415271054884,0.3333333333333332,1.0,0.3333333333333333,0.3333333333333333,1.0,-0.6666666666666669,-0.6666666666666669,0.33333333333333315,0.33333333333333315,1.0,2.0,-1.0,1.0,1,0,1
5.0,0.0,5.0,0.0,0.0,0.0,0.0,0.0,185.96614789962769,189.46763610839844,None,left,2.0101430416107178,191.1437680721283,os8,185.96614789962769,189.46763610839844,191.1437680721283,None,False,5.0,['p'],False,0.4444444444444445,0.6666666666666666,0.3333333333333333,1.0,2.0,0.9656336071428248,0.0340745001853471,wait_cost,1.0,4.0,,,os8,2,2023-02-28_10h33.40.928,threat_forest,2021.2.3,60.05392147738548,False,21.0,0.47619047619047616,0.4880952380952381,-1.012471655328798,-1.1173469387755102,1,0,0,0.6982058845193339,0.0340745001853471,0.4444444444444445,0.4444444444444445,0.6666666666666666,0.6666666666666667,-0.3333333333333335,-0.5555555555555556,4.444444444444445,4.444444444444445,0.0,2.0,-1.0,5.0,0,0,1
5.0,0.0,5.0,0.0,1.0,0.0,1.0,0.0,,,,right,0.770759105682373,197.9154670238495,os8,185.96614789962769,189.46763610839844,197.9154670238495,None,True,4.0,['p'],False,0.4444444444444445,0.6666666666666666,0.3333333333333333,1.0,2.0,0.9656336071428248,0.1275977123343487,unsucc_cost,1.0,2.0,195.1898970603943,None,os8,2,2023-02-28_10h33.40.928,threat_forest,2021.2.3,60.05392147738548,True,21.0,0.47619047619047616,0.4880952380952381,-1.012471655328798,-1.1173469387755102,1,0,1,-0.26037939823133505,0.1275977123343487,0.4444444444444445,0.4444444444444445,0.6666666666666666,0.6666666666666667,-0.3333333333333335,-0.5555555555555556,3.4444444444444446,3.4444444444444446,0.0,2.0,-1.0,4.0,0,0,1
5.0,0.0,5.0,0.0,2.0,0.0,2.0,0.0,,,,right,2.6727750301361084,202.4384410381317,os8,202.4384410381317,None,198.71174502372745,200.71258091926575,False,2.0,['p'],True,0.2040816326530612,0.2857142857142857,0.2857142857142857,2.0,2.0,0.9335459102197724,-0.0410602699792536,wait_cost,0.0,1.0,200.71258091926572,None,os8,2,2023-02-28_10h33.40.928,threat_forest,2021.2.3,60.05392147738548,False,21.0,0.47619047619047616,0.4880952380952381,-1.012471655328798,-1.1173469387755102,0,0,0,0.983117269804899,-0.0410602699792536,0.2040816326530612,0.2040816326530612,0.2857142857142857,0.7142857142857143,-1.7142857142857144,-1.4693877551020407,0.5306122448979593,0.5306122448979593,1.0,2.0,-1.0,2.0,0,0,0
5.0,0.0,5.0,0.0,3.0,0.0,3.0,0.0,,,,right,0.7195930480957031,208.20524501800537,os8,205.13812804222107,207.15262293815613,208.20524501800537,None,True,1.0,['p'],False,0.4444444444444445,0.6666666666666666,0.3333333333333333,1.0,2.0,0.9656336071428248,0.2001903642115282,unsucc_cost,1.0,0.0,207.15262293815613,None,os8,2,2023-02-28_10h33.40.928,threat_forest,2021.2.3,60.05392147738548,True,21.0,0.47619047619047616,0.4880952380952381,-1.012471655328798,-1.1173469387755102,1,0,1,-0.3290694377421647,0.2001903642115282,1.0,0.4444444444444445,0.6666666666666666,0.6666666666666667,-0.3333333333333335,-0.5555555555555556,0.4444444444444444,0.4444444444444444,0.0,2.0,-1.0,1.0,1,0,1
6.0,0.0,6.0,0.0,0.0,0.0,0.0,0.0,214.16370511054996,217.66252088546756,None,right,1.608004093170166,219.9249289035797,os8,214.16370511054996,217.66252088546753,219.9249289035797,None,True,4.0,['p'],False,0.4444444444444445,0.6666666666666666,0.3333333333333333,1.0,1.0,0.9656336071428248,0.0476968551938484,fight_cost,1.0,1.0,,,os8,2,2023-02-28_10h33.40.928,threat_forest,2021.2.3,60.05392147738548,True,5.0,0.4444444444444444,0.4603174603174603,-1.259259259259259,-1.1358654572940285,1,0,1,0.4749937162573694,0.0476968551938484,0.4444444444444445,0.4444444444444445,0.6666666666666666,0.6666666666666667,-1.0,-1.0,3.0,3.0,0.0,1.0,-1.0,4.0,0,0,1
6.0,0.0,6.0,0.0,1.0,0.0,1.0,0.0,,,,right,0.8604798316955566,225.8665599822998,os8,214.16370511054996,217.66252088546753,225.8665599822998,None,True,1.0,['p'],False,0.4444444444444445,0.6666666666666666,0.3333333333333333,1.0,1.0,0.9656336071428248,0.0339196825493655,succ_gain,1.0,2.0,223.56128907203677,None,os8,2,2023-02-28_10h33.40.928,threat_forest,2021.2.3,60.05392147738548,True,5.0,0.4444444444444444,0.4603174603174603,-1.259259259259259,-1.1358654572940285,1,0,1,-0.15026510149532887,0.0339196825493655,1.0,0.4444444444444445,0.6666666666666666,0.6666666666666667,-1.0,-1.0,0.0,0.0,0.0,1.0,-1.0,1.0,1,0,1
6.0,0.0,6.0,0.0,2.0,0.0,2.0,0.0,,,,right,0.9052598476409912,229.85528302192688,os8,214.16370511054996,217.66252088546753,229.85528302192688,None,True,2.0,['p'],False,0.4444444444444445,0.6666666666666666,0.3333333333333333,1.0,1.0,0.9656336071428248,0.0464961314939643,succ_gain,1.0,3.0,228.77674198150635,None,os8,2,2023-02-28_10h33.40.928,threat_forest,2021.2.3,60.05392147738548,True,5.0,0.4444444444444444,0.4603174603174603,-1.259259259259259,-1.1358654572940285,1,0,1,-0.099533252029368,0.0464961314939643,0.4444444444444445,0.4444444444444445,0.6666666666666666,0.6666666666666667,-1.0,-1.0,1.0,1.0,0.0,1.0,1.0,2.0,0,0,1
6.0,0.0,6.0,0.0,3.0,0.0,3.0,0.0,,,,right,2.0633649826049805,235.35538792610168,os8,235.35538792610168,None,230.7906649112701,232.79795289039612,False,3.0,['p'],True,0.1975308641975308,0.2222222222222222,0.1111111111111111,1.0,1.0,0.7461067557824965,0.022924045713029,wait_cost,0.0,2.0,232.7979528903961,None,os8,2,2023-02-28_10h33.40.928,threat_forest,2021.2.3,60.05392147738548,False,5.0,0.4444444444444444,0.4603174603174603,-1.259259259259259,-1.1358654572940285,0,0,0,0.724338136814623,0.022924045713029,0.1975308641975308,0.1975308641975308,0.2222222222222222,0.8888888888888888,-1.6666666666666667,-1.5185185185185184,1.4814814814814816,1.4814814814814816,1.0,1.0,1.0,3.0,0,0,0
6.0,0.0,6.0,0.0,4.0,0.0,4.0,0.0,,,,right,1.0295419692993164,240.15626788139343,os8,237.44147896766663,239.4551088809967,240.15626788139343,None,True,2.0,['p'],False,0.4444444444444445,0.6666666666666666,0.3333333333333333,1.0,1.0,0.9656336071428248,0.084980270622703,unsucc_cost,1.0,0.0,239.4551088809967,None,os8,2,2023-02-28_10h33.40.928,threat_forest,2021.2.3,60.05392147738548,True,5.0,0.4444444444444444,0.4603174603174603,-1.259259259259259,-1.1358654572940285,1,0,1,0.02911401333696023,0.084980270622703,0.4444444444444445,0.4444444444444445,0.6666666666666666,0.6666666666666667,-1.0,-1.0,1.0,1.0,0.0,1.0,-1.0,2.0,0,0,1
7.0,0.0,7.0,0.0,0.0,0.0,0.0,0.0,244.31112909317017,247.8143150806427,None,left,1.413433074951172,251.5561048984528,os8,251.5561048984528,None,244.31112909317017,247.8143150806427,True,4.0,['p'],True,0.5,0.5,0.0,0.0,1.0,0.6309297535714574,0.0805026556124999,unsucc_cost,0.0,2.0,,,os8,2,2023-02-28_10h33.40.928,threat_forest,2021.2.3,60.05392147738548,True,24.0,0.55,0.49722222222222223,-0.9100000000000001,-1.0846296296296296,1,1,1,0.3460215499850916,0.0805026556124999,0.5,0.5,0.5,1.0,-0.5,-0.5,3.5,3.5,1.0,1.0,-1.0,4.0,0,1,1
7.0,0.0,7.0,0.0,1.0,0.0,1.0,0.0,,,,left,0.9747881889343262,256.8021879196167,os8,256.8021879196167,None,244.31112909317017,247.8143150806427,True,2.0,['p'],True,0.5,0.5,0.0,0.0,1.0,0.6309297535714574,0.0445789599999999,unsucc_cost,0.0,0.0,255.00585007667544,None,os8,2,2023-02-28_10h33.40.928,threat_forest,2021.2.3,60.05392147738548,True,24.0,0.55,0.49722222222222223,-0.9100000000000001,-1.0846296296296296,1,1,1,-0.02553507370341683,0.0445789599999999,0.5,0.5,0.5,1.0,-0.5,-0.5,1.5,1.5,1.0,1.0,-1.0,2.0,0,1,1
8.0,0.0,8.0,0.0,0.0,0.0,0.0,0.0,262.80117988586426,266.3009920120239,None,right,1.7584071159362793,269.5504629611969,os8,269.5504629611969,None,262.80117988586426,266.3009920120239,False,5.0,['r'],True,0.46875,0.625,0.25,2.0,2.0,0.9634951148421658,-0.0155794500840503,wait_cost,0.0,4.0,,,os8,2,2023-02-28_10h33.40.928,threat_forest,2021.2.3,60.05392147738548,False,19.0,0.5982142857142857,0.5741071428571429,-0.044642857142857206,-0.4773214285714287,1,0,0,0.5644083514835762,-0.0155794500840503,0.46875,0.46875,0.625,0.75,-0.25,-0.375,4.625,4.625,1.0,2.0,-1.0,5.0,0,0,1
8.0,0.0,8.0,0.0,1.0,0.0,1.0,0.0,,,,right,1.0225861072540283,276.3468430042267,os8,276.3468430042267,None,262.80117988586426,266.3009920120239,False,4.0,['r'],True,0.46875,0.625,0.25,2.0,2.0,0.9634951148421658,0.0392515045692686,wait_cost,0.0,3.0,273.36316108703613,None,os8,2,2023-02-28_10h33.40.928,threat_forest,2021.2.3,60.05392147738548,False,19.0,0.5982142857142857,0.5741071428571429,-0.044642857142857206,-0.4773214285714287,1,0,0,0.02233481786252581,0.0392515045692686,0.46875,0.46875,0.625,0.75,-0.25,-0.375,3.625,3.625,1.0,2.0,-1.0,4.0,0,0,1
8.0,0.0,8.0,0.0,2.0,0.0,2.0,0.0,,,,right,2.119207859039306,281.8699200153351,os8,281.8699200153351,None,262.80117988586426,266.3009920120239,False,3.0,['r'],True,0.46875,0.625,0.25,2.0,2.0,0.9634951148421658,0.0903189960791139,wait_cost,0.0,2.0,279.41568994522095,None,os8,2,2023-02-28_10h33.40.928,threat_forest,2021.2.3,60.05392147738548,False,19.0,0.5982142857142857,0.5741071428571429,-0.044642857142857206,-0.4773214285714287,1,0,0,0.7510423674622903,0.0903189960791139,0.46875,0.46875,0.625,0.75,-0.25,-0.375,2.625,2.625,1.0,2.0,-1.0,3.0,0,0,1
8.0,0.0,8.0,0.0,3.0,0.0,3.0,0.0,,,,right,2.8273909091949463,289.77913093566895,os8,289.77913093566895,None,262.80117988586426,266.3009920120239,False,2.0,['r'],True,0.46875,0.625,0.25,2.0,2.0,0.9634951148421658,-0.0014329915839104,wait_cost,0.0,1.0,286.0054440498352,None,os8,2,2023-02-28_10h33.40.928,threat_forest,2021.2.3,60.05392147738548,False,19.0,0.5982142857142857,0.5741071428571429,-0.044642857142857206,-0.4773214285714287,1,0,0,1.0393543461930783,-0.0014329915839104,0.46875,0.46875,0.625,0.75,-0.25,-0.375,1.625,1.625,1.0,2.0,-1.0,2.0,0,0,1
8.0,0.0,8.0,0.0,4.0,0.0,4.0,0.0,,,,left,0.7479360103607178,296.56590390205383,os8,296.56590390205383,None,262.80117988586426,266.3009920120239,True,1.0,['r'],True,0.46875,0.625,0.25,2.0,2.0,0.9634951148421658,0.3303161932497608,succ_gain,0.0,3.0,294.632623910904,None,os8,2,2023-02-28_10h33.40.928,threat_forest,2021.2.3,60.05392147738548,True,19.0,0.5982142857142857,0.5741071428571429,-0.044642857142857206,-0.4773214285714287,1,0,1,-0.2904378523131676,0.3303161932497608,1.0,0.46875,0.625,0.75,-0.25,-0.375,0.625,0.625,1.0,2.0,-1.0,1.0,1,0,1
8.0,0.0,8.0,0.0,5.0,0.0,5.0,0.0,,,,left,2.295459032058716,300.04431200027466,os8,297.3459029197693,299.3546669483185,300.04431200027466,None,False,3.0,['r'],False,0.5714285714285714,0.5714285714285714,0.0,0.0,2.0,0.6216097450797566,0.2485650510204081,wait_cost,1.0,2.0,299.3546669483185,None,os8,2,2023-02-28_10h33.40.928,threat_forest,2021.2.3,60.05392147738548,False,19.0,0.5982142857142857,0.5741071428571429,-0.044642857142857206,-0.4773214285714287,1,0,0,0.8309328374813207,0.2485650510204081,0.5714285714285714,0.5714285714285714,0.5714285714285714,1.0,0.2857142857142856,0.2857142857142856,3.2857142857142856,3.2857142857142856,0.0,2.0,1.0,3.0,0,0,1
8.0,0.0,8.0,0.0,6.0,0.0,6.0,0.0,,,,right,0.987339973449707,307.3249890804291,os8,297.3459029197693,299.3546669483185,307.3249890804291,None,True,2.0,['r'],False,0.5714285714285714,0.5714285714285714,0.0,0.0,2.0,0.6216097450797566,0.0513392857142857,unsucc_cost,1.0,0.0,304.37673807144165,None,os8,2,2023-02-28_10h33.40.928,threat_forest,2021.2.3,60.05392147738548,True,19.0,0.5982142857142857,0.5741071428571429,-0.044642857142857206,-0.4773214285714287,1,0,1,-0.01274084754156538,0.0513392857142857,0.5714285714285714,0.5714285714285714,0.5714285714285714,1.0,0.2857142857142856,0.2857142857142856,2.2857142857142856,2.2857142857142856,0.0,2.0,-1.0,2.0,0,0,1
9.0,0.0,9.0,0.0,0.0,0.0,0.0,0.0,314.09133100509644,317.591166973114,None,left,1.654541015625,320.05307602882385,os8,314.09133100509644,317.591166973114,320.05307602882385,None,False,5.0,['r'],False,0.375,0.5,0.25,1.0,2.0,0.9850568223215076,0.0358735195754151,wait_cost,1.0,4.0,,,os8,2,2023-02-28_10h33.40.928,threat_forest,2021.2.3,60.05392147738548,False,59.0,0.3611111111111111,0.4796626984126984,-1.1404320987654322,-0.5925374779541447,0,0,0,0.5035236384167693,0.0358735195754151,0.375,0.375,0.5,0.75,-0.75,-0.75,4.25,4.25,0.0,2.0,-1.0,5.0,0,0,0
9.0,0.0,9.0,0.0,1.0,0.0,1.0,0.0,,,,right,0.7607431411743164,326.83162808418274,os8,314.09133100509644,317.591166973114,326.83162808418274,None,True,4.0,['r'],False,0.375,0.5,0.25,1.0,2.0,0.9850568223215076,0.0970212738436905,fight_cost,1.0,1.0,323.74777388572693,None,os8,2,2023-02-28_10h33.40.928,threat_forest,2021.2.3,60.05392147738548,True,59.0,0.3611111111111111,0.4796626984126984,-1.1404320987654322,-0.5925374779541447,0,0,1,-0.27345950611909264,0.0970212738436905,0.375,0.375,0.5,0.75,-0.75,-0.75,3.25,3.25,0.0,2.0,-1.0,4.0,0,0,0
9.0,0.0,9.0,0.0,2.0,0.0,2.0,0.0,,,,left,0.6766970157623291,331.1962919235229,os8,331.1962919235229,None,327.6219909191132,329.6212809085846,True,1.0,['r'],True,0.1728395061728395,0.2222222222222222,0.2222222222222222,2.0,2.0,0.8571721972794328,0.0640701492417197,succ_gain,0.0,3.0,329.6212809085846,None,os8,2,2023-02-28_10h33.40.928,threat_forest,2021.2.3,60.05392147738548,True,59.0,0.3611111111111111,0.4796626984126984,-1.1404320987654322,-0.5925374779541447,0,0,1,-0.3905316457398951,0.0640701492417197,1.0,0.1728395061728395,0.2222222222222222,0.7777777777777778,-1.7777777777777777,-1.5308641975308643,-0.5308641975308643,0.0,1.0,2.0,-1.0,1.0,1,0,0
9.0,0.0,9.0,0.0,3.0,0.0,3.0,0.0,,,,right,2.252722978591919,335.0456519126892,os8,335.0456519126892,None,327.6219909191132,329.6212809085846,False,3.0,['r'],True,0.1728395061728395,0.2222222222222222,0.2222222222222222,2.0,2.0,0.8571721972794328,-0.0839910479197434,wait_cost,0.0,2.0,333.8922998905182,None,os8,2,2023-02-28_10h33.40.928,threat_forest,2021.2.3,60.05392147738548,False,59.0,0.3611111111111111,0.4796626984126984,-1.1404320987654322,-0.5925374779541447,0,0,0,0.8121396972067456,-0.0839910479197434,0.1728395061728395,0.1728395061728395,0.2222222222222222,0.7777777777777778,-1.7777777777777777,-1.5308641975308643,1.4691358024691357,1.4691358024691357,1.0,2.0,1.0,3.0,0,0,0
9.0,0.0,9.0,0.0,4.0,0.0,4.0,0.0,,,,right,2.7087368965148926,341.08258509635925,os8,341.08258509635925,None,327.6219909191132,329.6212809085846,False,2.0,['r'],True,0.1728395061728395,0.2222222222222222,0.2222222222222222,2.0,2.0,0.8571721972794328,-0.1010802469135802,wait_cost,0.0,1.0,339.3487660884857,None,os8,2,2023-02-28_10h33.40.928,threat_forest,2021.2.3,60.05392147738548,False,59.0,0.3611111111111111,0.4796626984126984,-1.1404320987654322,-0.5925374779541447,0,0,0,0.9964824363910708,-0.1010802469135802,0.1728395061728395,0.1728395061728395,0.2222222222222222,0.7777777777777778,-1.7777777777777777,-1.5308641975308643,0.46913580246913567,0.46913580246913567,1.0,2.0,-1.0,2.0,0,0,0
9.0,0.0,9.0,0.0,5.0,0.0,5.0,0.0,,,,left,1.0034258365631104,348.2769169807434,os8,348.2769169807434,None,327.6219909191132,329.6212809085846,True,1.0,['r'],True,0.1728395061728395,0.2222222222222222,0.2222222222222222,2.0,2.0,0.8571721972794328,0.1728395061728395,unsucc_cost,0.0,0.0,345.82267808914185,None,os8,2,2023-02-28_10h33.40.928,threat_forest,2021.2.3,60.05392147738548,True,59.0,0.3611111111111111,0.4796626984126984,-1.1404320987654322,-0.5925374779541447,0,0,1,0.0034199817529697203,0.1728395061728395,1.0,0.1728395061728395,0.2222222222222222,0.7777777777777778,-1.7777777777777777,-1.5308641975308643,-0.5308641975308643,0.0,1.0,2.0,-1.0,1.0,1,0,0
10.0,0.0,10.0,0.0,0.0,0.0,0.0,0.0,354.1521940231323,357.6519889831543,None,left,0.7878170013427734,360.1794021129608,os8,360.1794021129608,None,354.1521940231323,357.6519889831543,True,5.0,['r'],True,0.3333333333333333,0.3333333333333333,0.0,0.0,1.0,0.5793801642856949,0.037608671236214,unsucc_cost,0.0,3.0,,,os8,2,2023-02-28_10h33.40.928,threat_forest,2021.2.3,60.05392147738548,True,28.0,0.3666666666666667,0.36388888888888893,-1.3400000000000003,-1.2402160493827163,1,0,1,-0.2384894478927485,0.037608671236214,0.3333333333333333,0.3333333333333333,0.3333333333333333,1.0,-1.0000000000000002,-1.0000000000000002,4.0,4.0,1.0,1.0,-1.0,5.0,0,0,1
10.0,0.0,10.0,0.0,1.0,0.0,1.0,0.0,,,,right,1.506608009338379,366.7323999404907,os8,360.9973340034485,363.0019669532776,366.7323999404907,None,True,3.0,['r'],False,0.24,0.4,0.4,2.0,1.0,0.9801625908629508,0.0090883802469137,fight_cost,1.0,0.0,363.0019669532776,None,os8,2,2023-02-28_10h33.40.928,threat_forest,2021.2.3,60.05392147738548,True,28.0,0.3666666666666667,0.36388888888888893,-1.3400000000000003,-1.2402160493827163,0,0,1,0.40986077256310754,0.0090883802469137,0.24,0.24,0.4,0.6,-2.0,-1.6800000000000002,1.3199999999999998,1.3199999999999998,0.0,1.0,-1.0,3.0,0,0,0
11.0,0.0,11.0,0.0,0.0,0.0,0.0,0.0,373.7065949440002,377.20699405670166,None,left,2.3038928508758545,378.249253988266,os8,378.249253988266,None,373.7065949440002,377.20699405670166,True,4.0,['p'],True,0.375,0.5,0.25,1.0,2.0,0.9850568223215076,0.0505551995468139,succ_gain,0.0,6.0,,,os8,2,2023-02-28_10h33.40.928,threat_forest,2021.2.3,60.05392147738548,True,45.0,0.35,0.35833333333333334,-0.9750000000000001,-1.1575000000000002,1,1,1,0.8346002360559777,0.0505551995468139,0.375,0.375,0.5,0.75,-0.75,-0.75,3.25,3.25,1.0,2.0,-1.0,4.0,0,1,1
11.0,0.0,11.0,0.0,1.0,0.0,1.0,0.0,,,,left,2.6262519359588623,385.0884470939636,os8,380.5866630077362,382.5963110923767,385.0884470939636,None,False,6.0,['p'],False,0.2,0.2,0.0,0.0,2.0,0.4554859150035951,-0.0656154916381837,wait_cost,1.0,5.0,382.5963110923767,None,os8,2,2023-02-28_10h33.40.928,threat_forest,2021.2.3,60.05392147738548,False,45.0,0.35,0.35833333333333334,-0.9750000000000001,-1.1575000000000002,0,0,0,0.9655577103339122,-0.0656154916381837,0.2,0.2,0.2,1.0,-1.2000000000000002,-1.2000000000000002,4.8,4.8,0.0,2.0,1.0,6.0,0,0,0
11.0,0.0,11.0,0.0,2.0,0.0,2.0,0.0,,,,None,,391.74049496650696,os8,380.5866630077362,382.5963110923767,391.74049496650696,None,False,5.0,['p'],False,0.2,0.2,0.0,0.0,2.0,0.4554859150035951,0.003671044921875,wait_cost,1.0,4.0,389.7543549537658,None,os8,2,2023-02-28_10h33.40.928,threat_forest,2021.2.3,60.05392147738548,None,45.0,0.35,0.35833333333333334,-0.9750000000000001,-1.1575000000000002,0,0,0,,0.003671044921875,0.2,0.2,0.2,1.0,-1.2000000000000002,-1.2000000000000002,3.8,3.8,0.0,2.0,-1.0,5.0,0,0,0
11.0,0.0,11.0,0.0,3.0,0.0,3.0,0.0,,,,left,1.4328341484069824,397.8818209171295,os8,397.8818209171295,None,394.7481119632721,396.7620129585266,True,4.0,['p'],True,0.375,0.5,0.25,1.0,2.0,0.9850568223215076,0.07561669921875,succ_gain,0.0,6.0,396.7620129585266,None,os8,2,2023-02-28_10h33.40.928,threat_forest,2021.2.3,60.05392147738548,True,45.0,0.35,0.35833333333333334,-0.9750000000000001,-1.1575000000000002,1,1,1,0.3596544048185621,0.07561669921875,0.375,0.375,0.5,0.75,-0.75,-0.75,3.25,3.25,1.0,2.0,-1.0,4.0,0,1,1
11.0,0.0,11.0,0.0,4.0,0.0,4.0,0.0,,,,right,0.6526610851287842,404.7611138820648,os8,404.7611138820648,None,394.7481119632721,396.7620129585266,False,6.0,['p'],True,0.375,0.5,0.25,1.0,2.0,0.9850568223215076,-0.1358984375,wait_cost,0.0,5.0,401.3505890369415,None,os8,2,2023-02-28_10h33.40.928,threat_forest,2021.2.3,60.05392147738548,False,45.0,0.35,0.35833333333333334,-0.9750000000000001,-1.1575000000000002,1,1,0,-0.4266972964930122,-0.1358984375,0.0,0.375,0.5,0.75,-0.75,-0.75,5.25,5.25,1.0,2.0,1.0,6.0,0,1,1
11.0,0.0,11.0,0.0,5.0,0.0,5.0,0.0,,,,right,0.7602789402008057,408.5711131095886,os8,408.5711131095886,None,394.7481119632721,396.7620129585266,False,5.0,['p'],True,0.375,0.5,0.25,1.0,2.0,0.9850568223215076,-0.1671875,wait_cost,0.0,4.0,407.4404990673065,None,os8,2,2023-02-28_10h33.40.928,threat_forest,2021.2.3,60.05392147738548,False,45.0,0.35,0.35833333333333334,-0.9750000000000001,-1.1575000000000002,1,1,0,-0.27406988645953206,-0.1671875,0.0,0.375,0.5,0.75,-0.75,-0.75,4.25,4.25,1.0,2.0,-1.0,5.0,0,1,1
11.0,0.0,11.0,0.0,6.0,0.0,6.0,0.0,,,,left,1.0144891738891602,413.2837450504303,os8,409.35545206069946,411.3614139556885,413.2837450504303,None,False,4.0,['p'],False,0.2,0.2,0.0,0.0,2.0,0.4554859150035951,0.0,wait_cost,1.0,3.0,411.3614139556885,None,os8,2,2023-02-28_10h33.40.928,threat_forest,2021.2.3,60.05392147738548,False,45.0,0.35,0.35833333333333334,-0.9750000000000001,-1.1575000000000002,0,0,0,0.014385208850903398,0.0,0.0,0.2,0.2,1.0,-1.2000000000000002,-1.2000000000000002,2.8,2.8,0.0,2.0,-1.0,4.0,0,0,0
11.0,0.0,11.0,0.0,7.0,0.0,7.0,0.0,,,,left,0.5310101509094238,417.5655200481415,os8,409.35545206069946,411.3614139556885,417.5655200481415,None,False,3.0,['p'],False,0.2,0.2,0.0,0.0,2.0,0.4554859150035951,0.0,wait_cost,1.0,2.0,416.3333990573883,None,os8,2,2023-02-28_10h33.40.928,threat_forest,2021.2.3,60.05392147738548,False,45.0,0.35,0.35833333333333334,-0.9750000000000001,-1.1575000000000002,0,0,0,-0.6329741413326658,0.0,0.0,0.2,0.2,1.0,-1.2000000000000002,-1.2000000000000002,1.7999999999999998,1.7999999999999998,0.0,2.0,-1.0,3.0,0,0,0
12.0,0.0,12.0,0.0,0.0,0.0,0.0,0.0,420.991760969162,424.4921650886536,None,right,1.754796028137207,425.0666670799256,os8,420.991760969162,424.49216508865356,425.0666670799256,None,True,4.0,['r'],False,0.4,0.4,0.0,0.0,1.0,0.6126016192893442,0.0461191598079562,unsucc_cost,1.0,2.0,,,os8,2,2023-02-28_10h33.40.928,threat_forest,2021.2.3,60.05392147738548,True,7.0,0.45,0.4,-1.0666666666666667,-1.0208333333333335,1,0,1,0.5623526268797372,0.0461191598079562,0.4,0.4,0.4,1.0,-0.7999999999999999,-0.7999999999999999,3.2,3.2,0.0,1.0,-1.0,4.0,0,0,1
12.0,0.0,12.0,0.0,1.0,0.0,1.0,0.0,,,,left,1.5462448596954346,432.22299098968506,os8,432.22299098968506,None,426.8533918857575,428.86408710479736,True,2.0,['r'],True,0.3333333333333333,0.5,0.3333333333333333,2.0,1.0,1.0,0.0118452194787379,fight_cost,0.0,0.0,428.86408710479736,None,os8,2,2023-02-28_10h33.40.928,threat_forest,2021.2.3,60.05392147738548,True,7.0,0.45,0.4,-1.0666666666666667,-1.0208333333333335,0,0,1,0.4358293203506821,0.0118452194787379,0.3333333333333333,0.3333333333333333,0.5,0.6666666666666667,-1.5,-1.3333333333333335,0.6666666666666665,0.6666666666666665,1.0,1.0,-1.0,2.0,0,0,0
13.0,0.0,13.0,0.0,0.0,0.0,0.0,0.0,437.0479469299317,440.5490460395813,None,left,2.278754949569702,442.5411279201508,os8,437.0479469299317,440.5490460395813,442.5411279201508,None,False,5.0,['r'],False,0.16,0.2,0.2,2.0,2.0,0.8198746470064713,-0.0083567608970359,wait_cost,1.0,4.0,,,os8,2,2023-02-28_10h33.40.928,threat_forest,2021.2.3,60.05392147738548,False,63.0,0.26666666666666666,0.35833333333333334,-1.5022222222222226,-1.2844444444444445,0,0,0,0.8236292190631007,-0.0083567608970359,0.16,0.16,0.2,0.8,-1.8000000000000003,-1.5600000000000003,3.4399999999999995,3.4399999999999995,0.0,2.0,-1.0,5.0,0,0,0
13.0,0.0,13.0,0.0,1.0,0.0,1.0,0.0,,,,right,1.925673007965088,448.8553740978241,os8,448.8553740978241,None,444.8505220413208,446.85071992874146,False,4.0,['r'],True,0.2222222222222222,0.3333333333333333,0.3333333333333333,2.0,2.0,0.9656336071428248,0.0288077520013096,wait_cost,0.0,3.0,446.8507199287415,None,os8,2,2023-02-28_10h33.40.928,threat_forest,2021.2.3,60.05392147738548,False,63.0,0.26666666666666666,0.35833333333333334,-1.5022222222222226,-1.2844444444444445,0,0,0,0.6552755211661478,0.0288077520013096,0.2222222222222222,0.2222222222222222,0.3333333333333333,0.6666666666666667,-1.666666666666667,-1.4444444444444446,2.5555555555555554,2.5555555555555554,1.0,2.0,-1.0,4.0,0,0,0
13.0,0.0,13.0,0.0,2.0,0.0,2.0,0.0,,,,right,1.107900857925415,456.1583740711212,os8,450.810714006424,452.8239150047302,456.1583740711212,None,True,3.0,['r'],False,0.16,0.2,0.2,2.0,2.0,0.8198746470064713,0.0333361725102879,unsucc_cost,1.0,1.0,452.8239150047302,None,os8,2,2023-02-28_10h33.40.928,threat_forest,2021.2.3,60.05392147738548,True,63.0,0.26666666666666666,0.35833333333333334,-1.5022222222222226,-1.2844444444444445,0,0,1,0.1024671059149955,0.0333361725102879,0.16,0.16,0.2,0.8,-1.8000000000000003,-1.5600000000000003,1.4399999999999997,1.4399999999999997,0.0,2.0,-1.0,3.0,0,0,0
13.0,0.0,13.0,0.0,3.0,0.0,3.0,0.0,,,,right,0.8600080013275146,461.4993040561676,os8,450.810714006424,452.8239150047302,461.4993040561676,None,True,1.0,['r'],False,0.16,0.2,0.2,2.0,2.0,0.8198746470064713,0.0471577283950616,unsucc_cost,1.0,0.0,459.2977430820465,None,os8,2,2023-02-28_10h33.40.928,threat_forest,2021.2.3,60.05392147738548,True,63.0,0.26666666666666666,0.35833333333333334,-1.5022222222222226,-1.2844444444444445,0,0,1,-0.15081358590866129,0.0471577283950616,1.0,0.16,0.2,0.8,-1.8000000000000003,-1.5600000000000003,-0.5600000000000003,0.0,0.0,2.0,-1.0,1.0,1,0,0
14.0,0.0,14.0,0.0,0.0,0.0,0.0,0.0,466.7306990623474,470.2428689002991,None,right,1.791071891784668,473.0254280567169,os8,473.0254280567169,None,466.7306990623474,470.2428689002991,False,5.0,['p'],True,0.2,0.2,0.0,0.0,1.0,0.4554859150035951,-0.0328286525992537,wait_cost,0.0,4.0,,,os8,2,2023-02-28_10h33.40.928,threat_forest,2021.2.3,60.05392147738548,False,39.0,0.43333333333333335,0.35,-1.2000000000000002,-1.3511111111111114,0,0,0,0.5828142628562506,-0.0328286525992537,0.2,0.2,0.2,1.0,-1.4000000000000001,-1.4000000000000001,3.5999999999999996,3.5999999999999996,1.0,1.0,-1.0,5.0,0,0,0
14.0,0.0,14.0,0.0,1.0,0.0,1.0,0.0,,,,left,2.961467981338501,478.83404302597046,os8,478.83404302597046,None,466.7306990623474,470.2428689002991,True,4.0,['p'],True,0.2,0.2,0.0,0.0,1.0,0.4554859150035951,-0.0236723026638894,unsucc_cost,0.0,2.0,476.867290019989,None,os8,2,2023-02-28_10h33.40.928,threat_forest,2021.2.3,60.05392147738548,True,39.0,0.43333333333333335,0.35,-1.2000000000000002,-1.3511111111111114,0,0,1,1.085685085039935,-0.0236723026638894,0.2,0.2,0.2,1.0,-1.4000000000000001,-1.4000000000000001,2.5999999999999996,2.5999999999999996,1.0,1.0,-1.0,4.0,0,0,0
14.0,0.0,14.0,0.0,2.0,0.0,2.0,0.0,,,,right,0.7010750770568848,486.4127490520477,os8,481.8275690078736,483.84151101112366,486.4127490520477,None,True,2.0,['p'],False,0.4444444444444445,0.6666666666666666,0.3333333333333333,1.0,1.0,0.9656336071428248,0.050445016003658,succ_gain,1.0,3.0,483.84151101112366,None,os8,2,2023-02-28_10h33.40.928,threat_forest,2021.2.3,60.05392147738548,True,39.0,0.43333333333333335,0.35,-1.2000000000000002,-1.3511111111111114,1,1,1,-0.35514029774384126,0.050445016003658,0.4444444444444445,0.4444444444444445,0.6666666666666666,0.6666666666666667,-1.0,-1.0,1.0,1.0,0.0,1.0,-1.0,2.0,0,1,1
14.0,0.0,14.0,0.0,3.0,0.0,3.0,0.0,,,,right,0.8780109882354736,492.01489090919495,os8,481.8275690078736,483.84151101112366,492.01489090919495,None,True,3.0,['p'],False,0.4444444444444445,0.6666666666666666,0.3333333333333333,1.0,1.0,0.9656336071428248,0.0969238683127571,fight_cost,1.0,0.0,489.1641271114349,None,os8,2,2023-02-28_10h33.40.928,threat_forest,2021.2.3,60.05392147738548,True,39.0,0.43333333333333335,0.35,-1.2000000000000002,-1.3511111111111114,1,1,1,-0.13009617035076196,0.0969238683127571,0.4444444444444445,0.4444444444444445,0.6666666666666666,0.6666666666666667,-1.0,-1.0,2.0,2.0,0.0,1.0,1.0,3.0,0,1,1
