miniblock.thisRepN,miniblock.thisTrialN,miniblock.thisN,miniblock.thisIndex,day.thisRepN,day.thisTrialN,day.thisN,day.thisIndex,forest.started,fixation_forest.started,fixation_forest.stopped,key_resp.keys,key_resp.rt,key_resp.started,Subject_ID,weather_left.started,weather_left.stopped,weather_right.started,weather_right.stopped,foraging T/F,in_LP,p/r heuristic,good_weather.T/F,p_succ_correct,p_succ_uncorrected,r_threat,n_oponents,gain_if_succ,weather_entropy,OP_value_difference,action_outcome,forest_side_L=0_R=1,out_LP,fixation_day.started,fixation_day.stopped,participant,session,date,expName,psychopyVersion,frameRate,foraging T/F NaNs,fora_NR,forest_mean_p,mvt_cutoff_p,forest_mean_ev,mvt_cutoff_ev,mvt_policy_eg,mvt_policy_p,fora_response,logRT,optimal policy,$\mathit{p}$ success cor + cap,$\mathit{p}$ success cor,$\mathit{p}$ success,risk threat encounter,expected gain naive,expected gain correct,expected state no bounds,expected state with bounds,weather type,gain magnitude,win stay lose shift,continuous energy state,binary energy state,$\mathit{p}$ success based MVT,expected gain based MVT
0.0,0.0,0.0,0.0,0.0,0.0,0.0,0.0,33.633866600022884,37.14146760001313,None,right,1.246233400015626,38.309800600021845,kp4,33.633866600022884,37.14146760001313,38.309800600021845,None,True,4.0,['p'],False,0.25,0.5,0.5,1.0,1.0,0.9463946303571862,0.0069096320109571,succ_gain,1.0,5.0,,,kp4,1,2023-03-24_11h15.46.911,threat_forest,2021.2.3,60.052413743836034,True,71.0,0.35,0.35,-1.7350000000000003,-1.7350000000000003,0,0,1,0.22012572225785862,0.0069096320109571,0.25,0.25,0.5,0.5,-2.0,-1.75,2.25,2.25,0.0,1.0,,4.0,0,0,0
0.0,0.0,0.0,0.0,1.0,0.0,1.0,0.0,,,,right,0.7629397000127938,43.5812561000057,kp4,43.5812561000057,None,39.58949300000677,41.6011131000123,False,5.0,['p'],True,0.16,0.2,0.2,2.0,1.0,0.8198746470064713,0.0027365975062501,wait_cost,0.0,4.0,41.6011131000123,None,kp4,1,2023-03-24_11h15.46.911,threat_forest,2021.2.3,60.052413743836034,False,71.0,0.35,0.35,-1.7350000000000003,-1.7350000000000003,1,0,0,-0.27057628094812514,0.0027365975062501,0.16,0.16,0.2,0.8,-2.0,-1.7200000000000004,3.2799999999999994,3.2799999999999994,1.0,1.0,1.0,5.0,0,0,1
0.0,0.0,0.0,0.0,2.0,0.0,2.0,0.0,,,,right,0.8064813999808393,48.02178130001994,kp4,44.36575170001015,46.36379200001829,48.02178130001994,None,True,4.0,['p'],False,0.25,0.5,0.5,1.0,1.0,0.9463946303571862,0.0165916410937499,unsucc_cost,1.0,2.0,46.36379200001829,None,kp4,1,2023-03-24_11h15.46.911,threat_forest,2021.2.3,60.052413743836034,True,71.0,0.35,0.35,-1.7350000000000003,-1.7350000000000003,0,0,1,-0.21507444432282108,0.0165916410937499,0.25,0.25,0.5,0.5,-2.0,-1.75,2.25,2.25,0.0,1.0,-1.0,4.0,0,0,0
0.0,0.0,0.0,0.0,3.0,0.0,3.0,0.0,,,,right,0.662465000001248,54.29017410002416,kp4,54.29017410002416,None,48.84521990001667,50.85923120001098,False,2.0,['p'],True,0.16,0.2,0.2,2.0,1.0,0.8198746470064713,-0.00750475,wait_cost,0.0,1.0,50.85923120001098,None,kp4,1,2023-03-24_11h15.46.911,threat_forest,2021.2.3,60.052413743836034,False,71.0,0.35,0.35,-1.7350000000000003,-1.7350000000000003,1,0,0,-0.41178755270411876,-0.00750475,0.16,0.16,0.2,0.8,-2.0,-1.7200000000000004,0.2799999999999996,0.2799999999999996,1.0,1.0,-1.0,2.0,0,0,1
0.0,0.0,0.0,0.0,4.0,0.0,4.0,0.0,,,,right,0.8304118999803904,57.75821470000665,kp4,54.97361920002732,56.97002360000624,57.75821470000665,None,True,1.0,['p'],False,0.25,0.5,0.5,1.0,1.0,0.9463946303571862,0.056875,figh_cost,1.0,0.0,56.97002360000624,None,kp4,1,2023-03-24_11h15.46.911,threat_forest,2021.2.3,60.052413743836034,True,71.0,0.35,0.35,-1.7350000000000003,-1.7350000000000003,0,0,1,-0.185833436253647,0.056875,1.0,0.25,0.5,0.5,-2.0,-1.75,-0.75,0.0,0.0,1.0,-1.0,1.0,1,0,0
1.0,0.0,1.0,0.0,0.0,0.0,0.0,0.0,62.089939800003776,65.58391600000323,None,right,1.0316142000083346,68.46964840000146,kp4,62.089939800003776,65.58391600000323,68.46964840000146,None,True,4.0,['p'],False,0.4444444444444445,0.6666666666666666,0.3333333333333333,1.0,2.0,0.9656336071428248,0.064046602155505,unsucc_cost,1.0,2.0,,,kp4,1,2023-03-24_11h15.46.911,threat_forest,2021.2.3,60.052413743836034,True,1.0,0.4833333333333333,0.41666666666666663,-0.7877777777777778,-1.2613888888888891,1,1,1,0.031124759963598314,0.064046602155505,0.4444444444444445,0.4444444444444445,0.6666666666666666,0.6666666666666667,-0.3333333333333335,-0.5555555555555556,3.4444444444444446,3.4444444444444446,0.0,2.0,-1.0,4.0,0,1,1
1.0,0.0,1.0,0.0,1.0,0.0,1.0,0.0,,,,right,2.392077600001357,72.77486150001641,kp4,62.089939800003776,65.58391600000323,72.77486150001641,None,True,2.0,['p'],False,0.4444444444444445,0.6666666666666666,0.3333333333333333,1.0,2.0,0.9656336071428248,0.0635968883060148,figh_cost,1.0,0.0,71.53993330002413,None,kp4,1,2023-03-24_11h15.46.911,threat_forest,2021.2.3,60.052413743836034,True,1.0,0.4833333333333333,0.41666666666666663,-0.7877777777777778,-1.2613888888888891,1,1,1,0.8721622770343114,0.0635968883060148,0.4444444444444445,0.4444444444444445,0.6666666666666666,0.6666666666666667,-0.3333333333333335,-0.5555555555555556,1.4444444444444444,1.4444444444444444,0.0,2.0,-1.0,2.0,0,1,1
2.0,0.0,2.0,0.0,0.0,0.0,0.0,0.0,80.93320769999991,84.43098480001208,None,right,0.8591696000075899,88.1984511000046,kp4,88.1984511000046,None,80.93320769999991,84.43098480001208,False,5.0,['p'],True,0.1875,0.25,0.25,2.0,1.0,0.895754137500101,-0.0556173947611532,wait_cost,0.0,4.0,,,kp4,1,2023-03-24_11h15.46.911,threat_forest,2021.2.3,60.052413743836034,False,57.0,0.4583333333333333,0.4708333333333333,-1.34375,-1.065763888888889,0,0,0,-0.15178893759511725,-0.0556173947611532,0.1875,0.1875,0.25,0.75,-2.0,-1.6875,3.3125,3.3125,1.0,1.0,-1.0,5.0,0,0,0
2.0,0.0,2.0,0.0,1.0,0.0,1.0,0.0,,,,right,0.7454263999825343,93.2089352000039,kp4,89.07394150001346,91.08825380000053,93.2089352000039,None,True,4.0,['p'],False,0.4444444444444445,0.6666666666666666,0.3333333333333333,1.0,1.0,0.9656336071428248,0.0696956423465989,succ_gain,1.0,5.0,91.08825380000052,None,kp4,1,2023-03-24_11h15.46.911,threat_forest,2021.2.3,60.052413743836034,True,57.0,0.4583333333333333,0.4708333333333333,-1.34375,-1.065763888888889,1,0,1,-0.2937988753619339,0.0696956423465989,0.4444444444444445,0.4444444444444445,0.6666666666666666,0.6666666666666667,-1.0,-1.0,3.0,3.0,0.0,1.0,-1.0,4.0,0,0,1
2.0,0.0,2.0,0.0,2.0,0.0,2.0,0.0,,,,right,1.2252747000020463,96.79485000000568,kp4,96.79485000000568,None,93.98586700001032,96.00035480002407,False,5.0,['p'],True,0.1875,0.25,0.25,2.0,1.0,0.895754137500101,-0.1297984377601274,wait_cost,0.0,4.0,96.00035480002408,None,kp4,1,2023-03-24_11h15.46.911,threat_forest,2021.2.3,60.052413743836034,False,57.0,0.4583333333333333,0.4708333333333333,-1.34375,-1.065763888888889,0,0,0,0.20316506375719057,-0.1297984377601274,0.1875,0.1875,0.25,0.75,-2.0,-1.6875,3.3125,3.3125,1.0,1.0,1.0,5.0,0,0,0
2.0,0.0,2.0,0.0,3.0,0.0,3.0,0.0,,,,right,0.8781033999985084,103.75450360000832,kp4,98.04878219999956,100.0631970000104,103.75450360000832,None,True,4.0,['p'],False,0.4444444444444445,0.6666666666666666,0.3333333333333333,1.0,1.0,0.9656336071428248,0.0942586728156912,succ_gain,1.0,5.0,100.0631970000104,None,kp4,1,2023-03-24_11h15.46.911,threat_forest,2021.2.3,60.052413743836034,True,57.0,0.4583333333333333,0.4708333333333333,-1.34375,-1.065763888888889,1,0,1,-0.12999092462902626,0.0942586728156912,0.4444444444444445,0.4444444444444445,0.6666666666666666,0.6666666666666667,-1.0,-1.0,3.0,3.0,0.0,1.0,-1.0,4.0,0,0,1
2.0,0.0,2.0,0.0,4.0,0.0,4.0,0.0,,,,right,0.951067999994848,108.55414310001652,kp4,108.55414310001652,None,104.65929880001931,106.67370910002501,False,5.0,['p'],True,0.1875,0.25,0.25,2.0,1.0,0.895754137500101,-0.4657660590277778,wait_cost,0.0,4.0,106.673709100025,None,kp4,1,2023-03-24_11h15.46.911,threat_forest,2021.2.3,60.052413743836034,False,57.0,0.4583333333333333,0.4708333333333333,-1.34375,-1.065763888888889,0,0,0,-0.05016971531809359,-0.4657660590277778,0.0,0.1875,0.25,0.75,-2.0,-1.6875,3.3125,3.3125,1.0,1.0,1.0,5.0,0,0,0
2.0,0.0,2.0,0.0,5.0,0.0,5.0,0.0,,,,right,0.8639479000121355,113.47881020000204,kp4,113.47881020000204,None,104.65929880001931,106.67370910002501,False,4.0,['p'],True,0.1875,0.25,0.25,2.0,1.0,0.895754137500101,-0.5196397569444444,wait_cost,0.0,3.0,111.53584120000596,None,kp4,1,2023-03-24_11h15.46.911,threat_forest,2021.2.3,60.052413743836034,False,57.0,0.4583333333333333,0.4708333333333333,-1.34375,-1.065763888888889,0,0,0,-0.1462428129081347,-0.5196397569444444,0.0,0.1875,0.25,0.75,-2.0,-1.6875,2.3125,2.3125,1.0,1.0,-1.0,4.0,0,0,0
2.0,0.0,2.0,0.0,6.0,0.0,6.0,0.0,,,,right,0.4500262000074144,118.23661310001626,kp4,118.23661310001626,None,104.65929880001931,106.67370910002501,False,3.0,['p'],True,0.1875,0.25,0.25,2.0,1.0,0.895754137500101,-0.634765625,wait_cost,0.0,2.0,116.38129240000852,None,kp4,1,2023-03-24_11h15.46.911,threat_forest,2021.2.3,60.052413743836034,False,57.0,0.4583333333333333,0.4708333333333333,-1.34375,-1.065763888888889,0,0,0,-0.7984494756739218,-0.634765625,0.0,0.1875,0.25,0.75,-2.0,-1.6875,1.3125,1.3125,1.0,1.0,-1.0,3.0,0,0,0
2.0,0.0,2.0,0.0,7.0,0.0,7.0,0.0,,,,right,0.6964286000002176,122.10966410001856,kp4,122.10966410001856,None,104.65929880001931,106.67370910002501,False,2.0,['p'],True,0.1875,0.25,0.25,2.0,1.0,0.895754137500101,-0.8125,wait_cost,0.0,1.0,120.72724730000482,None,kp4,1,2023-03-24_11h15.46.911,threat_forest,2021.2.3,60.052413743836034,False,57.0,0.4583333333333333,0.4708333333333333,-1.34375,-1.065763888888889,0,0,0,-0.3617900035795502,-0.8125,0.0,0.1875,0.25,0.75,-2.0,-1.6875,0.3125,0.3125,1.0,1.0,-1.0,2.0,0,0,0
3.0,0.0,3.0,0.0,0.0,0.0,0.0,0.0,126.6749947000062,130.16655290001654,None,right,2.369038199976785,133.8578338000225,kp4,133.8578338000225,None,126.6749947000062,130.16655290001654,False,5.0,['r'],True,0.2,0.2,0.0,0.0,2.0,0.4554859150035951,0.0163295597102297,wait_cost,0.0,4.0,,,kp4,1,2023-03-24_11h15.46.911,threat_forest,2021.2.3,60.052413743836034,False,26.0,0.2111111111111111,0.3347222222222222,-1.3654320987654323,-1.3545910493827162,1,0,0,0.8624840499840787,0.0163295597102297,0.2,0.2,0.2,1.0,-1.2000000000000002,-1.2000000000000002,3.8,3.8,1.0,2.0,-1.0,5.0,0,0,1
3.0,0.0,3.0,0.0,1.0,0.0,1.0,0.0,,,,right,0.4625643999897875,141.5056317000126,kp4,136.2467760000145,138.26111140000285,141.5056317000126,None,True,4.0,['r'],False,0.1728395061728395,0.2222222222222222,0.2222222222222222,2.0,2.0,0.8571721972794328,0.003531029138176,unsucc_cost,1.0,2.0,138.26111140000285,None,kp4,1,2023-03-24_11h15.46.911,threat_forest,2021.2.3,60.052413743836034,True,26.0,0.2111111111111111,0.3347222222222222,-1.3654320987654323,-1.3545910493827162,0,0,1,-0.7709694885019325,0.003531029138176,0.1728395061728395,0.1728395061728395,0.2222222222222222,0.7777777777777778,-1.7777777777777777,-1.5308641975308643,2.4691358024691357,2.4691358024691357,0.0,2.0,-1.0,4.0,0,0,0
3.0,0.0,3.0,0.0,2.0,0.0,2.0,0.0,,,,right,0.9026751999917906,145.95694709999952,kp4,136.2467760000145,138.26111140000285,145.95694709999952,None,True,2.0,['r'],False,0.1728395061728395,0.2222222222222222,0.2222222222222222,2.0,2.0,0.8571721972794328,-0.0010957171162933,succ_gain,1.0,4.0,144.00574600000982,None,kp4,1,2023-03-24_11h15.46.911,threat_forest,2021.2.3,60.052413743836034,True,26.0,0.2111111111111111,0.3347222222222222,-1.3654320987654323,-1.3545910493827162,0,0,1,-0.102392480200663,-0.0010957171162933,0.1728395061728395,0.1728395061728395,0.2222222222222222,0.7777777777777778,-1.7777777777777777,-1.5308641975308643,0.46913580246913567,0.46913580246913567,0.0,2.0,-1.0,2.0,0,0,0
3.0,0.0,3.0,0.0,3.0,0.0,3.0,0.0,,,,left,1.3276743999740577,152.28984830001718,kp4,152.28984830001718,None,146.88676439999836,148.90093400000478,True,4.0,['r'],True,0.2,0.2,0.0,0.0,2.0,0.4554859150035951,0.0371940253010211,succ_gain,0.0,6.0,148.90093400000478,None,kp4,1,2023-03-24_11h15.46.911,threat_forest,2021.2.3,60.052413743836034,True,26.0,0.2111111111111111,0.3347222222222222,-1.3654320987654323,-1.3545910493827162,1,0,1,0.2834288402501036,0.0371940253010211,0.2,0.2,0.2,1.0,-1.2000000000000002,-1.2000000000000002,2.8,2.8,1.0,2.0,1.0,4.0,0,0,1
3.0,0.0,3.0,0.0,4.0,0.0,4.0,0.0,,,,left,0.6942115999991074,159.2532936000207,kp4,153.64702940001737,155.66138140001567,159.2532936000207,None,False,6.0,['r'],False,0.1728395061728395,0.2222222222222222,0.2222222222222222,2.0,2.0,0.8571721972794328,-0.1516946942369896,wait_cost,1.0,5.0,155.66138140001567,None,kp4,1,2023-03-24_11h15.46.911,threat_forest,2021.2.3,60.052413743836034,False,26.0,0.2111111111111111,0.3347222222222222,-1.3654320987654323,-1.3545910493827162,0,0,0,-0.364978465813467,-0.1516946942369896,0.0,0.1728395061728395,0.2222222222222222,0.7777777777777778,-1.7777777777777777,-1.5308641975308643,4.469135802469136,4.469135802469136,0.0,2.0,1.0,6.0,0,0,0
3.0,0.0,3.0,0.0,5.0,0.0,5.0,0.0,,,,right,0.7605026000237558,163.88020860002143,kp4,163.88020860002143,None,159.97465420002118,161.988846799999,False,5.0,['r'],True,0.2,0.2,0.0,0.0,2.0,0.4554859150035951,0.0,wait_cost,0.0,4.0,161.988846799999,None,kp4,1,2023-03-24_11h15.46.911,threat_forest,2021.2.3,60.052413743836034,False,26.0,0.2111111111111111,0.3347222222222222,-1.3654320987654323,-1.3545910493827162,1,0,0,-0.27377574845397784,0.0,0.0,0.2,0.2,1.0,-1.2000000000000002,-1.2000000000000002,3.8,3.8,1.0,2.0,-1.0,5.0,0,0,1
3.0,0.0,3.0,0.0,6.0,0.0,6.0,0.0,,,,right,0.5501906999852508,169.1016709000105,kp4,169.1016709000105,None,159.97465420002118,161.988846799999,False,4.0,['r'],True,0.2,0.2,0.0,0.0,2.0,0.4554859150035951,0.0,wait_cost,0.0,3.0,166.68440930001088,None,kp4,1,2023-03-24_11h15.46.911,threat_forest,2021.2.3,60.052413743836034,False,26.0,0.2111111111111111,0.3347222222222222,-1.3654320987654323,-1.3545910493827162,1,0,0,-0.5974903336057105,0.0,0.0,0.2,0.2,1.0,-1.2000000000000002,-1.2000000000000002,2.8,2.8,1.0,2.0,-1.0,4.0,0,0,1
3.0,0.0,3.0,0.0,7.0,0.0,7.0,0.0,,,,left,0.6015555000049062,172.9903578000085,kp4,169.6820277000079,171.69634490000317,172.9903578000085,None,False,3.0,['r'],False,0.1728395061728395,0.2222222222222222,0.2222222222222222,2.0,2.0,0.8571721972794328,-0.2222222222222222,wait_cost,1.0,2.0,171.69634490000317,None,kp4,1,2023-03-24_11h15.46.911,threat_forest,2021.2.3,60.052413743836034,False,26.0,0.2111111111111111,0.3347222222222222,-1.3654320987654323,-1.3545910493827162,0,0,0,-0.5082364784891168,-0.2222222222222222,0.0,0.1728395061728395,0.2222222222222222,0.7777777777777778,-1.7777777777777777,-1.5308641975308643,1.4691358024691357,1.4691358024691357,0.0,2.0,-1.0,3.0,0,0,0
4.0,0.0,4.0,0.0,0.0,0.0,0.0,0.0,179.2394264000177,182.7378497000027,None,left,1.812359400006244,183.86420860001817,kp4,179.2394264000177,182.7378497000027,183.86420860001817,None,False,5.0,['p'],False,0.2448979591836734,0.2857142857142857,0.1428571428571428,1.0,1.0,0.8400769154957735,-0.0059145108757046,wait_cost,1.0,4.0,,,kp4,1,2023-03-24_11h15.46.911,threat_forest,2021.2.3,60.052413743836034,False,69.0,0.39285714285714285,0.30198412698412697,-1.2665816326530612,-1.3160068657092467,0,0,0,0.5946295323274496,-0.0059145108757046,0.2448979591836734,0.2448979591836734,0.2857142857142857,0.8571428571428572,-1.5714285714285712,-1.4081632653061225,3.5918367346938775,3.5918367346938775,0.0,1.0,-1.0,5.0,0,0,0
4.0,0.0,4.0,0.0,1.0,0.0,1.0,0.0,,,,left,0.5753451000200585,189.67475790000756,kp4,189.67475790000756,None,185.70054980000717,187.71497250001994,True,4.0,['p'],True,0.375,0.5,0.25,1.0,1.0,0.9850568223215076,0.0514035096049941,succ_gain,0.0,5.0,187.71497250001997,None,kp4,1,2023-03-24_11h15.46.911,threat_forest,2021.2.3,60.052413743836034,True,69.0,0.39285714285714285,0.30198412698412697,-1.2665816326530612,-1.3160068657092467,1,1,1,-0.5527852442692125,0.0514035096049941,0.375,0.375,0.5,0.75,-1.25,-1.125,2.875,2.875,1.0,1.0,-1.0,4.0,0,1,1
4.0,0.0,4.0,0.0,2.0,0.0,2.0,0.0,,,,left,1.141721599997254,193.4824664000189,kp4,193.4824664000189,None,185.70054980000717,187.71497250001994,True,5.0,['p'],True,0.375,0.5,0.25,1.0,1.0,0.9850568223215076,0.0667717868390274,unsucc_cost,0.0,3.0,192.29404240002623,None,kp4,1,2023-03-24_11h15.46.911,threat_forest,2021.2.3,60.052413743836034,True,69.0,0.39285714285714285,0.30198412698412697,-1.2665816326530612,-1.3160068657092467,1,1,1,0.1325372986744195,0.0667717868390274,0.375,0.375,0.5,0.75,-1.25,-1.125,3.875,3.875,1.0,1.0,1.0,5.0,0,1,1
4.0,0.0,4.0,0.0,3.0,0.0,3.0,0.0,,,,left,0.7203189000138082,199.1216831000056,kp4,199.1216831000056,None,185.70054980000717,187.71497250001994,True,3.0,['p'],True,0.375,0.5,0.25,1.0,1.0,0.9850568223215076,0.0837610682139808,unsucc_cost,0.0,1.0,196.65650680000545,None,kp4,1,2023-03-24_11h15.46.911,threat_forest,2021.2.3,60.052413743836034,True,69.0,0.39285714285714285,0.30198412698412697,-1.2665816326530612,-1.3160068657092467,1,1,1,-0.32806124834483325,0.0837610682139808,0.375,0.375,0.5,0.75,-1.25,-1.125,1.875,1.875,1.0,1.0,-1.0,3.0,0,1,1
4.0,0.0,4.0,0.0,4.0,0.0,4.0,0.0,,,,left,0.5193591999995988,203.95024790000755,kp4,203.95024790000755,None,185.70054980000717,187.71497250001994,True,1.0,['p'],True,0.375,0.5,0.25,1.0,1.0,0.9850568223215076,0.1284279336734693,unsucc_cost,0.0,0.0,201.8851320000249,None,kp4,1,2023-03-24_11h15.46.911,threat_forest,2021.2.3,60.052413743836034,True,69.0,0.39285714285714285,0.30198412698412697,-1.2665816326530612,-1.3160068657092467,1,1,1,-0.6551595350152324,0.1284279336734693,1.0,0.375,0.5,0.75,-1.25,-1.125,-0.125,0.0,1.0,1.0,-1.0,1.0,1,1,1
5.0,0.0,5.0,0.0,0.0,0.0,0.0,0.0,208.6098037000047,212.11520730002667,None,left,0.6750524000090081,214.0695373000053,kp4,214.0695373000053,None,208.6098037000047,212.11520730002667,True,4.0,['p'],True,0.2592592592592592,0.3333333333333333,0.2222222222222222,2.0,2.0,0.9327883776363324,0.0060894858457368,succ_gain,0.0,6.0,,,kp4,1,2023-03-24_11h15.46.911,threat_forest,2021.2.3,60.052413743836034,True,31.0,0.41666666666666663,0.40476190476190477,-0.9675925925925928,-1.117087112622827,0,0,1,-0.39296496147965704,0.0060894858457368,0.2592592592592592,0.2592592592592592,0.3333333333333333,0.7777777777777778,-1.3333333333333335,-1.1851851851851856,2.8148148148148144,2.8148148148148144,1.0,2.0,-1.0,4.0,0,0,0
5.0,0.0,5.0,0.0,1.0,0.0,1.0,0.0,,,,left,0.8816824000095949,219.16385800001444,kp4,214.7806725000264,216.78760390001116,219.16385800001444,None,False,6.0,['p'],False,0.375,0.5,0.25,1.0,2.0,0.9850568223215076,-0.0708240996554554,wait_cost,1.0,5.0,216.7876039000112,None,kp4,1,2023-03-24_11h15.46.911,threat_forest,2021.2.3,60.052413743836034,False,31.0,0.41666666666666663,0.40476190476190477,-0.9675925925925928,-1.117087112622827,1,0,0,-0.1259233785156363,-0.0708240996554554,0.375,0.375,0.5,0.75,-0.75,-0.75,5.25,5.25,0.0,2.0,1.0,6.0,0,0,1
5.0,0.0,5.0,0.0,2.0,0.0,2.0,0.0,,,,right,0.517598199978238,225.14886070002103,kp4,214.7806725000264,216.78760390001116,225.14886070002103,None,True,5.0,['p'],False,0.375,0.5,0.25,1.0,2.0,0.9850568223215076,0.0581486540615872,succ_gain,1.0,6.0,222.0827210000134,None,kp4,1,2023-03-24_11h15.46.911,threat_forest,2021.2.3,60.052413743836034,True,31.0,0.41666666666666663,0.40476190476190477,-0.9675925925925928,-1.117087112622827,1,0,1,-0.658556013432409,0.0581486540615872,0.375,0.375,0.5,0.75,-0.75,-0.75,4.25,4.25,0.0,2.0,-1.0,5.0,0,0,1
5.0,0.0,5.0,0.0,3.0,0.0,3.0,0.0,,,,right,0.6571174999990035,229.2735969000205,kp4,229.2735969000205,None,225.69648540002527,227.71076290000929,False,6.0,['p'],True,0.2592592592592592,0.3333333333333333,0.2222222222222222,2.0,2.0,0.9327883776363324,-0.3553528504928111,wait_cost,0.0,5.0,227.71076290000929,None,kp4,1,2023-03-24_11h15.46.911,threat_forest,2021.2.3,60.052413743836034,False,31.0,0.41666666666666663,0.40476190476190477,-0.9675925925925928,-1.117087112622827,0,0,0,-0.41989243326279796,-0.3553528504928111,0.0,0.2592592592592592,0.3333333333333333,0.7777777777777778,-1.3333333333333335,-1.1851851851851856,4.814814814814815,4.814814814814815,1.0,2.0,1.0,6.0,0,0,0
5.0,0.0,5.0,0.0,4.0,0.0,4.0,0.0,,,,right,0.519092600006843,235.4760615999985,kp4,235.4760615999985,None,225.69648540002527,227.71076290000929,False,5.0,['p'],True,0.2592592592592592,0.3333333333333333,0.2222222222222222,2.0,2.0,0.9327883776363324,-0.4259358488289387,wait_cost,0.0,4.0,231.95677110002725,None,kp4,1,2023-03-24_11h15.46.911,threat_forest,2021.2.3,60.052413743836034,False,31.0,0.41666666666666663,0.40476190476190477,-0.9675925925925928,-1.117087112622827,0,0,0,-0.6556729916794922,-0.4259358488289387,0.0,0.2592592592592592,0.3333333333333333,0.7777777777777778,-1.3333333333333335,-1.1851851851851856,3.8148148148148144,3.8148148148148144,1.0,2.0,-1.0,5.0,0,0,0
5.0,0.0,5.0,0.0,5.0,0.0,5.0,0.0,,,,left,0.5674232000019401,239.12436590000289,kp4,236.0203245000157,238.03445730000385,239.12436590000289,None,False,4.0,['p'],False,0.375,0.5,0.25,1.0,2.0,0.9850568223215076,-0.4159432870370371,wait_cost,1.0,3.0,238.03445730000385,None,kp4,1,2023-03-24_11h15.46.911,threat_forest,2021.2.3,60.052413743836034,False,31.0,0.41666666666666663,0.40476190476190477,-0.9675925925925928,-1.117087112622827,1,0,0,-0.5666498691776203,-0.4159432870370371,0.0,0.375,0.5,0.75,-0.75,-0.75,3.25,3.25,0.0,2.0,-1.0,4.0,0,0,1
5.0,0.0,5.0,0.0,6.0,0.0,6.0,0.0,,,,left,0.5108410000102594,242.716204700002,kp4,236.0203245000157,238.03445730000385,242.716204700002,None,False,3.0,['p'],False,0.375,0.5,0.25,1.0,2.0,0.9850568223215076,-0.5060763888888888,wait_cost,1.0,2.0,241.73104850001985,None,kp4,1,2023-03-24_11h15.46.911,threat_forest,2021.2.3,60.052413743836034,False,31.0,0.41666666666666663,0.40476190476190477,-0.9675925925925928,-1.117087112622827,1,0,0,-0.6716968917758113,-0.5060763888888888,0.0,0.375,0.5,0.75,-0.75,-0.75,2.25,2.25,0.0,2.0,-1.0,3.0,0,0,1
5.0,0.0,5.0,0.0,7.0,0.0,7.0,0.0,,,,right,0.6870126000139862,248.0810934000183,kp4,248.0810934000183,None,243.2466165000224,245.26109980000183,False,2.0,['p'],True,0.2592592592592592,0.3333333333333333,0.2222222222222222,2.0,2.0,0.9327883776363324,-0.7407407407407408,wait_cost,0.0,1.0,245.26109980000183,None,kp4,1,2023-03-24_11h15.46.911,threat_forest,2021.2.3,60.052413743836034,False,31.0,0.41666666666666663,0.40476190476190477,-0.9675925925925928,-1.117087112622827,0,0,0,-0.3754026462962629,-0.7407407407407408,0.0,0.2592592592592592,0.3333333333333333,0.7777777777777778,-1.3333333333333335,-1.1851851851851856,0.8148148148148144,0.8148148148148144,1.0,2.0,-1.0,2.0,0,0,0
6.0,0.0,6.0,0.0,0.0,0.0,0.0,0.0,252.2951723000151,255.79769220002345,None,right,0.6442816999915522,256.7970827000099,kp4,252.2951723000151,255.79769220002345,256.7970827000099,None,True,4.0,['p'],False,0.24,0.4,0.4,2.0,2.0,0.9801625908629508,0.0188358143999999,unsucc_cost,1.0,2.0,,,kp4,1,2023-03-24_11h15.46.911,threat_forest,2021.2.3,60.052413743836034,True,65.0,0.30000000000000004,0.35833333333333334,-1.5000000000000002,-1.2337962962962965,0,0,1,-0.43961922617191823,0.0188358143999999,0.24,0.24,0.4,0.6,-1.6,-1.4400000000000002,2.5599999999999996,2.5599999999999996,0.0,2.0,-1.0,4.0,0,0,0
6.0,0.0,6.0,0.0,1.0,0.0,1.0,0.0,,,,right,1.709051100013312,262.1761308000132,kp4,262.1761308000132,None,257.4669451000227,259.48135970000294,False,2.0,['p'],True,0.16,0.2,0.2,2.0,2.0,0.8198746470064713,-0.00563328,wait_cost,0.0,1.0,259.48135970000294,None,kp4,1,2023-03-24_11h15.46.911,threat_forest,2021.2.3,60.052413743836034,False,65.0,0.30000000000000004,0.35833333333333334,-1.5000000000000002,-1.2337962962962965,0,0,0,0.5359383042208549,-0.00563328,0.16,0.16,0.2,0.8,-1.8000000000000003,-1.5600000000000003,0.4399999999999997,0.4399999999999997,1.0,2.0,-1.0,2.0,0,0,0
6.0,0.0,6.0,0.0,2.0,0.0,2.0,0.0,,,,right,0.5731191999802832,269.6960841000255,kp4,263.9110365000088,265.92540570002166,269.6960841000255,None,True,1.0,['p'],False,0.24,0.4,0.4,2.0,2.0,0.9801625908629508,0.0577919999999999,succ_gain,1.0,3.0,265.92540570002166,None,kp4,1,2023-03-24_11h15.46.911,threat_forest,2021.2.3,60.052413743836034,True,65.0,0.30000000000000004,0.35833333333333334,-1.5000000000000002,-1.2337962962962965,0,0,1,-0.5566615560133971,0.0577919999999999,1.0,0.24,0.4,0.6,-1.6,-1.4400000000000002,-0.44000000000000017,0.0,0.0,2.0,-1.0,1.0,1,0,0
6.0,0.0,6.0,0.0,3.0,0.0,3.0,0.0,,,,right,1.0595906000235118,274.39653320002253,kp4,274.39653320002253,None,270.2882532000076,272.3027294000203,False,3.0,['p'],True,0.16,0.2,0.2,2.0,2.0,0.8198746470064713,-0.0216000000000001,wait_cost,0.0,2.0,272.3027294000203,None,kp4,1,2023-03-24_11h15.46.911,threat_forest,2021.2.3,60.052413743836034,False,65.0,0.30000000000000004,0.35833333333333334,-1.5000000000000002,-1.2337962962962965,0,0,0,0.05788260712643895,-0.0216000000000001,0.16,0.16,0.2,0.8,-1.8000000000000003,-1.5600000000000003,1.4399999999999997,1.4399999999999997,1.0,2.0,1.0,3.0,0,0,0
6.0,0.0,6.0,0.0,4.0,0.0,4.0,0.0,,,,right,1.2067310999846086,279.53599260002375,kp4,279.53599260002375,None,270.2882532000076,272.3027294000203,False,2.0,['p'],True,0.16,0.2,0.2,2.0,2.0,0.8198746470064713,-0.04,wait_cost,0.0,1.0,277.49786230002064,None,kp4,1,2023-03-24_11h15.46.911,threat_forest,2021.2.3,60.052413743836034,False,65.0,0.30000000000000004,0.35833333333333334,-1.5000000000000002,-1.2337962962962965,0,0,0,0.18791513352125938,-0.04,0.16,0.16,0.2,0.8,-1.8000000000000003,-1.5600000000000003,0.4399999999999997,0.4399999999999997,1.0,2.0,-1.0,2.0,0,0,0
6.0,0.0,6.0,0.0,5.0,0.0,5.0,0.0,,,,left,0.746120299998438,283.6373281000124,kp4,283.6373281000124,None,270.2882532000076,272.3027294000203,True,1.0,['p'],True,0.16,0.2,0.2,2.0,2.0,0.8198746470064713,0.1599999999999999,unsucc_cost,0.0,0.0,282.77629890001845,None,kp4,1,2023-03-24_11h15.46.911,threat_forest,2021.2.3,60.052413743836034,True,65.0,0.30000000000000004,0.35833333333333334,-1.5000000000000002,-1.2337962962962965,0,0,1,-0.2928684317278552,0.1599999999999999,1.0,0.16,0.2,0.8,-1.8000000000000003,-1.5600000000000003,-0.5600000000000003,0.0,1.0,2.0,-1.0,1.0,1,0,0
7.0,0.0,7.0,0.0,0.0,0.0,0.0,0.0,289.5036937000113,293.0076722000085,None,right,1.0414773000229616,293.7804391000245,kp4,293.7804391000245,None,289.5036937000113,293.0076722000085,False,5.0,['p'],True,0.16,0.2,0.2,2.0,2.0,0.8198746470064713,-0.013191945967,wait_cost,0.0,4.0,,,kp4,1,2023-03-24_11h15.46.911,threat_forest,2021.2.3,60.052413743836034,False,8.0,0.35,0.325,-1.5300000000000002,-1.5150000000000001,0,0,0,0.0406401860161337,-0.013191945967,0.16,0.16,0.2,0.8,-1.8000000000000003,-1.5600000000000003,3.4399999999999995,3.4399999999999995,1.0,2.0,-1.0,5.0,0,0,0
7.0,0.0,7.0,0.0,1.0,0.0,1.0,0.0,,,,right,0.6330422000028193,297.57073000000673,kp4,294.849391100026,296.8631886000221,297.57073000000673,None,True,4.0,['p'],False,0.25,0.5,0.5,1.0,2.0,0.9463946303571862,0.039918694078125,succ_gain,1.0,6.0,296.8631886000221,None,kp4,1,2023-03-24_11h15.46.911,threat_forest,2021.2.3,60.052413743836034,True,8.0,0.35,0.325,-1.5300000000000002,-1.5150000000000001,1,0,1,-0.4572181923889641,0.039918694078125,0.25,0.25,0.5,0.5,-1.5,-1.5,2.5,2.5,0.0,2.0,-1.0,4.0,0,0,1
7.0,0.0,7.0,0.0,2.0,0.0,2.0,0.0,,,,right,0.5216103999991901,303.85581820001244,kp4,303.85581820001244,None,298.2288171000255,300.2434480000229,False,6.0,['p'],True,0.16,0.2,0.2,2.0,2.0,0.8198746470064713,0.0024176801249999,wait_cost,0.0,5.0,300.2434480000229,None,kp4,1,2023-03-24_11h15.46.911,threat_forest,2021.2.3,60.052413743836034,False,8.0,0.35,0.325,-1.5300000000000002,-1.5150000000000001,0,0,0,-0.650834329919712,0.0024176801249999,0.16,0.16,0.2,0.8,-1.8000000000000003,-1.5600000000000003,4.4399999999999995,4.4399999999999995,1.0,2.0,1.0,6.0,0,0,0
7.0,0.0,7.0,0.0,3.0,0.0,3.0,0.0,,,,right,0.3966284999914933,309.74125469999854,kp4,304.40101070000674,306.4043758000189,309.74125469999854,None,True,5.0,['p'],False,0.25,0.5,0.5,1.0,2.0,0.9463946303571862,0.05981875,figh_cost,1.0,2.0,306.4043758000189,None,kp4,1,2023-03-24_11h15.46.911,threat_forest,2021.2.3,60.052413743836034,True,8.0,0.35,0.325,-1.5300000000000002,-1.5150000000000001,1,0,1,-0.9247552046828098,0.05981875,0.25,0.25,0.5,0.5,-1.5,-1.5,3.5,3.5,0.0,2.0,-1.0,5.0,0,0,1
7.0,0.0,7.0,0.0,4.0,0.0,4.0,0.0,,,,right,0.3836901000177022,315.72890510002617,kp4,304.40101070000674,306.4043758000189,315.72890510002617,None,True,2.0,['p'],False,0.25,0.5,0.5,1.0,2.0,0.9463946303571862,0.045,succ_gain,1.0,4.0,312.18207960002474,None,kp4,1,2023-03-24_11h15.46.911,threat_forest,2021.2.3,60.052413743836034,True,8.0,0.35,0.325,-1.5300000000000002,-1.5150000000000001,1,0,1,-0.9579200834233051,0.045,0.25,0.25,0.5,0.5,-1.5,-1.5,0.5,0.5,0.0,2.0,-1.0,2.0,0,0,1
7.0,0.0,7.0,0.0,5.0,0.0,5.0,0.0,,,,left,0.6941211000084877,320.4106869000243,kp4,304.40101070000674,306.4043758000189,320.4106869000243,None,False,4.0,['p'],False,0.25,0.5,0.5,1.0,2.0,0.9463946303571862,-0.590625,wait_cost,1.0,3.0,318.15973050001776,None,kp4,1,2023-03-24_11h15.46.911,threat_forest,2021.2.3,60.052413743836034,False,8.0,0.35,0.325,-1.5300000000000002,-1.5150000000000001,1,0,0,-0.365108838008471,-0.590625,0.0,0.25,0.5,0.5,-1.5,-1.5,2.5,2.5,0.0,2.0,1.0,4.0,0,0,1
7.0,0.0,7.0,0.0,6.0,0.0,6.0,0.0,,,,right,0.426200499990955,323.8355885000201,kp4,323.8355885000201,None,321.1239201000135,323.1384155000269,False,3.0,['p'],True,0.16,0.2,0.2,2.0,2.0,0.8198746470064713,-0.7088000000000001,wait_cost,0.0,2.0,323.1384155000269,None,kp4,1,2023-03-24_11h15.46.911,threat_forest,2021.2.3,60.052413743836034,False,8.0,0.35,0.325,-1.5300000000000002,-1.5150000000000001,0,0,0,-0.8528453861813892,-0.7088000000000001,0.0,0.16,0.2,0.8,-1.8000000000000003,-1.5600000000000003,1.4399999999999997,1.4399999999999997,1.0,2.0,-1.0,3.0,0,0,0
7.0,0.0,7.0,0.0,7.0,0.0,7.0,0.0,,,,left,1.178486899996642,328.65439820001484,kp4,324.2899217000231,326.30211540000164,328.65439820001484,None,False,2.0,['p'],False,0.25,0.5,0.5,1.0,2.0,0.9463946303571862,-0.75,wait_cost,1.0,1.0,326.30211540000164,None,kp4,1,2023-03-24_11h15.46.911,threat_forest,2021.2.3,60.052413743836034,False,8.0,0.35,0.325,-1.5300000000000002,-1.5150000000000001,1,0,0,0.1642313275042166,-0.75,0.0,0.25,0.5,0.5,-1.5,-1.5,0.5,0.5,0.0,2.0,-1.0,2.0,0,0,1
8.0,0.0,8.0,0.0,0.0,0.0,0.0,0.0,335.5784502000024,339.0798771000118,None,right,0.7799960999982432,341.48139070000616,kp4,335.5784502000024,339.0798771000118,341.48139070000616,None,True,5.0,['p'],False,0.32,0.4,0.2,1.0,1.0,0.9455672104350704,0.029786704162101,unsucc_cost,1.0,3.0,,,kp4,1,2023-03-24_11h15.46.911,threat_forest,2021.2.3,60.052413743836034,True,48.0,0.3111111111111111,0.33055555555555555,-1.3792592592592592,-1.4546296296296297,1,0,1,-0.24846635931325206,0.029786704162101,0.32,0.32,0.4,0.8,-1.4,-1.24,3.76,3.76,0.0,1.0,-1.0,5.0,0,0,1
8.0,0.0,8.0,0.0,1.0,0.0,1.0,0.0,,,,right,1.01740080001764,345.114069800009,kp4,345.114069800009,None,342.2876630000246,344.30205720002414,False,3.0,['p'],True,0.1975308641975308,0.2222222222222222,0.1111111111111111,1.0,1.0,0.7461067557824965,0.0102042008928614,wait_cost,0.0,2.0,344.30205720002414,None,kp4,1,2023-03-24_11h15.46.911,threat_forest,2021.2.3,60.052413743836034,False,48.0,0.3111111111111111,0.33055555555555555,-1.3792592592592592,-1.4546296296296297,0,0,0,0.017251139741622398,0.0102042008928614,0.1975308641975308,0.1975308641975308,0.2222222222222222,0.8888888888888888,-1.6666666666666667,-1.5185185185185184,1.4814814814814816,1.4814814814814816,1.0,1.0,-1.0,3.0,0,0,0
8.0,0.0,8.0,0.0,2.0,0.0,2.0,0.0,,,,right,0.900250100006815,350.67244150000624,kp4,350.67244150000624,None,342.2876630000246,344.30205720002414,False,2.0,['p'],True,0.1975308641975308,0.2222222222222222,0.1111111111111111,1.0,1.0,0.7461067557824965,0.0037858795279334,wait_cost,0.0,1.0,348.16589780000504,None,kp4,1,2023-03-24_11h15.46.911,threat_forest,2021.2.3,60.052413743836034,False,48.0,0.3111111111111111,0.33055555555555555,-1.3792592592592592,-1.4546296296296297,0,0,0,-0.10508266536533295,0.0037858795279334,0.1975308641975308,0.1975308641975308,0.2222222222222222,0.8888888888888888,-1.6666666666666667,-1.5185185185185184,0.4814814814814816,0.4814814814814816,1.0,1.0,-1.0,2.0,0,0,0
8.0,0.0,8.0,0.0,3.0,0.0,3.0,0.0,,,,right,0.478139300015755,356.86516590000247,kp4,351.5955768999993,353.6100674000045,356.86516590000247,None,True,1.0,['p'],False,0.32,0.4,0.2,1.0,1.0,0.9455672104350704,0.0339764324116506,unsucc_cost,1.0,0.0,353.6100674000045,None,kp4,1,2023-03-24_11h15.46.911,threat_forest,2021.2.3,60.052413743836034,True,48.0,0.3111111111111111,0.33055555555555555,-1.3792592592592592,-1.4546296296296297,1,0,1,-0.7378531663189043,0.0339764324116506,1.0,0.32,0.4,0.8,-1.4,-1.24,-0.24,0.0,0.0,1.0,-1.0,1.0,1,0,1
9.0,0.0,9.0,0.0,0.0,0.0,0.0,0.0,362.8488616000104,366.35164100001566,None,left,0.3546432000002824,367.70656750001945,kp4,367.70656750001945,None,362.8488616000104,366.35164100001566,True,5.0,['p'],True,0.4444444444444445,0.6666666666666666,0.3333333333333333,1.0,2.0,0.9656336071428248,0.0253010211857948,unsucc_cost,0.0,3.0,,,kp4,1,2023-03-24_11h15.46.911,threat_forest,2021.2.3,60.052413743836034,True,25.0,0.4444444444444444,0.37777777777777777,-0.8333333333333334,-1.1062962962962963,1,1,1,-1.0366430653504222,0.0253010211857948,0.4444444444444445,0.4444444444444445,0.6666666666666666,0.6666666666666667,-0.3333333333333335,-0.5555555555555556,4.444444444444445,4.444444444444445,1.0,2.0,-1.0,5.0,0,1,1
9.0,0.0,9.0,0.0,1.0,0.0,1.0,0.0,,,,left,0.9595749999862164,371.45160820000456,kp4,368.0801117000228,370.0946721000073,371.45160820000456,None,False,3.0,['p'],False,0.2222222222222222,0.2222222222222222,0.0,0.0,2.0,0.4821593609696809,0.0363511659807955,wait_cost,1.0,2.0,370.0946721000073,None,kp4,1,2023-03-24_11h15.46.911,threat_forest,2021.2.3,60.052413743836034,False,25.0,0.4444444444444444,0.37777777777777777,-0.8333333333333334,-1.1062962962962963,0,0,0,-0.041264800892218755,0.0363511659807955,0.2222222222222222,0.2222222222222222,0.2222222222222222,1.0,-1.1111111111111112,-1.1111111111111112,1.8888888888888888,1.8888888888888888,0.0,2.0,-1.0,3.0,0,0,0
9.0,0.0,9.0,0.0,2.0,0.0,2.0,0.0,,,,right,0.6348834999953397,376.5433194000216,kp4,368.0801117000228,370.0946721000073,376.5433194000216,None,True,2.0,['p'],False,0.2222222222222222,0.2222222222222222,0.0,0.0,2.0,0.4821593609696809,-0.0432098765432099,unsucc_cost,1.0,0.0,374.45738790000905,None,kp4,1,2023-03-24_11h15.46.911,threat_forest,2021.2.3,60.052413743836034,True,25.0,0.4444444444444444,0.37777777777777777,-0.8333333333333334,-1.1062962962962963,0,0,1,-0.4543137614953974,-0.0432098765432099,0.2222222222222222,0.2222222222222222,0.2222222222222222,1.0,-1.1111111111111112,-1.1111111111111112,0.8888888888888888,0.8888888888888888,0.0,2.0,-1.0,2.0,0,0,0
10.0,0.0,10.0,0.0,0.0,0.0,0.0,0.0,382.7103781000187,386.213084100018,None,left,0.8696314999833703,389.6699267000077,kp4,382.7103781000187,386.213084100018,389.6699267000077,None,False,5.0,['r'],False,0.2222222222222222,0.6666666666666666,0.6666666666666666,2.0,2.0,0.77250688571426,-0.023281607963558,wait_cost,1.0,4.0,,,kp4,1,2023-03-24_11h15.46.911,threat_forest,2021.2.3,60.052413743836034,False,34.0,0.4583333333333333,0.45138888888888884,-1.3888888888888888,-1.1111111111111112,0,0,0,-0.13968572029925908,-0.023281607963558,0.2222222222222222,0.2222222222222222,0.6666666666666666,0.33333333333333337,-1.3333333333333335,-1.777777777777778,3.2222222222222223,3.2222222222222223,0.0,2.0,-1.0,5.0,0,0,0
10.0,0.0,10.0,0.0,1.0,0.0,1.0,0.0,,,,left,0.8716886000183877,393.79239320001216,kp4,382.7103781000187,386.213084100018,393.79239320001216,None,False,4.0,['r'],False,0.2222222222222222,0.6666666666666666,0.6666666666666666,2.0,2.0,0.77250688571426,0.0213204889540228,wait_cost,1.0,3.0,392.5738283000246,None,kp4,1,2023-03-24_11h15.46.911,threat_forest,2021.2.3,60.052413743836034,False,34.0,0.4583333333333333,0.45138888888888884,-1.3888888888888888,-1.1111111111111112,0,0,0,-0.1373230289227996,0.0213204889540228,0.2222222222222222,0.2222222222222222,0.6666666666666666,0.33333333333333337,-1.3333333333333335,-1.777777777777778,2.2222222222222223,2.2222222222222223,0.0,2.0,-1.0,4.0,0,0,0
10.0,0.0,10.0,0.0,2.0,0.0,2.0,0.0,,,,left,0.6680676999967545,400.4196112000209,kp4,382.7103781000187,386.213084100018,400.4196112000209,None,False,3.0,['r'],False,0.2222222222222222,0.6666666666666666,0.6666666666666666,2.0,2.0,0.77250688571426,0.0126119601146929,wait_cost,1.0,2.0,396.7034257000196,None,kp4,1,2023-03-24_11h15.46.911,threat_forest,2021.2.3,60.052413743836034,False,34.0,0.4583333333333333,0.45138888888888884,-1.3888888888888888,-1.1111111111111112,0,0,0,-0.4033657632802513,0.0126119601146929,0.2222222222222222,0.2222222222222222,0.6666666666666666,0.33333333333333337,-1.3333333333333335,-1.777777777777778,1.222222222222222,1.222222222222222,0.0,2.0,-1.0,3.0,0,0,0
10.0,0.0,10.0,0.0,3.0,0.0,3.0,0.0,,,,left,0.3587861999985762,406.30004710002686,kp4,406.30004710002686,None,401.1162286000035,403.130711100006,True,2.0,['r'],True,0.25,0.25,0.0,0.0,2.0,0.5118595071429148,0.0251146690672153,succ_gain,0.0,4.0,403.130711100006,None,kp4,1,2023-03-24_11h15.46.911,threat_forest,2021.2.3,60.052413743836034,True,34.0,0.4583333333333333,0.45138888888888884,-1.3888888888888888,-1.1111111111111112,1,0,1,-1.0250286110795899,0.0251146690672153,0.25,0.25,0.25,1.0,-1.0,-1.0,1.0,1.0,1.0,2.0,-1.0,2.0,0,0,1
10.0,0.0,10.0,0.0,4.0,0.0,4.0,0.0,,,,left,1.0262101000116672,411.4478076000232,kp4,406.6777093000128,408.6921472000249,411.4478076000232,None,False,4.0,['r'],False,0.2222222222222222,0.6666666666666666,0.6666666666666666,2.0,2.0,0.77250688571426,0.0688657407407408,wait_cost,1.0,3.0,408.6921472000249,None,kp4,1,2023-03-24_11h15.46.911,threat_forest,2021.2.3,60.052413743836034,False,34.0,0.4583333333333333,0.45138888888888884,-1.3888888888888888,-1.1111111111111112,0,0,0,0.025872501624698976,0.0688657407407408,0.2222222222222222,0.2222222222222222,0.6666666666666666,0.33333333333333337,-1.3333333333333335,-1.777777777777778,2.2222222222222223,2.2222222222222223,0.0,2.0,1.0,4.0,0,0,0
10.0,0.0,10.0,0.0,5.0,0.0,5.0,0.0,,,,left,0.4097071999858599,415.9095743000216,kp4,415.9095743000216,None,412.5056489000272,414.5200471999997,True,3.0,['r'],True,0.25,0.25,0.0,0.0,2.0,0.5118595071429148,0.1840277777777776,succ_gain,0.0,5.0,414.5200471999997,None,kp4,1,2023-03-24_11h15.46.911,threat_forest,2021.2.3,60.052413743836034,True,34.0,0.4583333333333333,0.45138888888888884,-1.3888888888888888,-1.1111111111111112,1,0,1,-0.8923125207837292,0.1840277777777776,0.25,0.25,0.25,1.0,-1.0,-1.0,2.0,2.0,1.0,2.0,-1.0,3.0,0,0,1
10.0,0.0,10.0,0.0,6.0,0.0,6.0,0.0,,,,left,0.6600346000050195,421.7737880000204,kp4,416.3520228000125,418.3664700000081,421.7737880000204,None,False,5.0,['r'],False,0.2222222222222222,0.6666666666666666,0.6666666666666666,2.0,2.0,0.77250688571426,0.0,wait_cost,1.0,4.0,418.3664700000081,None,kp4,1,2023-03-24_11h15.46.911,threat_forest,2021.2.3,60.052413743836034,False,34.0,0.4583333333333333,0.45138888888888884,-1.3888888888888888,-1.1111111111111112,0,0,0,-0.4154630210857393,0.0,0.0,0.2222222222222222,0.6666666666666666,0.33333333333333337,-1.3333333333333335,-1.777777777777778,3.2222222222222223,3.2222222222222223,0.0,2.0,1.0,5.0,0,0,0
10.0,0.0,10.0,0.0,7.0,0.0,7.0,0.0,,,,right,0.7021267999953125,425.3177817000251,kp4,425.3177817000251,None,422.4631207000057,424.4774751000223,False,4.0,['r'],True,0.25,0.25,0.0,0.0,2.0,0.5118595071429148,0.0,wait_cost,0.0,3.0,424.4774751000223,None,kp4,1,2023-03-24_11h15.46.911,threat_forest,2021.2.3,60.052413743836034,False,34.0,0.4583333333333333,0.45138888888888884,-1.3888888888888888,-1.1111111111111112,1,0,0,-0.3536412644934282,0.0,0.0,0.25,0.25,1.0,-1.0,-1.0,3.0,3.0,1.0,2.0,-1.0,4.0,0,0,1
11.0,0.0,11.0,0.0,0.0,0.0,0.0,0.0,431.5988467000134,435.1013119000127,None,right,0.6680440999916755,435.8606072000112,kp4,431.5988467000134,435.10131190001266,435.8606072000112,None,True,5.0,['r'],False,0.5,0.5,0.0,0.0,1.0,0.6309297535714574,0.07495910506875,unsucc_cost,1.0,3.0,,,kp4,1,2023-03-24_11h15.46.911,threat_forest,2021.2.3,60.052413743836034,True,24.0,0.55,0.5041666666666667,-0.9100000000000001,-1.1494444444444445,1,0,1,-0.4034010896729704,0.07495910506875,0.5,0.5,0.5,1.0,-0.5,-0.5,4.5,4.5,0.0,1.0,-1.0,5.0,0,0,1
11.0,0.0,11.0,0.0,1.0,0.0,1.0,0.0,,,,left,0.6333085999940522,440.1048373000231,kp4,440.1048373000231,None,436.5498699000164,438.5643012000073,True,3.0,['r'],True,0.36,0.6,0.4,2.0,1.0,0.9801625908629508,0.0196917849999999,figh_cost,0.0,0.0,438.5643012000073,None,kp4,1,2023-03-24_11h15.46.911,threat_forest,2021.2.3,60.052413743836034,True,24.0,0.55,0.5041666666666667,-0.9100000000000001,-1.1494444444444445,0,0,1,-0.45679745589925935,0.0196917849999999,0.36,0.36,0.6,0.6,-1.4000000000000004,-1.3200000000000003,1.6799999999999997,1.6799999999999997,1.0,1.0,-1.0,3.0,0,0,0
12.0,0.0,12.0,0.0,0.0,0.0,0.0,0.0,446.31856130002416,449.82055760000367,None,right,0.5989971999952104,452.1589666000218,kp4,446.31856130002416,449.82055760000367,452.1589666000218,None,True,5.0,['r'],False,0.5,0.5,0.0,0.0,1.0,0.6309297535714574,0.0772781267414693,unsucc_cost,1.0,3.0,,,kp4,1,2023-03-24_11h15.46.911,threat_forest,2021.2.3,60.052413743836034,True,30.0,0.5833333333333333,0.5666666666666667,-1.25,-1.08,1,0,1,-0.5124983553430381,0.0772781267414693,0.5,0.5,0.5,1.0,-0.5,-0.5,4.5,4.5,0.0,1.0,-1.0,5.0,0,0,1
12.0,0.0,12.0,0.0,1.0,0.0,1.0,0.0,,,,right,1.3741688999871258,457.687616900017,kp4,457.687616900017,None,452.78474270002334,454.7991862000199,False,3.0,['r'],True,0.2222222222222222,0.6666666666666666,0.6666666666666666,2.0,1.0,0.77250688571426,-0.0235801665380659,wait_cost,0.0,2.0,454.7991862000199,None,kp4,1,2023-03-24_11h15.46.911,threat_forest,2021.2.3,60.052413743836034,False,30.0,0.5833333333333333,0.5666666666666667,-1.25,-1.08,0,0,0,0.31784911200022836,-0.0235801665380659,0.2222222222222222,0.2222222222222222,0.6666666666666666,0.33333333333333337,-2.0,-2.0,1.0,1.0,1.0,1.0,-1.0,3.0,0,0,0
12.0,0.0,12.0,0.0,2.0,0.0,2.0,0.0,,,,right,0.8433081000111997,462.3090270000103,kp4,462.3090270000103,None,452.78474270002334,454.7991862000199,False,2.0,['r'],True,0.2222222222222222,0.6666666666666666,0.6666666666666666,2.0,1.0,0.77250688571426,-0.0102184070644718,wait_cost,0.0,1.0,461.09335640000063,None,kp4,1,2023-03-24_11h15.46.911,threat_forest,2021.2.3,60.052413743836034,False,30.0,0.5833333333333333,0.5666666666666667,-1.25,-1.08,0,0,0,-0.17042290731165724,-0.0102184070644718,0.2222222222222222,0.2222222222222222,0.6666666666666666,0.33333333333333337,-2.0,-2.0,0.0,0.0,1.0,1.0,-1.0,2.0,0,0,0
12.0,0.0,12.0,0.0,3.0,0.0,3.0,0.0,,,,left,0.7034745000128169,468.1885233000212,kp4,468.1885233000212,None,452.78474270002334,454.7991862000199,True,1.0,['r'],True,0.2222222222222222,0.6666666666666666,0.6666666666666666,2.0,1.0,0.77250688571426,0.0481395747599451,succ_gain,0.0,2.0,465.18947340000886,None,kp4,1,2023-03-24_11h15.46.911,threat_forest,2021.2.3,60.052413743836034,True,30.0,0.5833333333333333,0.5666666666666667,-1.25,-1.08,0,0,1,-0.35172365040117926,0.0481395747599451,1.0,0.2222222222222222,0.6666666666666666,0.33333333333333337,-2.0,-2.0,-1.0,0.0,1.0,1.0,-1.0,1.0,1,0,0
12.0,0.0,12.0,0.0,4.0,0.0,4.0,0.0,,,,left,0.5210813000157941,472.2012047000171,kp4,472.2012047000171,None,452.78474270002334,454.7991862000199,True,2.0,['r'],True,0.2222222222222222,0.6666666666666666,0.6666666666666666,2.0,1.0,0.77250688571426,-0.0320216049382716,figh_cost,0.0,0.0,470.9341056000266,None,kp4,1,2023-03-24_11h15.46.911,threat_forest,2021.2.3,60.052413743836034,True,30.0,0.5833333333333333,0.5666666666666667,-1.25,-1.08,0,0,1,-0.6518492033071216,-0.0320216049382716,0.2222222222222222,0.2222222222222222,0.6666666666666666,0.33333333333333337,-2.0,-2.0,0.0,0.0,1.0,1.0,1.0,2.0,0,0,0
13.0,0.0,13.0,0.0,0.0,0.0,0.0,0.0,477.88987530002487,481.390769700025,None,right,0.610177599999588,484.0622379000124,kp4,477.88987530002487,481.390769700025,484.0622379000124,None,True,4.0,['r'],False,0.5,0.5,0.0,0.0,1.0,0.6309297535714574,0.0773127614393294,succ_gain,1.0,5.0,,,kp4,1,2023-03-24_11h15.46.911,threat_forest,2021.2.3,60.052413743836034,True,27.0,0.5357142857142857,0.5595238095238095,-0.7806122448979592,-1.0153061224489797,1,0,1,-0.4940052166496923,0.0773127614393294,0.5,0.5,0.5,1.0,-0.5,-0.5,3.5,3.5,0.0,1.0,-1.0,4.0,0,0,1
13.0,0.0,13.0,0.0,1.0,0.0,1.0,0.0,,,,right,0.3868260000017471,489.70252460002666,kp4,477.88987530002487,481.390769700025,489.70252460002666,None,True,5.0,['r'],False,0.5,0.5,0.0,0.0,1.0,0.6309297535714574,0.0962918585884503,unsucc_cost,1.0,3.0,486.7191569000133,None,kp4,1,2023-03-24_11h15.46.911,threat_forest,2021.2.3,60.052413743836034,True,27.0,0.5357142857142857,0.5595238095238095,-0.7806122448979592,-1.0153061224489797,1,0,1,-0.9497802994569028,0.0962918585884503,0.5,0.5,0.5,1.0,-0.5,-0.5,4.5,4.5,0.0,1.0,1.0,5.0,0,0,1
13.0,0.0,13.0,0.0,2.0,0.0,2.0,0.0,,,,right,0.5210894000192638,495.178183400014,kp4,477.88987530002487,481.390769700025,495.178183400014,None,True,3.0,['r'],False,0.5,0.5,0.0,0.0,1.0,0.6309297535714574,0.1200795179904086,unsucc_cost,1.0,1.0,492.1308829000045,None,kp4,1,2023-03-24_11h15.46.911,threat_forest,2021.2.3,60.052413743836034,True,27.0,0.5357142857142857,0.5595238095238095,-0.7806122448979592,-1.0153061224489797,1,0,1,-0.651833658822001,0.1200795179904086,0.5,0.5,0.5,1.0,-0.5,-0.5,2.5,2.5,0.0,1.0,-1.0,3.0,0,0,1
13.0,0.0,13.0,0.0,3.0,0.0,3.0,0.0,,,,left,0.646740399999544,501.26677930000005,kp4,501.26677930000005,None,495.727690700005,497.7423001000134,True,1.0,['r'],True,0.4081632653061224,0.5714285714285714,0.2857142857142857,2.0,1.0,0.9885754083994552,0.1180805612370661,figh_cost,0.0,0.0,497.7423001000134,None,kp4,1,2023-03-24_11h15.46.911,threat_forest,2021.2.3,60.052413743836034,True,27.0,0.5357142857142857,0.5595238095238095,-0.7806122448979592,-1.0153061224489797,0,0,1,-0.4358103014748779,0.1180805612370661,1.0,0.4081632653061224,0.5714285714285714,0.7142857142857143,-1.1428571428571428,-1.0612244897959184,-0.061224489795918435,0.0,1.0,1.0,-1.0,1.0,1,0,0
14.0,0.0,14.0,0.0,0.0,0.0,0.0,0.0,507.1938993000076,510.69674390001455,None,left,0.6189587999833748,512.8253232999996,kp4,512.8253232999996,None,507.1938993000076,510.69674390001455,True,5.0,['r'],True,0.36,0.6,0.4,2.0,2.0,0.9801625908629508,-0.0333353473,succ_gain,0.0,6.0,,,kp4,1,2023-03-24_11h15.46.911,threat_forest,2021.2.3,60.052413743836034,True,67.0,0.55,0.5428571428571429,-0.4800000000000001,-0.6303061224489797,0,0,1,-0.4797165675056215,-0.0333353473,0.36,0.36,0.6,0.6,-0.8000000000000003,-0.9600000000000002,4.04,4.04,1.0,2.0,-1.0,5.0,0,0,0
14.0,0.0,14.0,0.0,1.0,0.0,1.0,0.0,,,,right,0.7441425999859348,516.1464966000058,kp4,516.1464966000058,None,507.1938993000076,510.69674390001455,False,6.0,['r'],True,0.36,0.6,0.4,2.0,2.0,0.9801625908629508,-0.1255866,wait_cost,0.0,5.0,515.4758563000069,None,kp4,1,2023-03-24_11h15.46.911,threat_forest,2021.2.3,60.052413743836034,False,67.0,0.55,0.5428571428571429,-0.4800000000000001,-0.6303061224489797,0,0,0,-0.2955225958669886,-0.1255866,0.36,0.36,0.6,0.6,-0.8000000000000003,-0.9600000000000002,5.04,5.04,1.0,2.0,1.0,6.0,0,0,0
14.0,0.0,14.0,0.0,2.0,0.0,2.0,0.0,,,,right,0.6500063000130467,519.5773086000117,kp4,516.9080202000041,518.9224813000183,519.5773086000117,None,True,5.0,['r'],False,0.5,0.5,0.0,0.0,2.0,0.6309297535714574,0.1117124999999999,succ_gain,1.0,6.0,518.9224813000183,None,kp4,1,2023-03-24_11h15.46.911,threat_forest,2021.2.3,60.052413743836034,True,67.0,0.55,0.5428571428571429,-0.4800000000000001,-0.6303061224489797,1,0,1,-0.4307732238116604,0.1117124999999999,0.5,0.5,0.5,1.0,0.0,0.0,5.0,5.0,0.0,2.0,-1.0,5.0,0,0,1
14.0,0.0,14.0,0.0,3.0,0.0,3.0,0.0,,,,right,0.9828158000018448,523.4488926000195,kp4,523.4488926000195,None,520.2549636000185,522.269355700002,False,6.0,['r'],True,0.36,0.6,0.4,2.0,2.0,0.9801625908629508,-0.238868,wait_cost,0.0,5.0,522.269355700002,None,kp4,1,2023-03-24_11h15.46.911,threat_forest,2021.2.3,60.052413743836034,False,67.0,0.55,0.5428571428571429,-0.4800000000000001,-0.6303061224489797,0,0,0,-0.017333561946385266,-0.238868,0.0,0.36,0.6,0.6,-0.8000000000000003,-0.9600000000000002,5.04,5.04,1.0,2.0,1.0,6.0,0,0,0
14.0,0.0,14.0,0.0,4.0,0.0,4.0,0.0,,,,left,0.4710184000141453,529.1875913000258,kp4,524.4510202000092,526.4654848000209,529.1875913000258,None,False,5.0,['r'],False,0.5,0.5,0.0,0.0,2.0,0.6309297535714574,-0.205,wait_cost,1.0,4.0,526.4654848000209,None,kp4,1,2023-03-24_11h15.46.911,threat_forest,2021.2.3,60.052413743836034,False,67.0,0.55,0.5428571428571429,-0.4800000000000001,-0.6303061224489797,1,0,0,-0.7528581198813274,-0.205,0.0,0.5,0.5,1.0,0.0,0.0,5.0,5.0,0.0,2.0,-1.0,5.0,0,0,1
14.0,0.0,14.0,0.0,5.0,0.0,5.0,0.0,,,,left,0.7600927000166848,534.6941121000273,kp4,524.4510202000092,526.4654848000209,534.6941121000273,None,False,4.0,['r'],False,0.5,0.5,0.0,0.0,2.0,0.6309297535714574,-0.2675,wait_cost,1.0,3.0,531.6939172999992,None,kp4,1,2023-03-24_11h15.46.911,threat_forest,2021.2.3,60.052413743836034,False,67.0,0.55,0.5428571428571429,-0.4800000000000001,-0.6303061224489797,1,0,0,-0.2743148794337837,-0.2675,0.0,0.5,0.5,1.0,0.0,0.0,4.0,4.0,0.0,2.0,-1.0,4.0,0,0,1
14.0,0.0,14.0,0.0,6.0,0.0,6.0,0.0,,,,left,0.698086600023089,540.6357928000216,kp4,524.4510202000092,526.4654848000209,540.6357928000216,None,False,3.0,['r'],False,0.5,0.5,0.0,0.0,2.0,0.6309297535714574,-0.285,wait_cost,1.0,2.0,537.4884971000138,None,kp4,1,2023-03-24_11h15.46.911,threat_forest,2021.2.3,60.052413743836034,False,67.0,0.55,0.5428571428571429,-0.4800000000000001,-0.6303061224489797,1,0,0,-0.35941211511467464,-0.285,0.0,0.5,0.5,1.0,0.0,0.0,3.0,3.0,0.0,2.0,-1.0,3.0,0,0,1
14.0,0.0,14.0,0.0,7.0,0.0,7.0,0.0,,,,left,0.6572330000053626,545.0156774000206,kp4,524.4510202000092,526.4654848000209,545.0156774000206,None,False,2.0,['r'],False,0.5,0.5,0.0,0.0,2.0,0.6309297535714574,-0.5,wait_cost,1.0,1.0,543.3663993000227,None,kp4,1,2023-03-24_11h15.46.911,threat_forest,2021.2.3,60.052413743836034,False,67.0,0.55,0.5428571428571429,-0.4800000000000001,-0.6303061224489797,1,0,0,-0.41971668104654214,-0.5,0.0,0.5,0.5,1.0,0.0,0.0,2.0,2.0,0.0,2.0,-1.0,2.0,0,0,1
15.0,0.0,15.0,0.0,0.0,0.0,0.0,0.0,550.539930400002,554.0451901000051,None,right,1.7588987999770325,555.9987802000251,kp4,555.9987802000251,None,550.539930400002,554.0451901000051,False,5.0,['p'],True,0.4166666666666667,0.5,0.1666666666666666,1.0,1.0,0.9358932809493992,0.0479638815409865,wait_cost,0.0,4.0,,,kp4,1,2023-03-24_11h15.46.911,threat_forest,2021.2.3,60.052413743836034,False,16.0,0.4,0.47500000000000003,-1.1033333333333333,-0.7916666666666667,0,0,0,0.5646879313982667,0.0479638815409865,0.4166666666666667,0.4166666666666667,0.5,0.8333333333333334,-0.9999999999999998,-0.9166666666666665,4.083333333333334,4.083333333333334,1.0,1.0,-1.0,5.0,0,0,0
15.0,0.0,15.0,0.0,1.0,0.0,1.0,0.0,,,,right,0.9208598000113852,562.6522588000225,kp4,562.6522588000225,None,550.539930400002,554.0451901000051,False,4.0,['p'],True,0.4166666666666667,0.5,0.1666666666666666,1.0,1.0,0.9358932809493992,0.0652040051667182,wait_cost,0.0,3.0,559.8010027000273,None,kp4,1,2023-03-24_11h15.46.911,threat_forest,2021.2.3,60.052413743836034,False,16.0,0.4,0.47500000000000003,-1.1033333333333333,-0.7916666666666667,0,0,0,-0.08244748014347253,0.0652040051667182,0.4166666666666667,0.4166666666666667,0.5,0.8333333333333334,-0.9999999999999998,-0.9166666666666665,3.0833333333333335,3.0833333333333335,1.0,1.0,-1.0,4.0,0,0,0
15.0,0.0,15.0,0.0,2.0,0.0,2.0,0.0,,,,left,1.8639774000039324,568.0931291000161,kp4,563.5978673000063,565.6123075000069,568.0931291000161,None,False,3.0,['p'],False,0.27,0.3,0.1,1.0,1.0,0.7963326591781347,0.0116888410425923,wait_cost,1.0,2.0,565.6123075000069,None,kp4,1,2023-03-24_11h15.46.911,threat_forest,2021.2.3,60.052413743836034,False,16.0,0.4,0.47500000000000003,-1.1033333333333333,-0.7916666666666667,0,0,0,0.6227125917284879,0.0116888410425923,0.27,0.27,0.3,0.9,-1.4,-1.29,1.71,1.71,0.0,1.0,-1.0,3.0,0,0,0
15.0,0.0,15.0,0.0,3.0,0.0,3.0,0.0,,,,left,2.917347000009613,573.2590856000024,kp4,573.2590856000024,None,569.9752562000067,571.9896197000053,True,2.0,['p'],True,0.4166666666666667,0.5,0.1666666666666666,1.0,1.0,0.9358932809493992,0.0468307870370371,succ_gain,0.0,3.0,571.9896197000053,None,kp4,1,2023-03-24_11h15.46.911,threat_forest,2021.2.3,60.052413743836034,True,16.0,0.4,0.47500000000000003,-1.1033333333333333,-0.7916666666666667,0,0,1,1.070674641647348,0.0468307870370371,0.4166666666666667,0.4166666666666667,0.5,0.8333333333333334,-0.9999999999999998,-0.9166666666666665,1.0833333333333335,1.0833333333333335,1.0,1.0,-1.0,2.0,0,0,0
15.0,0.0,15.0,0.0,4.0,0.0,4.0,0.0,,,,left,1.793936100002611,578.886438800022,kp4,578.886438800022,None,569.9752562000067,571.9896197000053,True,3.0,['p'],True,0.4166666666666667,0.5,0.1666666666666666,1.0,1.0,0.9358932809493992,0.0910277777777777,succ_gain,0.0,4.0,578.2174249000091,None,kp4,1,2023-03-24_11h15.46.911,threat_forest,2021.2.3,60.052413743836034,True,16.0,0.4,0.47500000000000003,-1.1033333333333333,-0.7916666666666667,0,0,1,0.5844121442746009,0.0910277777777777,0.4166666666666667,0.4166666666666667,0.5,0.8333333333333334,-0.9999999999999998,-0.9166666666666665,2.0833333333333335,2.0833333333333335,1.0,1.0,1.0,3.0,0,0,0
15.0,0.0,15.0,0.0,5.0,0.0,5.0,0.0,,,,right,0.6200320999778342,584.6984556000098,kp4,584.6984556000098,None,569.9752562000067,571.9896197000053,False,4.0,['p'],True,0.4166666666666667,0.5,0.1666666666666666,1.0,1.0,0.9358932809493992,-0.3677777777777777,wait_cost,0.0,3.0,582.7130803000182,None,kp4,1,2023-03-24_11h15.46.911,threat_forest,2021.2.3,60.052413743836034,False,16.0,0.4,0.47500000000000003,-1.1033333333333333,-0.7916666666666667,0,0,0,-0.4779840281254382,-0.3677777777777777,0.0,0.4166666666666667,0.5,0.8333333333333334,-0.9999999999999998,-0.9166666666666665,3.0833333333333335,3.0833333333333335,1.0,1.0,1.0,4.0,0,0,0
15.0,0.0,15.0,0.0,6.0,0.0,6.0,0.0,,,,right,0.5483239999739453,590.9396925000183,kp4,590.9396925000183,None,569.9752562000067,571.9896197000053,False,3.0,['p'],True,0.4166666666666667,0.5,0.1666666666666666,1.0,1.0,0.9358932809493992,-0.4402777777777777,wait_cost,0.0,2.0,587.3587907000037,None,kp4,1,2023-03-24_11h15.46.911,threat_forest,2021.2.3,60.052413743836034,False,16.0,0.4,0.47500000000000003,-1.1033333333333333,-0.7916666666666667,0,0,0,-0.6008889259197507,-0.4402777777777777,0.0,0.4166666666666667,0.5,0.8333333333333334,-0.9999999999999998,-0.9166666666666665,2.0833333333333335,2.0833333333333335,1.0,1.0,-1.0,3.0,0,0,0
15.0,0.0,15.0,0.0,7.0,0.0,7.0,0.0,,,,right,0.8426943000231404,595.3036797000095,kp4,595.3036797000095,None,569.9752562000067,571.9896197000053,False,2.0,['p'],True,0.4166666666666667,0.5,0.1666666666666666,1.0,1.0,0.9358932809493992,-0.5833333333333333,wait_cost,0.0,1.0,593.5197664000152,None,kp4,1,2023-03-24_11h15.46.911,threat_forest,2021.2.3,60.052413743836034,False,16.0,0.4,0.47500000000000003,-1.1033333333333333,-0.7916666666666667,0,0,0,-0.17115102017218925,-0.5833333333333333,0.0,0.4166666666666667,0.5,0.8333333333333334,-0.9999999999999998,-0.9166666666666665,1.0833333333333335,1.0833333333333335,1.0,1.0,-1.0,2.0,0,0,0
16.0,0.0,16.0,0.0,0.0,0.0,0.0,0.0,600.4961760000151,603.9931582999998,None,right,1.5071457999874838,605.9808303000173,kp4,605.9808303000173,None,600.4961760000151,603.9931582999998,False,4.0,['r'],True,0.2040816326530612,0.2857142857142857,0.2857142857142857,2.0,1.0,0.9335459102197724,0.0023337396678889,wait_cost,0.0,3.0,,,kp4,1,2023-03-24_11h15.46.911,threat_forest,2021.2.3,60.052413743836034,False,32.0,0.26785714285714285,0.33392857142857146,-1.461734693877551,-1.2825340136054422,0,0,0,0.41021766346318633,0.0023337396678889,0.2040816326530612,0.2040816326530612,0.2857142857142857,0.7142857142857143,-2.0,-1.6734693877551021,2.326530612244898,2.326530612244898,1.0,1.0,-1.0,4.0,0,0,0
16.0,0.0,16.0,0.0,1.0,0.0,1.0,0.0,,,,right,1.4070211999933235,611.5422075000242,kp4,607.5071277000243,609.5216916000063,611.5422075000242,None,True,3.0,['r'],False,0.25,0.25,0.0,0.0,1.0,0.5118595071429148,0.0163925007001739,unsucc_cost,1.0,1.0,609.5216916000063,None,kp4,1,2023-03-24_11h15.46.911,threat_forest,2021.2.3,60.052413743836034,True,32.0,0.26785714285714285,0.33392857142857146,-1.461734693877551,-1.2825340136054422,1,0,1,0.3414748455335381,0.0163925007001739,0.25,0.25,0.25,1.0,-1.25,-1.25,1.75,1.75,0.0,1.0,-1.0,3.0,0,0,1
16.0,0.0,16.0,0.0,2.0,0.0,2.0,0.0,,,,right,1.0310999999928754,618.7467325000034,kp4,607.5071277000243,609.5216916000063,618.7467325000034,None,True,1.0,['r'],False,0.25,0.25,0.0,0.0,1.0,0.5118595071429148,0.0150369805427752,unsucc_cost,1.0,0.0,614.9830840000068,None,kp4,1,2023-03-24_11h15.46.911,threat_forest,2021.2.3,60.052413743836034,True,32.0,0.26785714285714285,0.33392857142857146,-1.461734693877551,-1.2825340136054422,1,0,1,0.030626193534851114,0.0150369805427752,1.0,0.25,0.25,1.0,-1.25,-1.25,-0.25,0.0,0.0,1.0,-1.0,1.0,1,0,1
17.0,0.0,17.0,0.0,0.0,0.0,0.0,0.0,624.8069230000256,628.307580200024,None,left,0.9440825000056066,631.6955714000214,kp4,631.6955714000214,None,624.8069230000256,628.307580200024,True,4.0,['p'],True,0.32,0.4,0.2,1.0,2.0,0.9455672104350704,0.0381787567431899,unsucc_cost,0.0,2.0,,,kp4,1,2023-03-24_11h15.46.911,threat_forest,2021.2.3,60.052413743836034,True,12.0,0.3111111111111111,0.28948412698412695,-1.1204938271604938,-1.2911142605190224,1,1,1,-0.05754172258154018,0.0381787567431899,0.32,0.32,0.4,0.8,-1.0,-0.92,3.08,3.08,1.0,2.0,-1.0,4.0,0,1,1
17.0,0.0,17.0,0.0,1.0,0.0,1.0,0.0,,,,left,0.622874699998647,636.0925115999999,kp4,632.6668903000245,634.6846327000239,636.0925115999999,None,False,2.0,['p'],False,0.1975308641975308,0.2222222222222222,0.1111111111111111,1.0,2.0,0.7461067557824965,-0.0130550838348044,wait_cost,1.0,1.0,634.6846327000239,None,kp4,1,2023-03-24_11h15.46.911,threat_forest,2021.2.3,60.052413743836034,False,12.0,0.3111111111111111,0.28948412698412695,-1.1204938271604938,-1.2911142605190224,0,0,0,-0.4734099040204244,-0.0130550838348044,0.1975308641975308,0.1975308641975308,0.2222222222222222,0.8888888888888888,-1.4444444444444444,-1.3209876543209877,0.6790123456790123,0.6790123456790123,0.0,2.0,-1.0,2.0,0,0,0
17.0,0.0,17.0,0.0,2.0,0.0,2.0,0.0,,,,right,0.3785973000049125,640.8793869000219,kp4,632.6668903000245,634.6846327000239,640.8793869000219,None,True,1.0,['p'],False,0.1975308641975308,0.2222222222222222,0.1111111111111111,1.0,2.0,0.7461067557824965,0.0652194928066033,unsucc_cost,1.0,0.0,638.7439970000123,None,kp4,1,2023-03-24_11h15.46.911,threat_forest,2021.2.3,60.052413743836034,True,12.0,0.3111111111111111,0.28948412698412695,-1.1204938271604938,-1.2911142605190224,0,0,1,-0.9712821717566111,0.0652194928066033,1.0,0.1975308641975308,0.2222222222222222,0.8888888888888888,-1.4444444444444444,-1.3209876543209877,-0.32098765432098775,0.0,0.0,2.0,-1.0,1.0,1,0,0
0.0,0.0,0.0,0.0,0.0,0.0,0.0,0.0,16.382299199991394,19.887813299981644,None,left,1.8731989999942016,20.554424200003268,kp4,16.382299199991394,19.887813299981644,20.554424200003268,None,False,5.0,['r'],False,0.32,0.4,0.2,1.0,1.0,0.9455672104350704,0.0270077631800703,wait_cost,1.0,4.0,,,kp4,2,2023-03-24_11h26.51.253,threat_forest,2021.2.3,60.03673047531552,False,61.0,0.325,0.31805555555555554,-1.354375,-1.2374344135802469,0,1,0,0.6276476644781863,0.0270077631800703,0.32,0.32,0.4,0.8,-1.4,-1.24,3.76,3.76,0.0,1.0,-1.0,5.0,0,1,0
0.0,0.0,0.0,0.0,1.0,0.0,1.0,0.0,,,,right,0.7758674999931827,27.547280300001148,kp4,16.382299199991394,19.887813299981644,27.547280300001148,None,True,4.0,['r'],False,0.32,0.4,0.2,1.0,1.0,0.9455672104350704,0.0367450763052585,succ_gain,1.0,5.0,24.461621900001774,None,kp4,2,2023-03-24_11h26.51.253,threat_forest,2021.2.3,60.03673047531552,True,61.0,0.325,0.31805555555555554,-1.354375,-1.2374344135802469,0,1,1,-0.25377352080938614,0.0367450763052585,0.32,0.32,0.4,0.8,-1.4,-1.24,2.76,2.76,0.0,1.0,-1.0,4.0,0,1,0
0.0,0.0,0.0,0.0,2.0,0.0,2.0,0.0,,,,left,1.1827416000014637,33.69381009999779,kp4,16.382299199991394,19.887813299981644,33.69381009999779,None,False,5.0,['r'],False,0.32,0.4,0.2,1.0,1.0,0.9455672104350704,0.0597534657871093,wait_cost,1.0,4.0,30.356062399980143,None,kp4,2,2023-03-24_11h26.51.253,threat_forest,2021.2.3,60.03673047531552,False,61.0,0.325,0.31805555555555554,-1.354375,-1.2374344135802469,0,1,0,0.1678351334125571,0.0597534657871093,0.32,0.32,0.4,0.8,-1.4,-1.24,3.76,3.76,0.0,1.0,1.0,5.0,0,1,0
0.0,0.0,0.0,0.0,3.0,0.0,3.0,0.0,,,,right,1.126393900020048,38.79735239999718,kp4,38.79735239999718,None,34.90213139998377,36.91649299999699,False,4.0,['r'],True,0.21875,0.25,0.125,1.0,1.0,0.7908280489481783,-0.0230494493331908,wait_cost,0.0,3.0,36.91649299999699,None,kp4,2,2023-03-24_11h26.51.253,threat_forest,2021.2.3,60.03673047531552,False,61.0,0.325,0.31805555555555554,-1.354375,-1.2374344135802469,0,0,0,0.11902129094182098,-0.0230494493331908,0.21875,0.21875,0.25,0.875,-1.625,-1.46875,2.53125,2.53125,1.0,1.0,-1.0,4.0,0,0,0
0.0,0.0,0.0,0.0,4.0,0.0,4.0,0.0,,,,right,0.857435500016436,42.782892999995966,kp4,42.782892999995966,None,34.90213139998377,36.91649299999699,False,3.0,['r'],True,0.21875,0.25,0.125,1.0,1.0,0.7908280489481783,-0.0238434265136718,wait_cost,0.0,2.0,41.961748599977,None,kp4,2,2023-03-24_11h26.51.253,threat_forest,2021.2.3,60.03673047531552,False,61.0,0.325,0.31805555555555554,-1.354375,-1.2374344135802469,0,0,0,-0.15380932141083062,-0.0238434265136718,0.21875,0.21875,0.25,0.875,-1.625,-1.46875,1.53125,1.53125,1.0,1.0,-1.0,3.0,0,0,0
0.0,0.0,0.0,0.0,5.0,0.0,5.0,0.0,,,,left,1.055851299985079,48.82781209997484,kp4,48.82781209997484,None,34.90213139998377,36.91649299999699,True,2.0,['r'],True,0.21875,0.25,0.125,1.0,1.0,0.7908280489481783,-0.050625,unsucc_cost,0.0,0.0,45.67497069999808,None,kp4,2,2023-03-24_11h26.51.253,threat_forest,2021.2.3,60.03673047531552,True,61.0,0.325,0.31805555555555554,-1.354375,-1.2374344135802469,0,0,1,0.05434736096072111,-0.050625,0.21875,0.21875,0.25,0.875,-1.625,-1.46875,0.53125,0.53125,1.0,1.0,-1.0,2.0,0,0,0
1.0,0.0,1.0,0.0,0.0,0.0,0.0,0.0,54.73935379998875,58.23532979999436,None,left,0.654466699983459,59.672763199982,kp4,59.672763199982,None,54.73935379998875,58.23532979999436,True,4.0,['p'],True,0.4166666666666667,0.5,0.1666666666666666,1.0,2.0,0.9358932809493992,0.0524876732571487,unsucc_cost,0.0,2.0,,,kp4,2,2023-03-24_11h26.51.253,threat_forest,2021.2.3,60.03673047531552,True,22.0,0.41666666666666663,0.37083333333333335,-0.7129629629629629,-1.0336689814814815,1,1,1,-0.42393457348504443,0.0524876732571487,0.4166666666666667,0.4166666666666667,0.5,0.8333333333333334,-0.4999999999999998,-0.4999999999999998,3.5,3.5,1.0,2.0,-1.0,4.0,0,1,1
1.0,0.0,1.0,0.0,1.0,0.0,1.0,0.0,,,,left,0.5411104000231717,64.1949587999843,kp4,64.1949587999843,None,54.73935379998875,58.23532979999436,True,2.0,['p'],True,0.4166666666666667,0.5,0.1666666666666666,1.0,2.0,0.9358932809493992,0.0455069422842053,succ_gain,0.0,4.0,62.3595912999881,None,kp4,2,2023-03-24_11h26.51.253,threat_forest,2021.2.3,60.03673047531552,True,22.0,0.41666666666666663,0.37083333333333335,-0.7129629629629629,-1.0336689814814815,1,1,1,-0.6141319543681398,0.0455069422842053,0.4166666666666667,0.4166666666666667,0.5,0.8333333333333334,-0.4999999999999998,-0.4999999999999998,1.5000000000000002,1.5000000000000002,1.0,2.0,-1.0,2.0,0,1,1
1.0,0.0,1.0,0.0,2.0,0.0,2.0,0.0,,,,left,0.5167881999805104,68.52347029998782,kp4,68.52347029998782,None,54.73935379998875,58.23532979999436,True,4.0,['p'],True,0.4166666666666667,0.5,0.1666666666666666,1.0,2.0,0.9358932809493992,0.087575280195585,fight_cost,0.0,1.0,66.77211869999883,None,kp4,2,2023-03-24_11h26.51.253,threat_forest,2021.2.3,60.03673047531552,True,22.0,0.41666666666666663,0.37083333333333335,-0.7129629629629629,-1.0336689814814815,1,1,1,-0.6601221596294681,0.087575280195585,0.4166666666666667,0.4166666666666667,0.5,0.8333333333333334,-0.4999999999999998,-0.4999999999999998,3.5,3.5,1.0,2.0,1.0,4.0,0,1,1
1.0,0.0,1.0,0.0,3.0,0.0,3.0,0.0,,,,left,0.4559062999906018,73.9857438999752,kp4,73.9857438999752,None,54.73935379998875,58.23532979999436,True,1.0,['p'],True,0.4166666666666667,0.5,0.1666666666666666,1.0,2.0,0.9358932809493992,0.2234885831047097,unsucc_cost,0.0,0.0,71.0847607999749,None,kp4,2,2023-03-24_11h26.51.253,threat_forest,2021.2.3,60.03673047531552,True,22.0,0.41666666666666663,0.37083333333333335,-0.7129629629629629,-1.0336689814814815,1,1,1,-0.785467973058918,0.2234885831047097,1.0,0.4166666666666667,0.5,0.8333333333333334,-0.4999999999999998,-0.4999999999999998,0.5000000000000002,0.5000000000000002,1.0,2.0,-1.0,1.0,1,1,1
2.0,0.0,2.0,0.0,0.0,0.0,0.0,0.0,78.48050819998025,81.98031799998716,None,left,0.6403726999997161,85.01814869997906,kp4,85.01814869997906,None,78.48050819998025,81.98031799998716,True,4.0,['p'],True,0.46875,0.625,0.25,2.0,2.0,0.9634951148421658,0.0168757334273511,succ_gain,0.0,6.0,,,kp4,2,2023-03-24_11h26.51.253,threat_forest,2021.2.3,60.03673047531552,True,19.0,0.5982142857142857,0.5074404761904762,-0.044642857142857206,-0.37880291005291006,1,0,1,-0.44570492837518416,0.0168757334273511,0.46875,0.46875,0.625,0.75,-0.25,-0.375,3.625,3.625,1.0,2.0,-1.0,4.0,0,0,1
2.0,0.0,2.0,0.0,1.0,0.0,1.0,0.0,,,,right,0.5650325999886263,90.0909171999956,kp4,90.0909171999956,None,78.48050819998025,81.98031799998716,False,6.0,['p'],True,0.46875,0.625,0.25,2.0,2.0,0.9634951148421658,-0.055384245573103,wait_cost,0.0,5.0,87.70266529999208,None,kp4,2,2023-03-24_11h26.51.253,threat_forest,2021.2.3,60.03673047531552,False,19.0,0.5982142857142857,0.5074404761904762,-0.044642857142857206,-0.37880291005291006,1,0,0,-0.5708718504053111,-0.055384245573103,0.46875,0.46875,0.625,0.75,-0.25,-0.375,5.625,5.625,1.0,2.0,1.0,6.0,0,0,1
2.0,0.0,2.0,0.0,2.0,0.0,2.0,0.0,,,,left,1.640799499989953,95.5091094999807,kp4,90.683620900003,92.69788969997899,95.5091094999807,None,False,5.0,['p'],False,0.5714285714285714,0.5714285714285714,0.0,0.0,2.0,0.6216097450797566,0.0904726643469258,wait_cost,1.0,4.0,92.697889699979,None,kp4,2,2023-03-24_11h26.51.253,threat_forest,2021.2.3,60.03673047531552,False,19.0,0.5982142857142857,0.5074404761904762,-0.044642857142857206,-0.37880291005291006,1,1,0,0.49518362304046376,0.0904726643469258,0.5714285714285714,0.5714285714285714,0.5714285714285714,1.0,0.2857142857142856,0.2857142857142856,5.285714285714286,5.285714285714286,0.0,2.0,-1.0,5.0,0,1,1
2.0,0.0,2.0,0.0,3.0,0.0,3.0,0.0,,,,left,0.6121807000017725,100.51775769999948,kp4,100.51775769999948,None,97.17745920000016,99.19192179999663,True,4.0,['p'],True,0.46875,0.625,0.25,2.0,2.0,0.9634951148421658,0.0091935733316938,unsucc_cost,0.0,2.0,99.19192179999663,None,kp4,2,2023-03-24_11h26.51.253,threat_forest,2021.2.3,60.03673047531552,True,19.0,0.5982142857142857,0.5074404761904762,-0.044642857142857206,-0.37880291005291006,1,0,1,-0.49072777861008715,0.0091935733316938,0.46875,0.46875,0.625,0.75,-0.25,-0.375,3.625,3.625,1.0,2.0,-1.0,4.0,0,0,1
2.0,0.0,2.0,0.0,4.0,0.0,4.0,0.0,,,,right,0.7978692000033334,104.76101170000038,kp4,104.76101170000038,None,97.17745920000016,99.19192179999663,False,2.0,['p'],True,0.46875,0.625,0.25,2.0,2.0,0.9634951148421658,-0.0513392857142857,wait_cost,0.0,1.0,103.17146839998895,None,kp4,2,2023-03-24_11h26.51.253,threat_forest,2021.2.3,60.03673047531552,False,19.0,0.5982142857142857,0.5074404761904762,-0.044642857142857206,-0.37880291005291006,1,0,0,-0.22581060473726167,-0.0513392857142857,0.46875,0.46875,0.625,0.75,-0.25,-0.375,1.625,1.625,1.0,2.0,-1.0,2.0,0,0,1
2.0,0.0,2.0,0.0,5.0,0.0,5.0,0.0,,,,right,0.3534146999882068,110.13914269997622,kp4,105.5863004999992,107.60073599999305,110.13914269997622,None,True,1.0,['p'],False,0.5714285714285714,0.5714285714285714,0.0,0.0,2.0,0.6216097450797566,0.5714285714285714,unsucc_cost,1.0,0.0,107.60073599999303,None,kp4,2,2023-03-24_11h26.51.253,threat_forest,2021.2.3,60.03673047531552,True,19.0,0.5982142857142857,0.5074404761904762,-0.044642857142857206,-0.37880291005291006,1,1,1,-1.0401131240696997,0.5714285714285714,1.0,0.5714285714285714,0.5714285714285714,1.0,0.2857142857142856,0.2857142857142856,1.2857142857142856,1.2857142857142856,0.0,2.0,-1.0,1.0,1,1,1
3.0,0.0,3.0,0.0,0.0,0.0,0.0,0.0,115.62430619998486,119.12435410000036,None,right,0.7260484000144061,122.32939639998948,kp4,115.62430619998486,119.12435410000035,122.32939639998948,None,True,4.0,['p'],False,0.25,0.25,0.0,0.0,2.0,0.5118595071429148,0.0217710183950354,unsucc_cost,1.0,2.0,,,kp4,2,2023-03-24_11h26.51.253,threat_forest,2021.2.3,60.03673047531552,True,17.0,0.26785714285714285,0.4330357142857143,-1.2346938775510203,-0.6396683673469388,0,0,1,-0.320138599692956,0.0217710183950354,0.25,0.25,0.25,1.0,-1.0,-1.0,3.0,3.0,0.0,2.0,-1.0,4.0,0,0,0
3.0,0.0,3.0,0.0,1.0,0.0,1.0,0.0,,,,right,1.4594453999889083,127.43653139998789,kp4,127.43653139998789,None,123.08657029998722,125.10104670000146,False,2.0,['p'],True,0.2040816326530612,0.2857142857142857,0.2857142857142857,2.0,2.0,0.9335459102197724,-0.0023528380842746,wait_cost,0.0,1.0,125.10104670000146,None,kp4,2,2023-03-24_11h26.51.253,threat_forest,2021.2.3,60.03673047531552,False,17.0,0.26785714285714285,0.4330357142857143,-1.2346938775510203,-0.6396683673469388,0,0,0,0.37805650053271583,-0.0023528380842746,0.2040816326530612,0.2040816326530612,0.2857142857142857,0.7142857142857143,-1.7142857142857144,-1.4693877551020407,0.5306122448979593,0.5306122448979593,1.0,2.0,-1.0,2.0,0,0,0
3.0,0.0,3.0,0.0,2.0,0.0,2.0,0.0,,,,right,0.5246856999874581,134.13158180000028,kp4,128.91464289999567,130.92902660000254,134.13158180000028,None,True,1.0,['p'],False,0.25,0.25,0.0,0.0,2.0,0.5118595071429148,0.0699967163129748,unsucc_cost,1.0,0.0,130.92902660000254,None,kp4,2,2023-03-24_11h26.51.253,threat_forest,2021.2.3,60.03673047531552,True,17.0,0.26785714285714285,0.4330357142857143,-1.2346938775510203,-0.6396683673469388,0,0,1,-0.6449558623535258,0.0699967163129748,1.0,0.25,0.25,1.0,-1.0,-1.0,0.0,0.0,0.0,2.0,-1.0,1.0,1,0,0
4.0,0.0,4.0,0.0,0.0,0.0,0.0,0.0,139.25357959998655,142.7542585999763,None,left,1.7238444999966305,145.23155029999907,kp4,139.25357959998655,142.7542585999763,145.23155029999907,None,False,5.0,['p'],False,0.2592592592592592,0.3333333333333333,0.2222222222222222,2.0,2.0,0.9327883776363324,-0.0297160742148364,wait_cost,1.0,4.0,,,kp4,2,2023-03-24_11h26.51.253,threat_forest,2021.2.3,60.03673047531552,False,53.0,0.5,0.3839285714285714,-0.8703703703703706,-1.0525321239606955,0,0,0,0.544556970955756,-0.0297160742148364,0.2592592592592592,0.2592592592592592,0.3333333333333333,0.7777777777777778,-1.3333333333333335,-1.1851851851851856,3.8148148148148144,3.8148148148148144,0.0,2.0,-1.0,5.0,0,0,0
4.0,0.0,4.0,0.0,1.0,0.0,1.0,0.0,,,,right,0.6876469000126235,149.8835604999913,kp4,139.25357959998655,142.7542585999763,149.8835604999913,None,True,4.0,['p'],False,0.2592592592592592,0.3333333333333333,0.2222222222222222,2.0,2.0,0.9327883776363324,0.0284508037789916,fight_cost,1.0,1.0,148.99541809997754,None,kp4,2,2023-03-24_11h26.51.253,threat_forest,2021.2.3,60.03673047531552,True,53.0,0.5,0.3839285714285714,-0.8703703703703706,-1.0525321239606955,0,0,1,-0.3744797995205463,0.0284508037789916,0.2592592592592592,0.2592592592592592,0.3333333333333333,0.7777777777777778,-1.3333333333333335,-1.1851851851851856,2.8148148148148144,2.8148148148148144,0.0,2.0,-1.0,4.0,0,0,0
4.0,0.0,4.0,0.0,2.0,0.0,2.0,0.0,,,,left,0.4941650999826379,153.5631463000027,kp4,153.5631463000027,None,150.59433140000328,152.60873249999713,True,1.0,['p'],True,0.4444444444444445,0.6666666666666666,0.3333333333333333,1.0,2.0,0.9656336071428248,0.1956206490152873,unsucc_cost,0.0,0.0,152.60873249999713,None,kp4,2,2023-03-24_11h26.51.253,threat_forest,2021.2.3,60.03673047531552,True,53.0,0.5,0.3839285714285714,-0.8703703703703706,-1.0525321239606955,1,1,1,-0.7048856071389306,0.1956206490152873,1.0,0.4444444444444445,0.6666666666666666,0.6666666666666667,-0.3333333333333335,-0.5555555555555556,0.4444444444444444,0.4444444444444444,1.0,2.0,-1.0,1.0,1,1,1
5.0,0.0,5.0,0.0,0.0,0.0,0.0,0.0,159.1874981999863,162.6831595999829,None,right,1.1479048999899533,165.1549238000007,kp4,159.1874981999863,162.6831595999829,165.1549238000007,None,True,4.0,['p'],False,0.4444444444444445,0.6666666666666666,0.3333333333333333,1.0,1.0,0.9656336071428248,0.0440100594421581,succ_gain,1.0,5.0,,,kp4,2,2023-03-24_11h26.51.253,threat_forest,2021.2.3,60.03673047531552,True,56.0,0.4444444444444444,0.4722222222222222,-1.1666666666666667,-1.0185185185185186,1,0,1,0.13793845473596886,0.0440100594421581,0.4444444444444445,0.4444444444444445,0.6666666666666666,0.6666666666666667,-1.0,-1.0,3.0,3.0,0.0,1.0,-1.0,4.0,0,0,1
5.0,0.0,5.0,0.0,1.0,0.0,1.0,0.0,,,,right,0.9072262000117916,172.15282389998902,kp4,172.15282389998902,None,166.32956889999332,168.34390839998377,False,5.0,['p'],True,0.2222222222222222,0.2222222222222222,0.0,0.0,1.0,0.4821593609696809,0.0039628105471725,wait_cost,0.0,4.0,168.34390839998375,None,kp4,2,2023-03-24_11h26.51.253,threat_forest,2021.2.3,60.03673047531552,False,56.0,0.4444444444444444,0.4722222222222222,-1.1666666666666667,-1.0185185185185186,0,0,0,-0.09736346634212653,0.0039628105471725,0.2222222222222222,0.2222222222222222,0.2222222222222222,1.0,-1.3333333333333335,-1.3333333333333335,3.6666666666666665,3.6666666666666665,1.0,1.0,1.0,5.0,0,0,0
5.0,0.0,5.0,0.0,2.0,0.0,2.0,0.0,,,,right,1.9182271999889051,177.6255344999954,kp4,173.08984909998253,175.10421039999346,177.6255344999954,None,True,4.0,['p'],False,0.4444444444444445,0.6666666666666666,0.3333333333333333,1.0,1.0,0.9656336071428248,0.0642686582329931,fight_cost,1.0,1.0,175.10421039999346,None,kp4,2,2023-03-24_11h26.51.253,threat_forest,2021.2.3,60.03673047531552,True,56.0,0.4444444444444444,0.4722222222222222,-1.1666666666666667,-1.0185185185185186,1,0,1,0.6514014261657747,0.0642686582329931,0.4444444444444445,0.4444444444444445,0.6666666666666666,0.6666666666666667,-1.0,-1.0,3.0,3.0,0.0,1.0,-1.0,4.0,0,0,1
5.0,0.0,5.0,0.0,3.0,0.0,3.0,0.0,,,,right,0.6416053999855649,182.4830766999803,kp4,173.08984909998253,175.10421039999346,182.4830766999803,None,True,1.0,['p'],False,0.4444444444444445,0.6666666666666666,0.3333333333333333,1.0,1.0,0.9656336071428248,0.0781893004115226,succ_gain,1.0,2.0,181.58148939997773,None,kp4,2,2023-03-24_11h26.51.253,threat_forest,2021.2.3,60.03673047531552,True,56.0,0.4444444444444444,0.4722222222222222,-1.1666666666666667,-1.0185185185185186,1,0,1,-0.4437818060288961,0.0781893004115226,1.0,0.4444444444444445,0.6666666666666666,0.6666666666666667,-1.0,-1.0,0.0,0.0,0.0,1.0,-1.0,1.0,1,0,1
5.0,0.0,5.0,0.0,4.0,0.0,4.0,0.0,,,,right,1.7561831999919375,186.0716265999945,kp4,186.0716265999945,None,183.14697709999743,185.1615732999926,False,2.0,['p'],True,0.2222222222222222,0.2222222222222222,0.0,0.0,1.0,0.4821593609696809,-0.0185185185185183,wait_cost,0.0,1.0,185.1615732999926,None,kp4,2,2023-03-24_11h26.51.253,threat_forest,2021.2.3,60.03673047531552,False,56.0,0.4444444444444444,0.4722222222222222,-1.1666666666666667,-1.0185185185185186,0,0,0,0.563142817784768,-0.0185185185185183,0.2222222222222222,0.2222222222222222,0.2222222222222222,1.0,-1.3333333333333335,-1.3333333333333335,0.6666666666666665,0.6666666666666665,1.0,1.0,1.0,2.0,0,0,0
5.0,0.0,5.0,0.0,5.0,0.0,5.0,0.0,,,,left,0.7049588999943808,191.86103329999605,kp4,191.86103329999605,None,183.14697709999743,185.1615732999926,True,1.0,['p'],True,0.2222222222222222,0.2222222222222222,0.0,0.0,1.0,0.4821593609696809,0.0864197530864196,succ_gain,0.0,2.0,189.87380410000333,None,kp4,2,2023-03-24_11h26.51.253,threat_forest,2021.2.3,60.03673047531552,True,56.0,0.4444444444444444,0.4722222222222222,-1.1666666666666667,-1.0185185185185186,0,0,1,-0.3496157757495668,0.0864197530864196,1.0,0.2222222222222222,0.2222222222222222,1.0,-1.3333333333333335,-1.3333333333333335,-0.3333333333333335,0.0,1.0,1.0,-1.0,1.0,1,0,0
5.0,0.0,5.0,0.0,6.0,0.0,6.0,0.0,,,,left,1.748595299985027,197.5405625999847,kp4,192.58833909998063,194.60267959997873,197.5405625999847,None,False,2.0,['p'],False,0.4444444444444445,0.6666666666666666,0.3333333333333333,1.0,1.0,0.9656336071428248,0.1111111111111111,wait_cost,1.0,1.0,194.60267959997876,None,kp4,2,2023-03-24_11h26.51.253,threat_forest,2021.2.3,60.03673047531552,False,56.0,0.4444444444444444,0.4722222222222222,-1.1666666666666667,-1.0185185185185186,1,0,0,0.5588127798879009,0.1111111111111111,0.4444444444444445,0.4444444444444445,0.6666666666666666,0.6666666666666667,-1.0,-1.0,1.0,1.0,0.0,1.0,1.0,2.0,0,0,1
5.0,0.0,5.0,0.0,7.0,0.0,7.0,0.0,,,,right,1.0976827000267804,204.61028120000265,kp4,192.58833909998063,194.60267959997873,204.61028120000265,None,True,1.0,['p'],False,0.4444444444444445,0.6666666666666666,0.3333333333333333,1.0,1.0,0.9656336071428248,0.4444444444444444,succ_gain,1.0,2.0,201.3298312999832,None,kp4,2,2023-03-24_11h26.51.253,threat_forest,2021.2.3,60.03673047531552,True,56.0,0.4444444444444444,0.4722222222222222,-1.1666666666666667,-1.0185185185185186,1,0,1,0.09320132138541035,0.4444444444444444,1.0,0.4444444444444445,0.6666666666666666,0.6666666666666667,-1.0,-1.0,0.0,0.0,0.0,1.0,-1.0,1.0,1,0,1
6.0,0.0,6.0,0.0,0.0,0.0,0.0,0.0,208.9379727999913,212.43709799999488,None,left,0.6765536000020802,215.3903995000001,kp4,215.3903995000001,None,208.9379727999913,212.43709799999488,True,5.0,['r'],True,0.6,0.6,0.0,0.0,2.0,0.6126016192893442,0.0610993227861605,unsucc_cost,0.0,3.0,,,kp4,2,2023-03-24_11h26.51.253,threat_forest,2021.2.3,60.03673047531552,True,47.0,0.6333333333333333,0.5388888888888889,-0.07777777777777783,-0.6222222222222222,1,1,1,-0.39074360316908835,0.0610993227861605,0.6,0.6,0.6,1.0,0.3999999999999999,0.3999999999999999,5.4,5.4,1.0,2.0,1.0,5.0,0,1,1
6.0,0.0,6.0,0.0,1.0,0.0,1.0,0.0,,,,left,0.4802791000111028,219.2671789999877,kp4,219.2671789999877,None,208.9379727999913,212.43709799999488,True,3.0,['r'],True,0.6,0.6,0.0,0.0,2.0,0.6126016192893442,0.2156073333333332,succ_gain,0.0,5.0,218.097597999993,None,kp4,2,2023-03-24_11h26.51.253,threat_forest,2021.2.3,60.03673047531552,True,47.0,0.6333333333333333,0.5388888888888889,-0.07777777777777783,-0.6222222222222222,1,1,1,-0.7333878857051458,0.2156073333333332,0.6,0.6,0.6,1.0,0.3999999999999999,0.3999999999999999,3.4,3.4,1.0,2.0,-1.0,3.0,0,1,1
6.0,0.0,6.0,0.0,2.0,0.0,2.0,0.0,,,,left,1.7331142999755684,225.0016337999841,kp4,219.77975190000143,221.7942680999986,225.0016337999841,None,False,5.0,['r'],False,0.4444444444444445,0.6666666666666666,0.3333333333333333,2.0,2.0,0.9656336071428248,-0.0290518518518518,wait_cost,1.0,4.0,221.7942680999986,None,kp4,2,2023-03-24_11h26.51.253,threat_forest,2021.2.3,60.03673047531552,False,47.0,0.6333333333333333,0.5388888888888889,-0.07777777777777783,-0.6222222222222222,1,0,0,0.5499199635357818,-0.0290518518518518,0.4444444444444445,0.4444444444444445,0.6666666666666666,0.6666666666666667,-0.3333333333333335,-0.5555555555555556,4.444444444444445,4.444444444444445,0.0,2.0,1.0,5.0,0,0,1
6.0,0.0,6.0,0.0,3.0,0.0,3.0,0.0,,,,right,0.9880509999929928,229.4424170999846,kp4,219.77975190000143,221.7942680999986,229.4424170999846,None,True,4.0,['r'],False,0.4444444444444445,0.6666666666666666,0.3333333333333333,2.0,2.0,0.9656336071428248,0.0033765432098765,succ_gain,1.0,6.0,228.7710628999921,None,kp4,2,2023-03-24_11h26.51.253,threat_forest,2021.2.3,60.03673047531552,True,47.0,0.6333333333333333,0.5388888888888889,-0.07777777777777783,-0.6222222222222222,1,0,1,-0.012020963140399854,0.0033765432098765,0.4444444444444445,0.4444444444444445,0.6666666666666666,0.6666666666666667,-0.3333333333333335,-0.5555555555555556,3.4444444444444446,3.4444444444444446,0.0,2.0,-1.0,4.0,0,0,1
6.0,0.0,6.0,0.0,4.0,0.0,4.0,0.0,,,,right,0.703446300001815,233.0086706999864,kp4,233.0086706999864,None,230.45310809998773,232.46750919998158,False,6.0,['r'],True,0.6,0.6,0.0,0.0,2.0,0.6126016192893442,0.0,wait_cost,0.0,5.0,232.4675091999816,None,kp4,2,2023-03-24_11h26.51.253,threat_forest,2021.2.3,60.03673047531552,False,47.0,0.6333333333333333,0.5388888888888889,-0.07777777777777783,-0.6222222222222222,1,1,0,-0.35176373796119736,0.0,0.0,0.6,0.6,1.0,0.3999999999999999,0.3999999999999999,6.4,6.0,1.0,2.0,1.0,6.0,0,1,1
6.0,0.0,6.0,0.0,5.0,0.0,5.0,0.0,,,,left,0.7476902999915183,239.02229819999772,kp4,233.73357349997968,235.7478605999786,239.02229819999772,None,False,5.0,['r'],False,0.4444444444444445,0.6666666666666666,0.3333333333333333,2.0,2.0,0.9656336071428248,-0.1462962962962963,wait_cost,1.0,4.0,235.7478605999786,None,kp4,2,2023-03-24_11h26.51.253,threat_forest,2021.2.3,60.03673047531552,False,47.0,0.6333333333333333,0.5388888888888889,-0.07777777777777783,-0.6222222222222222,1,0,0,-0.29076642418932325,-0.1462962962962963,0.0,0.4444444444444445,0.6666666666666666,0.6666666666666667,-0.3333333333333335,-0.5555555555555556,4.444444444444445,4.444444444444445,0.0,2.0,-1.0,5.0,0,0,1
6.0,0.0,6.0,0.0,6.0,0.0,6.0,0.0,,,,right,0.3738652000029105,245.51276069998855,kp4,245.51276069998855,None,239.7943808999844,241.80880139998044,False,4.0,['r'],True,0.6,0.6,0.0,0.0,2.0,0.6126016192893442,0.0,wait_cost,0.0,3.0,241.80880139998044,None,kp4,2,2023-03-24_11h26.51.253,threat_forest,2021.2.3,60.03673047531552,False,47.0,0.6333333333333333,0.5388888888888889,-0.07777777777777783,-0.6222222222222222,1,1,0,-0.9838599743370208,0.0,0.0,0.6,0.6,1.0,0.3999999999999999,0.3999999999999999,4.4,4.4,1.0,2.0,-1.0,4.0,0,1,1
6.0,0.0,6.0,0.0,7.0,0.0,7.0,0.0,,,,left,0.6327211999741849,250.07648629997857,kp4,245.90521489997627,247.9196418999927,250.07648629997857,None,False,3.0,['r'],False,0.4444444444444445,0.6666666666666666,0.3333333333333333,2.0,2.0,0.9656336071428248,-0.3333333333333333,wait_cost,1.0,2.0,247.9196418999927,None,kp4,2,2023-03-24_11h26.51.253,threat_forest,2021.2.3,60.03673047531552,False,47.0,0.6333333333333333,0.5388888888888889,-0.07777777777777783,-0.6222222222222222,1,0,0,-0.4577253962400501,-0.3333333333333333,0.0,0.4444444444444445,0.6666666666666666,0.6666666666666667,-0.3333333333333335,-0.5555555555555556,2.4444444444444446,2.4444444444444446,0.0,2.0,-1.0,3.0,0,0,1
7.0,0.0,7.0,0.0,0.0,0.0,0.0,0.0,253.848496599996,257.3495789000008,None,right,2.2577763999870517,258.02250049999566,kp4,253.848496599996,257.3495789000008,258.02250049999566,None,True,4.0,['p'],False,0.375,0.5,0.25,1.0,2.0,0.9850568223215076,0.0485326513426469,succ_gain,1.0,6.0,,,kp4,2,2023-03-24_11h26.51.253,threat_forest,2021.2.3,60.03673047531552,True,42.0,0.39285714285714285,0.513095238095238,-0.9566326530612245,-0.5172052154195012,0,0,1,0.8143804351319202,0.0485326513426469,0.375,0.375,0.5,0.75,-0.75,-0.75,3.25,3.25,0.0,2.0,-1.0,4.0,0,0,0
7.0,0.0,7.0,0.0,1.0,0.0,1.0,0.0,,,,left,0.7916559999866877,265.2748073999828,kp4,253.848496599996,257.3495789000008,265.2748073999828,None,False,6.0,['p'],False,0.375,0.5,0.25,1.0,2.0,0.9850568223215076,-0.0703477828304545,wait_cost,1.0,5.0,262.32284399998025,None,kp4,2,2023-03-24_11h26.51.253,threat_forest,2021.2.3,60.03673047531552,False,42.0,0.39285714285714285,0.513095238095238,-0.9566326530612245,-0.5172052154195012,0,0,0,-0.23362832497330238,-0.0703477828304545,0.375,0.375,0.5,0.75,-0.75,-0.75,5.25,5.25,0.0,2.0,1.0,6.0,0,0,0
7.0,0.0,7.0,0.0,2.0,0.0,2.0,0.0,,,,left,1.256511599989608,268.7749250999768,kp4,253.848496599996,257.3495789000008,268.7749250999768,None,False,5.0,['p'],False,0.375,0.5,0.25,1.0,2.0,0.9850568223215076,0.0556713511442823,wait_cost,1.0,4.0,268.1007932999928,None,kp4,2,2023-03-24_11h26.51.253,threat_forest,2021.2.3,60.03673047531552,False,42.0,0.39285714285714285,0.513095238095238,-0.9566326530612245,-0.5172052154195012,0,0,0,0.22833930994425777,0.0556713511442823,0.375,0.375,0.5,0.75,-0.75,-0.75,4.25,4.25,0.0,2.0,-1.0,5.0,0,0,0
7.0,0.0,7.0,0.0,3.0,0.0,3.0,0.0,,,,right,0.4631980000121984,273.1631123999832,kp4,253.848496599996,257.3495789000008,273.1631123999832,None,True,4.0,['p'],False,0.375,0.5,0.25,1.0,2.0,0.9850568223215076,0.0763536482153415,unsucc_cost,1.0,2.0,272.0804193999793,None,kp4,2,2023-03-24_11h26.51.253,threat_forest,2021.2.3,60.03673047531552,True,42.0,0.39285714285714285,0.513095238095238,-0.9566326530612245,-0.5172052154195012,0,0,1,-0.76960067049563,0.0763536482153415,0.375,0.375,0.5,0.75,-0.75,-0.75,3.25,3.25,0.0,2.0,-1.0,4.0,0,0,0
7.0,0.0,7.0,0.0,4.0,0.0,4.0,0.0,,,,right,0.512049399985699,278.974358699983,kp4,253.848496599996,257.3495789000008,278.974358699983,None,True,2.0,['p'],False,0.375,0.5,0.25,1.0,2.0,0.9850568223215076,0.0650510204081632,succ_gain,1.0,4.0,275.6604780999769,None,kp4,2,2023-03-24_11h26.51.253,threat_forest,2021.2.3,60.03673047531552,True,42.0,0.39285714285714285,0.513095238095238,-0.9566326530612245,-0.5172052154195012,0,0,1,-0.6693341742498762,0.0650510204081632,0.375,0.375,0.5,0.75,-0.75,-0.75,1.25,1.25,0.0,2.0,-1.0,2.0,0,0,0
7.0,0.0,7.0,0.0,5.0,0.0,5.0,0.0,,,,right,1.1670719000103418,282.37901609999244,kp4,282.37901609999244,None,279.5071814999974,281.5215823999897,False,4.0,['p'],True,0.2448979591836734,0.2857142857142857,0.1428571428571428,1.0,2.0,0.8400769154957735,-0.5011453561016244,wait_cost,0.0,3.0,281.5215823999897,None,kp4,2,2023-03-24_11h26.51.253,threat_forest,2021.2.3,60.03673047531552,False,42.0,0.39285714285714285,0.513095238095238,-0.9566326530612245,-0.5172052154195012,0,0,0,0.15449796238369726,-0.5011453561016244,0.0,0.2448979591836734,0.2857142857142857,0.8571428571428572,-1.2857142857142856,-1.163265306122449,2.836734693877551,2.836734693877551,1.0,2.0,1.0,4.0,0,0,0
7.0,0.0,7.0,0.0,6.0,0.0,6.0,0.0,,,,left,0.7300751000002492,289.2706303999876,kp4,283.5701453999791,285.58445509997546,289.2706303999876,None,False,3.0,['p'],False,0.375,0.5,0.25,1.0,2.0,0.9850568223215076,-0.5087691326530612,wait_cost,1.0,2.0,285.58445509997546,None,kp4,2,2023-03-24_11h26.51.253,threat_forest,2021.2.3,60.03673047531552,False,42.0,0.39285714285714285,0.513095238095238,-0.9566326530612245,-0.5172052154195012,0,0,0,-0.3146078734184762,-0.5087691326530612,0.0,0.375,0.5,0.75,-0.75,-0.75,2.25,2.25,0.0,2.0,-1.0,3.0,0,0,0
7.0,0.0,7.0,0.0,7.0,0.0,7.0,0.0,,,,right,0.7284699000010733,293.15148749999935,kp4,293.15148749999935,None,290.0306606999948,292.0451935000019,False,2.0,['p'],True,0.2448979591836734,0.2857142857142857,0.1428571428571428,1.0,2.0,0.8400769154957735,-0.7551020408163265,wait_cost,0.0,1.0,292.0451935000019,None,kp4,2,2023-03-24_11h26.51.253,threat_forest,2021.2.3,60.03673047531552,False,42.0,0.39285714285714285,0.513095238095238,-0.9566326530612245,-0.5172052154195012,0,0,0,-0.31680897197525965,-0.7551020408163265,0.0,0.2448979591836734,0.2857142857142857,0.8571428571428572,-1.2857142857142856,-1.163265306122449,0.8367346938775511,0.8367346938775511,1.0,2.0,-1.0,2.0,0,0,0
8.0,0.0,8.0,0.0,0.0,0.0,0.0,0.0,296.6671391999698,300.170933299989,None,left,1.64217780000763,303.63854810001794,kp4,296.6671391999698,300.170933299989,303.63854810001794,None,False,4.0,['r'],False,0.2222222222222222,0.6666666666666666,0.6666666666666666,2.0,1.0,0.77250688571426,0.0018129330221619,wait_cost,1.0,3.0,,,kp4,2,2023-03-24_11h26.51.253,threat_forest,2021.2.3,60.03673047531552,False,20.0,0.4583333333333333,0.4255952380952381,-1.625,-1.2908163265306123,0,0,0,0.49602328775496385,0.0018129330221619,0.2222222222222222,0.2222222222222222,0.6666666666666666,0.33333333333333337,-2.0,-2.0,2.0,2.0,0.0,1.0,-1.0,4.0,0,0,0
8.0,0.0,8.0,0.0,1.0,0.0,1.0,0.0,,,,left,0.9988947000238112,309.46872629999416,kp4,309.46872629999416,None,305.2997588000144,307.314218399988,True,3.0,['r'],True,0.25,0.25,0.0,0.0,1.0,0.5118595071429148,0.0173578324831762,unsucc_cost,0.0,1.0,307.314218399988,None,kp4,2,2023-03-24_11h26.51.253,threat_forest,2021.2.3,60.03673047531552,True,20.0,0.4583333333333333,0.4255952380952381,-1.625,-1.2908163265306123,1,0,1,-0.0011059112706915289,0.0173578324831762,0.25,0.25,0.25,1.0,-1.25,-1.25,1.75,1.75,1.0,1.0,-1.0,3.0,0,0,1
8.0,0.0,8.0,0.0,2.0,0.0,2.0,0.0,,,,left,0.4795365000027232,313.75841110001784,kp4,313.75841110001784,None,305.2997588000144,307.314218399988,True,1.0,['r'],True,0.25,0.25,0.0,0.0,1.0,0.5118595071429148,0.0158222967705118,succ_gain,0.0,2.0,312.509467899974,None,kp4,2,2023-03-24_11h26.51.253,threat_forest,2021.2.3,60.03673047531552,True,20.0,0.4583333333333333,0.4255952380952381,-1.625,-1.2908163265306123,1,0,1,-0.734935266590686,0.0158222967705118,1.0,0.25,0.25,1.0,-1.25,-1.25,-0.25,0.0,1.0,1.0,-1.0,1.0,1,0,1
8.0,0.0,8.0,0.0,3.0,0.0,3.0,0.0,,,,right,1.819992600008845,319.08695650001755,kp4,319.08695650001755,None,305.2997588000144,307.314218399988,False,2.0,['r'],True,0.25,0.25,0.0,0.0,1.0,0.5118595071429148,0.0096239631558642,wait_cost,0.0,1.0,316.2725466999691,None,kp4,2,2023-03-24_11h26.51.253,threat_forest,2021.2.3,60.03673047531552,False,20.0,0.4583333333333333,0.4255952380952381,-1.625,-1.2908163265306123,1,0,0,0.5988324351512321,0.0096239631558642,0.25,0.25,0.25,1.0,-1.25,-1.25,0.75,0.75,1.0,1.0,1.0,2.0,0,0,1
8.0,0.0,8.0,0.0,4.0,0.0,4.0,0.0,,,,right,0.362901900021825,324.7424836999853,kp4,320.935183900001,322.949688099965,324.7424836999853,None,True,1.0,['r'],False,0.2222222222222222,0.6666666666666666,0.6666666666666666,2.0,1.0,0.77250688571426,0.0540123456790123,fight_cost,1.0,0.0,322.949688099965,None,kp4,2,2023-03-24_11h26.51.253,threat_forest,2021.2.3,60.03673047531552,True,20.0,0.4583333333333333,0.4255952380952381,-1.625,-1.2908163265306123,0,0,1,-1.0136227291145836,0.0540123456790123,1.0,0.2222222222222222,0.6666666666666666,0.33333333333333337,-2.0,-2.0,-1.0,0.0,0.0,1.0,-1.0,1.0,1,0,0
9.0,0.0,9.0,0.0,0.0,0.0,0.0,0.0,329.5484361000126,333.04173840000294,None,left,1.359784500033129,334.2186980000115,kp4,329.5484361000126,333.04173840000294,334.2186980000115,None,False,5.0,['r'],False,0.2,0.2,0.0,0.0,1.0,0.4554859150035951,-0.0328286525992537,wait_cost,1.0,4.0,,,kp4,2,2023-03-24_11h26.51.253,threat_forest,2021.2.3,60.03673047531552,False,39.0,0.43333333333333335,0.4458333333333333,-1.2000000000000002,-1.4125,1,0,0,0.3073262313345115,-0.0328286525992537,0.2,0.2,0.2,1.0,-1.4000000000000001,-1.4000000000000001,3.5999999999999996,3.5999999999999996,0.0,1.0,-1.0,5.0,0,0,1
9.0,0.0,9.0,0.0,1.0,0.0,1.0,0.0,,,,left,1.3974448000080884,339.1235493000131,kp4,329.5484361000126,333.04173840000294,339.1235493000131,None,False,4.0,['r'],False,0.2,0.2,0.0,0.0,1.0,0.4554859150035951,-0.0236723026638894,wait_cost,1.0,3.0,337.6194841999677,None,kp4,2,2023-03-24_11h26.51.253,threat_forest,2021.2.3,60.03673047531552,False,39.0,0.43333333333333335,0.4458333333333333,-1.2000000000000002,-1.4125,1,0,0,0.3346454261672493,-0.0236723026638894,0.2,0.2,0.2,1.0,-1.4000000000000001,-1.4000000000000001,2.5999999999999996,2.5999999999999996,0.0,1.0,-1.0,4.0,0,0,1
9.0,0.0,9.0,0.0,2.0,0.0,2.0,0.0,,,,left,0.5092680999659933,345.537545899977,kp4,345.537545899977,None,340.55058059998555,342.5648321000044,True,3.0,['r'],True,0.4444444444444445,0.6666666666666666,0.3333333333333333,1.0,1.0,0.9656336071428248,0.0667190299581702,fight_cost,0.0,0.0,342.5648321000044,None,kp4,2,2023-03-24_11h26.51.253,threat_forest,2021.2.3,60.03673047531552,True,39.0,0.43333333333333335,0.4458333333333333,-1.2000000000000002,-1.4125,1,0,1,-0.6747806821092074,0.0667190299581702,0.4444444444444445,0.4444444444444445,0.6666666666666666,0.6666666666666667,-1.0,-1.0,2.0,2.0,1.0,1.0,-1.0,3.0,0,0,1
10.0,0.0,10.0,0.0,0.0,0.0,0.0,0.0,350.2798119999934,353.7874704999849,None,left,0.4834788999869488,355.4131410999689,kp4,355.4131410999689,None,350.2798119999934,353.7874704999849,True,5.0,['r'],True,0.2448979591836734,0.2857142857142857,0.1428571428571428,1.0,2.0,0.8400769154957735,-0.0256214500174809,unsucc_cost,0.0,3.0,,,kp4,2,2023-03-24_11h26.51.253,threat_forest,2021.2.3,60.03673047531552,True,29.0,0.47619047619047616,0.45476190476190476,-0.8594104308390023,-1.0297052154195012,0,0,1,-0.7267476051921354,-0.0256214500174809,0.2448979591836734,0.2448979591836734,0.2857142857142857,0.8571428571428572,-1.2857142857142856,-1.163265306122449,3.836734693877551,3.836734693877551,1.0,2.0,-1.0,5.0,0,0,0
10.0,0.0,10.0,0.0,1.0,0.0,1.0,0.0,,,,right,0.4832176000345498,360.15130819997285,kp4,360.15130819997285,None,350.2798119999934,353.7874704999849,False,3.0,['r'],True,0.2448979591836734,0.2857142857142857,0.1428571428571428,1.0,2.0,0.8400769154957735,0.0286218062243927,wait_cost,0.0,2.0,357.933636199974,None,kp4,2,2023-03-24_11h26.51.253,threat_forest,2021.2.3,60.03673047531552,False,29.0,0.47619047619047616,0.45476190476190476,-0.8594104308390023,-1.0297052154195012,0,0,0,-0.7272882091123049,0.0286218062243927,0.2448979591836734,0.2448979591836734,0.2857142857142857,0.8571428571428572,-1.2857142857142856,-1.163265306122449,1.836734693877551,1.836734693877551,1.0,2.0,-1.0,3.0,0,0,0
10.0,0.0,10.0,0.0,2.0,0.0,2.0,0.0,,,,right,1.3907175000058487,366.14609200001,kp4,360.6648398999823,362.6793202999979,366.14609200001,None,True,2.0,['r'],False,0.4444444444444445,0.6666666666666666,0.3333333333333333,1.0,2.0,0.9656336071428248,0.0758044114883349,unsucc_cost,1.0,0.0,362.6793202999979,None,kp4,2,2023-03-24_11h26.51.253,threat_forest,2021.2.3,60.03673047531552,True,29.0,0.47619047619047616,0.45476190476190476,-0.8594104308390023,-1.0297052154195012,1,0,1,0.32981980101845826,0.0758044114883349,0.4444444444444445,0.4444444444444445,0.6666666666666666,0.6666666666666667,-0.3333333333333335,-0.5555555555555556,1.4444444444444444,1.4444444444444444,0.0,2.0,-1.0,2.0,0,0,1
11.0,0.0,11.0,0.0,0.0,0.0,0.0,0.0,372.2847761000157,375.780616700009,None,right,0.8329373000306077,376.6633165999665,kp4,372.2847761000157,375.780616700009,376.6633165999665,None,True,5.0,['p'],False,0.46875,0.625,0.25,2.0,1.0,0.9634951148421658,-0.0023436289892617,succ_gain,1.0,6.0,,,kp4,2,2023-03-24_11h26.51.253,threat_forest,2021.2.3,60.03673047531552,True,38.0,0.6125,0.544345238095238,-0.5218750000000001,-0.6906427154195012,0,0,1,-0.18279690971952758,-0.0023436289892617,0.46875,0.46875,0.625,0.75,-0.875,-0.84375,4.15625,4.15625,0.0,1.0,-1.0,5.0,0,0,0
11.0,0.0,11.0,0.0,1.0,0.0,1.0,0.0,,,,right,0.5829074999783188,383.2180908999872,kp4,383.2180908999872,None,377.51615519996267,379.53031249996275,False,6.0,['p'],True,0.6,0.6,0.0,0.0,1.0,0.6126016192893442,-0.0143872573728561,wait_cost,0.0,5.0,379.5303124999628,None,kp4,2,2023-03-24_11h26.51.253,threat_forest,2021.2.3,60.03673047531552,False,38.0,0.6125,0.544345238095238,-0.5218750000000001,-0.6906427154195012,1,1,0,-0.5397267673496253,-0.0143872573728561,0.6,0.6,0.6,1.0,-0.20000000000000007,-0.20000000000000007,5.8,5.8,1.0,1.0,1.0,6.0,0,1,1
11.0,0.0,11.0,0.0,2.0,0.0,2.0,0.0,,,,left,1.3564880000194537,386.61778859997867,kp4,383.8267448999686,385.8412301999633,386.61778859997867,None,False,5.0,['p'],False,0.46875,0.625,0.25,2.0,1.0,0.9634951148421658,-0.0027008940696716,wait_cost,1.0,4.0,385.8412301999633,None,kp4,2,2023-03-24_11h26.51.253,threat_forest,2021.2.3,60.03673047531552,False,38.0,0.6125,0.544345238095238,-0.5218750000000001,-0.6906427154195012,0,0,0,0.30489900679644816,-0.0027008940696716,0.46875,0.46875,0.625,0.75,-0.875,-0.84375,4.15625,4.15625,0.0,1.0,-1.0,5.0,0,0,0
11.0,0.0,11.0,0.0,3.0,0.0,3.0,0.0,,,,left,0.4488573999842629,392.158649399993,kp4,392.158649399993,None,388.0071204999695,390.0206557000056,True,4.0,['p'],True,0.6,0.6,0.0,0.0,1.0,0.6126016192893442,0.1089178344726562,succ_gain,0.0,5.0,390.0206557000056,None,kp4,2,2023-03-24_11h26.51.253,threat_forest,2021.2.3,60.03673047531552,True,38.0,0.6125,0.544345238095238,-0.5218750000000001,-0.6906427154195012,1,1,1,-0.8010500363735947,0.1089178344726562,0.6,0.6,0.6,1.0,-0.20000000000000007,-0.20000000000000007,3.8,3.8,1.0,1.0,-1.0,4.0,0,1,1
11.0,0.0,11.0,0.0,4.0,0.0,4.0,0.0,,,,right,1.2065156000317074,396.0341715000104,kp4,396.0341715000104,None,388.0071204999695,390.0206557000056,False,5.0,['p'],True,0.6,0.6,0.0,0.0,1.0,0.6126016192893442,-0.11344140625,wait_cost,0.0,4.0,394.6496752999956,None,kp4,2,2023-03-24_11h26.51.253,threat_forest,2021.2.3,60.03673047531552,False,38.0,0.6125,0.544345238095238,-0.5218750000000001,-0.6906427154195012,1,1,0,0.18773653598834034,-0.11344140625,0.0,0.6,0.6,1.0,-0.20000000000000007,-0.20000000000000007,4.8,4.8,1.0,1.0,1.0,5.0,0,1,1
11.0,0.0,11.0,0.0,5.0,0.0,5.0,0.0,,,,left,1.1782922000274991,402.1566881999606,kp4,397.2644644000102,399.27857049996965,402.1566881999606,None,False,4.0,['p'],False,0.46875,0.625,0.25,2.0,1.0,0.9634951148421658,-0.238134765625,wait_cost,1.0,3.0,399.2785704999697,None,kp4,2,2023-03-24_11h26.51.253,threat_forest,2021.2.3,60.03673047531552,False,38.0,0.6125,0.544345238095238,-0.5218750000000001,-0.6906427154195012,0,0,0,0.16406610203222913,-0.238134765625,0.0,0.46875,0.625,0.75,-0.875,-0.84375,3.15625,3.15625,0.0,1.0,-1.0,4.0,0,0,0
11.0,0.0,11.0,0.0,6.0,0.0,6.0,0.0,,,,right,0.6274573999689892,408.29320020001614,kp4,408.29320020001614,None,403.35859199997503,405.37298539996846,False,3.0,['p'],True,0.6,0.6,0.0,0.0,1.0,0.6126016192893442,-0.18625,wait_cost,0.0,2.0,405.37298539996846,None,kp4,2,2023-03-24_11h26.51.253,threat_forest,2021.2.3,60.03673047531552,False,38.0,0.6125,0.544345238095238,-0.5218750000000001,-0.6906427154195012,1,1,0,-0.46607949877636107,-0.18625,0.0,0.6,0.6,1.0,-0.20000000000000007,-0.20000000000000007,2.8,2.8,1.0,1.0,-1.0,3.0,0,1,1
11.0,0.0,11.0,0.0,7.0,0.0,7.0,0.0,,,,left,1.305307400005404,413.1114757999894,kp4,408.9553479999886,410.96770310000284,413.1114757999894,None,False,2.0,['p'],False,0.46875,0.625,0.25,2.0,1.0,0.9634951148421658,-0.53125,wait_cost,1.0,1.0,410.9677031000029,None,kp4,2,2023-03-24_11h26.51.253,threat_forest,2021.2.3,60.03673047531552,False,38.0,0.6125,0.544345238095238,-0.5218750000000001,-0.6906427154195012,0,0,0,0.2664385685954983,-0.53125,0.0,0.46875,0.625,0.75,-0.875,-0.84375,1.15625,1.15625,0.0,1.0,-1.0,2.0,0,0,0
12.0,0.0,12.0,0.0,0.0,0.0,0.0,0.0,418.7254782000091,422.2404843000113,None,left,1.3377986999694258,425.3586820999626,kp4,418.7254782000091,422.2404843000113,425.3586820999626,None,False,5.0,['p'],False,0.36,0.6,0.4,2.0,1.0,0.9801625908629508,-0.019480620685,wait_cost,1.0,4.0,,,kp4,2,2023-03-24_11h26.51.253,threat_forest,2021.2.3,60.03673047531552,False,0.0,0.55,0.58125,-0.9100000000000001,-0.7159375000000001,0,0,0,0.29102550193418897,-0.019480620685,0.36,0.36,0.6,0.6,-1.4000000000000004,-1.3200000000000003,3.6799999999999997,3.6799999999999997,0.0,1.0,-1.0,5.0,0,0,0
12.0,0.0,12.0,0.0,1.0,0.0,1.0,0.0,,,,left,0.6274923000019044,430.4418502000044,kp4,430.4418502000044,None,426.7200415999978,428.7344015999697,True,4.0,['p'],True,0.5,0.5,0.0,0.0,1.0,0.6309297535714574,0.102124415,unsucc_cost,0.0,2.0,428.7344015999697,None,kp4,2,2023-03-24_11h26.51.253,threat_forest,2021.2.3,60.03673047531552,True,0.0,0.55,0.58125,-0.9100000000000001,-0.7159375000000001,1,0,1,-0.4660238789647862,0.102124415,0.5,0.5,0.5,1.0,-0.5,-0.5,3.5,3.5,1.0,1.0,-1.0,4.0,0,0,1
12.0,0.0,12.0,0.0,2.0,0.0,2.0,0.0,,,,left,0.6437475000275299,434.0464703000034,kp4,434.0464703000034,None,426.7200415999978,428.7344015999697,True,2.0,['p'],True,0.5,0.5,0.0,0.0,1.0,0.6309297535714574,0.0700685,unsucc_cost,0.0,0.0,433.11376259999815,None,kp4,2,2023-03-24_11h26.51.253,threat_forest,2021.2.3,60.03673047531552,True,0.0,0.55,0.58125,-0.9100000000000001,-0.7159375000000001,1,0,1,-0.4404487104641125,0.0700685,0.5,0.5,0.5,1.0,-0.5,-0.5,1.5,1.5,1.0,1.0,-1.0,2.0,0,0,1
13.0,0.0,13.0,0.0,0.0,0.0,0.0,0.0,438.0637470000074,441.5655218000175,None,left,0.6330352000077255,442.814618000004,kp4,442.814618000004,None,438.0637470000074,441.56552180001745,True,5.0,['p'],True,0.4444444444444445,0.6666666666666666,0.3333333333333333,1.0,2.0,0.9656336071428248,0.0253949986159629,unsucc_cost,0.0,3.0,,,kp4,2,2023-03-24_11h26.51.253,threat_forest,2021.2.3,60.03673047531552,True,15.0,0.4833333333333333,0.5166666666666666,-0.8977777777777778,-0.903888888888889,1,0,1,-0.4572292501569865,0.0253949986159629,0.4444444444444445,0.4444444444444445,0.6666666666666666,0.6666666666666667,-0.3333333333333335,-0.5555555555555556,4.444444444444445,4.444444444444445,1.0,2.0,-1.0,5.0,0,0,1
13.0,0.0,13.0,0.0,1.0,0.0,1.0,0.0,,,,left,0.5863356999470852,448.1680839000037,kp4,448.1680839000037,None,438.0637470000074,441.56552180001745,True,3.0,['p'],True,0.4444444444444445,0.6666666666666666,0.3333333333333333,1.0,2.0,0.9656336071428248,0.0878193674113966,fight_cost,0.0,0.0,445.4855878999806,None,kp4,2,2023-03-24_11h26.51.253,threat_forest,2021.2.3,60.03673047531552,True,15.0,0.4833333333333333,0.5166666666666666,-0.8977777777777778,-0.903888888888889,1,0,1,-0.533862786626772,0.0878193674113966,0.4444444444444445,0.4444444444444445,0.6666666666666666,0.6666666666666667,-0.3333333333333335,-0.5555555555555556,2.4444444444444446,2.4444444444444446,1.0,2.0,-1.0,3.0,0,0,1
