miniblock.thisRepN,miniblock.thisTrialN,miniblock.thisN,miniblock.thisIndex,day.thisRepN,day.thisTrialN,day.thisN,day.thisIndex,forest.started,fixation_forest.started,fixation_forest.stopped,key_resp.keys,key_resp.rt,key_resp.started,Subject_ID,weather_left.started,weather_left.stopped,weather_right.started,weather_right.stopped,foraging T/F,in_LP,p/r heuristic,good_weather.T/F,p_succ_correct,p_succ_uncorrected,r_threat,n_oponents,gain_if_succ,weather_entropy,OP_value_difference,action_outcome,forest_side_L=0_R=1,out_LP,fixation_day.started,fixation_day.stopped,participant,session,date,expName,psychopyVersion,frameRate,foraging T/F NaNs,fora_NR,forest_mean_p,mvt_cutoff_p,forest_mean_ev,mvt_cutoff_ev,mvt_policy_eg,mvt_policy_p,fora_response,logRT,optimal policy values,multi-heuristic policy,** $\mathit{p}$ success,* $\mathit{p}$ gain,* $\mathit{r}$ predator,expected gain naive,expected gain correct,expected state no bounds,expected state with bounds,weather type,gain magnitude,win stay lose shift,continuous energy state,** binary energy state,** wait when safe,$\mathit{p}$ success based MVT,marginal value,$\mathit{OP}$ values + cap
0.0,0.0,0.0,0.0,0.0,0.0,0.0,0.0,74.77420830004849,78.27653100003954,,left,2.629465200006962,79.32604070007801,tb12,79.32604070007801,,74.77420830004849,78.27653100003954,True,4.0,['p'],True,0.2777777777777778,0.3333333333333333,0.1666666666666666,1.0,2.0,0.8929352898779304,0.0253296004142655,succ_gain,0.0,6.0,,,tb12,1,2022-04-08_11h57.49.347,threat_forest,2021.2.3,60.01734500504118,True,54.0,0.2777777777777778,0.2777777777777778,-1.1882716049382718,-1.1882716049382718,1,0,1.0,0.9667804795071137,0.0253296004142655,0.2777777777777778,0.2777777777777778,0.3333333333333333,0.1666666666666666,-0.16666666666666652,-0.05555555555555558,3.9444444444444446,3.9444444444444446,1.0,2.0,,4.0,0,1,0,1,0.0253296004142655
0.0,0.0,0.0,0.0,1.0,0.0,1.0,0.0,,,,left,1.3089862000197172,87.18017810001038,tb12,81.97682570002507,83.97655410005245,87.18017810001038,,False,6.0,['p'],False,0.1975308641975308,0.2222222222222222,0.1111111111111111,1.0,2.0,0.7461067557824965,-0.0870428740192486,wait_cost,1.0,5.0,83.97655410005245,,tb12,1,2022-04-08_11h57.49.347,threat_forest,2021.2.3,60.01734500504118,False,54.0,0.2777777777777778,0.2777777777777778,-1.1882716049382718,-1.1882716049382718,0,0,0.0,0.2692529444884767,-0.0870428740192486,0.1975308641975308,0.1975308641975308,0.2222222222222222,0.1111111111111111,-0.4444444444444444,-0.32098765432098775,5.679012345679013,5.679012345679013,0.0,2.0,1.0,6.0,0,1,0,0,-0.0870428740192486
0.0,0.0,0.0,0.0,2.0,0.0,2.0,0.0,,,,right,1.5988177000544963,92.1272393000545,tb12,92.1272393000545,,88.51028560008854,90.5100246000802,False,5.0,['p'],True,0.2777777777777778,0.3333333333333333,0.1666666666666666,1.0,2.0,0.8929352898779304,0.0481283927074388,wait_cost,0.0,4.0,90.5100246000802,,tb12,1,2022-04-08_11h57.49.347,threat_forest,2021.2.3,60.01734500504118,False,54.0,0.2777777777777778,0.2777777777777778,-1.1882716049382718,-1.1882716049382718,1,0,0.0,0.4692644186309382,0.0481283927074388,0.2777777777777778,0.2777777777777778,0.3333333333333333,0.1666666666666666,-0.16666666666666652,-0.05555555555555558,4.944444444444445,4.944444444444445,1.0,2.0,-1.0,5.0,0,1,0,1,0.0481283927074388
0.0,0.0,0.0,0.0,3.0,0.0,3.0,0.0,,,,right,1.866705600055866,98.09396590001415,tb12,98.09396590001415,,88.51028560008854,90.5100246000802,False,4.0,['p'],True,0.2777777777777778,0.3333333333333333,0.1666666666666666,1.0,2.0,0.8929352898779304,0.0504138649288755,wait_cost,0.0,3.0,95.7434149000328,,tb12,1,2022-04-08_11h57.49.347,threat_forest,2021.2.3,60.01734500504118,False,54.0,0.2777777777777778,0.2777777777777778,-1.1882716049382718,-1.1882716049382718,1,0,0.0,0.6241751660282714,0.0504138649288755,0.2777777777777778,0.2777777777777778,0.3333333333333333,0.1666666666666666,-0.16666666666666652,-0.05555555555555558,3.9444444444444446,3.9444444444444446,1.0,2.0,-1.0,4.0,0,1,0,1,0.0504138649288755
0.0,0.0,0.0,0.0,4.0,0.0,4.0,0.0,,,,right,1.8519413999747485,105.26082180009688,tb12,105.26082180009688,,88.51028560008854,90.5100246000802,False,3.0,['p'],True,0.2777777777777778,0.3333333333333333,0.1666666666666666,1.0,2.0,0.8929352898779304,0.1520919067215363,wait_cost,0.0,2.0,101.9768492000876,,tb12,1,2022-04-08_11h57.49.347,threat_forest,2021.2.3,60.01734500504118,False,54.0,0.2777777777777778,0.2777777777777778,-1.1882716049382718,-1.1882716049382718,1,0,0.0,0.6162344942410681,0.1520919067215363,0.2777777777777778,0.2777777777777778,0.3333333333333333,0.1666666666666666,-0.16666666666666652,-0.05555555555555558,2.9444444444444446,2.9444444444444446,1.0,2.0,-1.0,3.0,0,1,0,1,0.1520919067215363
0.0,0.0,0.0,0.0,5.0,0.0,5.0,0.0,,,,right,2.318957299925387,110.11068670009264,tb12,110.11068670009264,,88.51028560008854,90.5100246000802,False,2.0,['p'],True,0.2777777777777778,0.3333333333333333,0.1666666666666666,1.0,2.0,0.8929352898779304,0.0401234567901234,wait_cost,0.0,1.0,109.14365300000644,,tb12,1,2022-04-08_11h57.49.347,threat_forest,2021.2.3,60.01734500504118,False,54.0,0.2777777777777778,0.2777777777777778,-1.1882716049382718,-1.1882716049382718,1,0,0.0,0.8411176449625972,0.0401234567901234,0.2777777777777778,0.2777777777777778,0.3333333333333333,0.1666666666666666,-0.16666666666666652,-0.05555555555555558,1.9444444444444444,1.9444444444444444,1.0,2.0,-1.0,2.0,0,1,0,1,0.0401234567901234
0.0,0.0,0.0,0.0,6.0,0.0,6.0,0.0,,,,left,2.376938499975949,116.02751010004432,tb12,116.02751010004432,,88.51028560008854,90.5100246000802,True,1.0,['p'],True,0.2777777777777778,0.3333333333333333,0.1666666666666666,1.0,2.0,0.8929352898779304,0.2777777777777777,unsucc_cost,0.0,0.0,114.460485800053,,tb12,1,2022-04-08_11h57.49.347,threat_forest,2021.2.3,60.01734500504118,True,54.0,0.2777777777777778,0.2777777777777778,-1.1882716049382718,-1.1882716049382718,1,0,1.0,0.8658133150841324,0.2777777777777777,1.0,0.2777777777777778,0.3333333333333333,0.1666666666666666,-0.16666666666666652,-0.05555555555555558,0.9444444444444444,1.0,1.0,2.0,-1.0,1.0,1,1,0,1,0.625
1.0,0.0,1.0,0.0,0.0,0.0,0.0,0.0,121.69325000001118,125.19387800002004,,right,1.7663077000761405,126.56318700010888,tb12,121.69325000001118,125.19387800002004,126.56318700010888,,True,5.0,['r'],False,0.345679012345679,0.4444444444444444,0.2222222222222222,2.0,2.0,0.9685033186841367,-0.0052446797245716,unsucc_cost,1.0,3.0,,,tb12,1,2022-04-08_11h57.49.347,threat_forest,2021.2.3,60.01734500504118,True,52.0,0.43650793650793646,0.3571428571428571,-0.5626102292768962,-0.875440917107584,1,0,1.0,0.568891322608212,-0.0052446797245716,0.345679012345679,0.345679012345679,0.4444444444444444,0.2222222222222222,0.11111111111111105,0.16049382716049376,5.160493827160494,5.160493827160494,0.0,2.0,-1.0,5.0,0,1,0,1,-0.0052446797245716
1.0,0.0,1.0,0.0,1.0,0.0,1.0,0.0,,,,right,1.613425699993968,133.79424620000646,tb12,121.69325000001118,125.19387800002004,133.79424620000646,,True,3.0,['r'],False,0.345679012345679,0.4444444444444444,0.2222222222222222,2.0,2.0,0.9685033186841367,0.0688188688757238,figh_cost,1.0,0.0,130.3605525000021,,tb12,1,2022-04-08_11h57.49.347,threat_forest,2021.2.3,60.01734500504118,True,52.0,0.43650793650793646,0.3571428571428571,-0.5626102292768962,-0.875440917107584,1,0,1.0,0.47835968248397076,0.0688188688757238,0.345679012345679,0.345679012345679,0.4444444444444444,0.2222222222222222,0.11111111111111105,0.16049382716049376,3.1604938271604937,3.1604938271604937,0.0,2.0,-1.0,3.0,0,1,0,1,0.0688188688757238
2.0,0.0,2.0,0.0,0.0,0.0,0.0,0.0,138.56607610010542,142.0773786000209,,left,1.4704790000105277,143.12808180006687,tb12,143.12808180006687,,138.56607610010542,142.0773786000209,True,4.0,['p'],True,0.4444444444444445,0.6666666666666666,0.3333333333333333,1.0,2.0,0.9656336071428248,0.0662691154803637,succ_gain,0.0,6.0,,,tb12,1,2022-04-08_11h57.49.347,threat_forest,2021.2.3,60.01734500504118,True,25.0,0.4444444444444444,0.44047619047619047,-0.8333333333333334,-0.6979717813051147,1,1,1.0,0.3855881980602482,0.0662691154803637,0.4444444444444445,0.4444444444444445,0.6666666666666666,0.3333333333333333,0.6666666666666665,0.4444444444444444,4.444444444444445,4.444444444444445,1.0,2.0,-1.0,4.0,0,1,1,1,0.0662691154803637
2.0,0.0,2.0,0.0,1.0,0.0,1.0,0.0,,,,left,0.7870961000444368,149.22780710004736,tb12,149.22780710004736,,138.56607610010542,142.0773786000209,True,6.0,['p'],True,0.4444444444444445,0.6666666666666666,0.3333333333333333,1.0,2.0,0.9656336071428248,-0.0736168267032464,figh_cost,0.0,3.0,146.62789010000415,,tb12,1,2022-04-08_11h57.49.347,threat_forest,2021.2.3,60.01734500504118,True,25.0,0.4444444444444444,0.44047619047619047,-0.8333333333333334,-0.6979717813051147,1,1,1.0,-0.2394049286872774,-0.0736168267032464,0.4444444444444445,0.4444444444444445,0.6666666666666666,0.3333333333333333,0.6666666666666665,0.4444444444444444,6.444444444444445,6.444444444444445,1.0,2.0,1.0,6.0,0,1,1,1,-0.0736168267032464
2.0,0.0,2.0,0.0,2.0,0.0,2.0,0.0,,,,left,0.8999748000642285,155.044940300053,tb12,155.044940300053,,138.56607610010542,142.0773786000209,True,3.0,['p'],True,0.4444444444444445,0.6666666666666666,0.3333333333333333,1.0,2.0,0.9656336071428248,0.1121399176954732,unsucc_cost,0.0,1.0,152.04431970010046,,tb12,1,2022-04-08_11h57.49.347,threat_forest,2021.2.3,60.01734500504118,True,25.0,0.4444444444444444,0.44047619047619047,-0.8333333333333334,-0.6979717813051147,1,1,1.0,-0.10538851597846664,0.1121399176954732,0.4444444444444445,0.4444444444444445,0.6666666666666666,0.3333333333333333,0.6666666666666665,0.4444444444444444,3.4444444444444446,3.4444444444444446,1.0,2.0,-1.0,3.0,0,1,1,1,0.1121399176954732
2.0,0.0,2.0,0.0,3.0,0.0,3.0,0.0,,,,left,1.076657099998556,160.87813130009454,tb12,160.87813130009454,,138.56607610010542,142.0773786000209,True,1.0,['p'],True,0.4444444444444445,0.6666666666666666,0.3333333333333333,1.0,2.0,0.9656336071428248,0.2222222222222222,figh_cost,0.0,0.0,157.96102510008495,,tb12,1,2022-04-08_11h57.49.347,threat_forest,2021.2.3,60.01734500504118,True,25.0,0.4444444444444444,0.44047619047619047,-0.8333333333333334,-0.6979717813051147,1,1,1.0,0.07386096307672212,0.2222222222222222,1.0,0.4444444444444445,0.6666666666666666,0.3333333333333333,0.6666666666666665,0.4444444444444444,1.4444444444444444,1.4444444444444444,1.0,2.0,-1.0,1.0,1,1,1,1,0.625
3.0,0.0,3.0,0.0,0.0,0.0,0.0,0.0,164.54800990002695,168.06112970004324,,right,1.6978186999913305,168.89524810004514,tb12,164.54800990002695,168.06112970004324,168.89524810004514,,True,5.0,['r'],False,0.2222222222222222,0.6666666666666666,0.6666666666666666,2.0,2.0,0.77250688571426,-0.023281607963558,figh_cost,1.0,2.0,,,tb12,1,2022-04-08_11h57.49.347,threat_forest,2021.2.3,60.01734500504118,True,34.0,0.4583333333333333,0.45138888888888884,-1.3888888888888888,-1.1111111111111112,0,0,1.0,0.5293443095097078,-0.023281607963558,0.2222222222222222,0.2222222222222222,0.6666666666666666,0.6666666666666666,-0.3333333333333335,-0.7777777777777779,4.222222222222222,4.222222222222222,0.0,2.0,-1.0,5.0,0,1,0,0,-0.023281607963558
3.0,0.0,3.0,0.0,1.0,0.0,1.0,0.0,,,,right,1.5723442999878898,173.9284625001019,tb12,173.9284625001019,,170.6116503000958,172.6112095999997,False,2.0,['r'],True,0.25,0.25,0.0,0.0,2.0,0.5118595071429148,0.0110650198467983,wait_cost,0.0,1.0,172.6112095999997,,tb12,1,2022-04-08_11h57.49.347,threat_forest,2021.2.3,60.01734500504118,False,34.0,0.4583333333333333,0.45138888888888884,-1.3888888888888888,-1.1111111111111112,1,0,0.0,0.4525676903740902,0.0110650198467983,0.25,0.25,0.25,0.0,0.0,0.0,2.0,2.0,1.0,2.0,-1.0,2.0,0,1,0,1,0.0110650198467983
3.0,0.0,3.0,0.0,2.0,0.0,2.0,0.0,,,,right,1.2885002000257373,179.77846770000178,tb12,175.52819880004972,177.52811260009184,179.77846770000178,,True,1.0,['r'],False,0.2222222222222222,0.6666666666666666,0.6666666666666666,2.0,2.0,0.77250688571426,0.0614298893318472,figh_cost,1.0,0.0,177.52811260009184,,tb12,1,2022-04-08_11h57.49.347,threat_forest,2021.2.3,60.01734500504118,True,34.0,0.4583333333333333,0.45138888888888884,-1.3888888888888888,-1.1111111111111112,0,0,1.0,0.25347890634949244,0.0614298893318472,1.0,0.2222222222222222,0.6666666666666666,0.6666666666666666,-0.3333333333333335,-0.7777777777777779,0.2222222222222221,1.0,0.0,2.0,-1.0,1.0,1,1,0,0,0.625
4.0,0.0,4.0,0.0,0.0,0.0,0.0,0.0,184.0498308000388,187.561450600042,,right,1.549255899968557,188.54528630001005,tb12,184.0498308000388,187.561450600042,188.54528630001005,,True,4.0,['r'],False,0.4081632653061224,0.5714285714285714,0.2857142857142857,2.0,2.0,0.9885754083994552,0.0102904310319958,succ_gain,1.0,6.0,,,tb12,1,2022-04-08_11h57.49.347,threat_forest,2021.2.3,60.01734500504118,True,14.0,0.5357142857142857,0.49702380952380953,-0.326530612244898,-0.8577097505668934,1,0,1.0,0.43777475112686876,0.0102904310319958,0.4081632653061224,0.4081632653061224,0.5714285714285714,0.2857142857142857,0.4285714285714285,0.346938775510204,4.346938775510204,4.346938775510204,0.0,2.0,-1.0,4.0,0,1,0,1,0.0102904310319958
4.0,0.0,4.0,0.0,1.0,0.0,1.0,0.0,,,,right,1.2773116999305785,194.32881210010964,tb12,184.0498308000388,187.561450600042,194.32881210010964,,True,6.0,['r'],False,0.4081632653061224,0.5714285714285714,0.2857142857142857,2.0,2.0,0.9885754083994552,-0.0789184913550894,unsucc_cost,1.0,4.0,192.11153320001904,,tb12,1,2022-04-08_11h57.49.347,threat_forest,2021.2.3,60.01734500504118,True,14.0,0.5357142857142857,0.49702380952380953,-0.326530612244898,-0.8577097505668934,1,0,1.0,0.24475763491705502,-0.0789184913550894,0.4081632653061224,0.4081632653061224,0.5714285714285714,0.2857142857142857,0.4285714285714285,0.346938775510204,6.346938775510204,6.346938775510204,0.0,2.0,1.0,6.0,0,1,0,1,-0.0789184913550894
4.0,0.0,4.0,0.0,2.0,0.0,2.0,0.0,,,,right,1.0457118999911472,199.96220720000565,tb12,184.0498308000388,187.561450600042,199.96220720000565,,True,4.0,['r'],False,0.4081632653061224,0.5714285714285714,0.2857142857142857,2.0,2.0,0.9885754083994552,0.0189972956406039,unsucc_cost,1.0,2.0,197.6284020000603,,tb12,1,2022-04-08_11h57.49.347,threat_forest,2021.2.3,60.01734500504118,True,14.0,0.5357142857142857,0.49702380952380953,-0.326530612244898,-0.8577097505668934,1,0,1.0,0.04469789748607362,0.0189972956406039,0.4081632653061224,0.4081632653061224,0.5714285714285714,0.2857142857142857,0.4285714285714285,0.346938775510204,4.346938775510204,4.346938775510204,0.0,2.0,-1.0,4.0,0,1,0,1,0.0189972956406039
4.0,0.0,4.0,0.0,3.0,0.0,3.0,0.0,,,,right,1.938621300039813,203.9122977000661,tb12,184.0498308000388,187.561450600042,203.9122977000661,,True,2.0,['r'],False,0.4081632653061224,0.5714285714285714,0.2857142857142857,2.0,2.0,0.9885754083994552,0.00099939757244,figh_cost,1.0,0.0,203.0284755000612,,tb12,1,2022-04-08_11h57.49.347,threat_forest,2021.2.3,60.01734500504118,True,14.0,0.5357142857142857,0.49702380952380953,-0.326530612244898,-0.8577097505668934,1,0,1.0,0.6619770503469774,0.00099939757244,0.4081632653061224,0.4081632653061224,0.5714285714285714,0.2857142857142857,0.4285714285714285,0.346938775510204,2.3469387755102042,2.3469387755102042,0.0,2.0,-1.0,2.0,0,1,0,1,0.00099939757244
5.0,0.0,5.0,0.0,0.0,0.0,0.0,0.0,210.0622581000207,213.56189760006964,,,,215.9625170000363,tb12,210.0622581000207,213.56189760006964,215.9625170000363,,True,4.0,['r'],False,0.5,0.5,0.0,0.0,2.0,0.6309297535714574,0.1161235291280864,wait_cost,1.0,3.0,,,tb12,1,2022-04-08_11h57.49.347,threat_forest,2021.2.3,60.01734500504118,,49.0,0.5833333333333333,0.5595238095238095,-0.888888888888889,-0.6077097505668935,1,0,,,0.1161235291280864,0.5,0.5,0.5,0.0,1.0,1.0,5.0,5.0,0.0,2.0,-1.0,4.0,0,1,0,1,0.1161235291280864
5.0,0.0,5.0,0.0,1.0,0.0,1.0,0.0,,,,right,1.5617458000779152,224.1461380000692,tb12,210.0622581000207,213.56189760006964,224.1461380000692,,True,3.0,['r'],False,0.5,0.5,0.0,0.0,2.0,0.6309297535714574,0.1821844993141289,unsucc_cost,1.0,1.0,220.96200830000453,,tb12,1,2022-04-08_11h57.49.347,threat_forest,2021.2.3,60.01734500504118,True,49.0,0.5833333333333333,0.5595238095238095,-0.888888888888889,-0.6077097505668935,1,0,1.0,0.44580429814695627,0.1821844993141289,0.5,0.5,0.5,0.0,1.0,1.0,4.0,4.0,0.0,2.0,-1.0,3.0,0,1,0,1,0.1821844993141289
5.0,0.0,5.0,0.0,2.0,0.0,2.0,0.0,,,,right,1.7701838999055326,230.89601160003804,tb12,210.0622581000207,213.56189760006964,230.89601160003804,,True,1.0,['r'],False,0.5,0.5,0.0,0.0,2.0,0.6309297535714574,0.257716049382716,succ_gain,1.0,3.0,227.72897920000835,,tb12,1,2022-04-08_11h57.49.347,threat_forest,2021.2.3,60.01734500504118,True,49.0,0.5833333333333333,0.5595238095238095,-0.888888888888889,-0.6077097505668935,1,0,1.0,0.5710834394404016,0.257716049382716,1.0,0.5,0.5,0.0,1.0,1.0,2.0,2.0,0.0,2.0,-1.0,1.0,1,1,0,1,0.625
5.0,0.0,5.0,0.0,3.0,0.0,3.0,0.0,,,,right,2.432587899966165,235.44624740001743,tb12,210.0622581000207,213.56189760006964,235.44624740001743,,True,3.0,['r'],False,0.5,0.5,0.0,0.0,2.0,0.6309297535714574,0.169753086419753,unsucc_cost,1.0,1.0,234.69546190008987,,tb12,1,2022-04-08_11h57.49.347,threat_forest,2021.2.3,60.01734500504118,True,49.0,0.5833333333333333,0.5595238095238095,-0.888888888888889,-0.6077097505668935,1,0,1.0,0.8889556700741349,0.169753086419753,0.5,0.5,0.5,0.0,1.0,1.0,4.0,4.0,0.0,2.0,1.0,3.0,0,1,0,1,0.169753086419753
5.0,0.0,5.0,0.0,4.0,0.0,4.0,0.0,,,,left,1.1175753000425177,242.02947960002348,tb12,242.02947960002348,,237.8956382001052,239.8958598000463,True,1.0,['r'],True,0.2222222222222222,0.6666666666666666,0.6666666666666666,2.0,2.0,0.77250688571426,0.1234567901234567,figh_cost,0.0,0.0,239.8958598000463,,tb12,1,2022-04-08_11h57.49.347,threat_forest,2021.2.3,60.01734500504118,True,49.0,0.5833333333333333,0.5595238095238095,-0.888888888888889,-0.6077097505668935,0,0,1.0,0.11116142782386494,0.1234567901234567,1.0,0.2222222222222222,0.6666666666666666,0.6666666666666666,-0.3333333333333335,-0.7777777777777779,0.2222222222222221,1.0,1.0,2.0,-1.0,1.0,1,1,0,0,0.625
6.0,0.0,6.0,0.0,0.0,0.0,0.0,0.0,247.7183327000821,251.22912450006697,,,,253.14662570005748,tb12,253.14662570005748,,247.7183327000821,251.22912450006697,True,5.0,['r'],True,0.5,0.5,0.0,0.0,1.0,0.6309297535714574,0.0653299800297634,wait_cost,0.0,4.0,,,tb12,1,2022-04-08_11h57.49.347,threat_forest,2021.2.3,60.01734500504118,,35.0,0.5357142857142857,0.5595238095238095,-0.7806122448979592,-0.8347505668934241,1,0,,,0.0653299800297634,0.5,0.5,0.5,0.0,0.5,0.5,5.5,5.5,1.0,1.0,-1.0,5.0,0,1,0,1,0.0653299800297634
6.0,0.0,6.0,0.0,1.0,0.0,1.0,0.0,,,,right,1.5770074999891222,261.6963465000736,tb12,261.6963465000736,,247.7183327000821,251.22912450006697,False,4.0,['r'],True,0.5,0.5,0.0,0.0,1.0,0.6309297535714574,0.0899569925716803,wait_cost,0.0,3.0,258.1458645000821,,tb12,1,2022-04-08_11h57.49.347,threat_forest,2021.2.3,60.01734500504118,False,35.0,0.5357142857142857,0.5595238095238095,-0.7806122448979592,-0.8347505668934241,1,0,0.0,0.45552906382826197,0.0899569925716803,0.5,0.5,0.5,0.0,0.5,0.5,4.5,4.5,1.0,1.0,-1.0,4.0,0,1,0,1,0.0899569925716803
6.0,0.0,6.0,0.0,2.0,0.0,2.0,0.0,,,,right,1.873112500063144,269.0967702000635,tb12,263.2961014000466,265.29599810007494,269.0967702000635,,True,3.0,['r'],False,0.4081632653061224,0.5714285714285714,0.2857142857142857,2.0,1.0,0.9885754083994552,0.0393590164311949,figh_cost,1.0,0.0,265.29599810007494,,tb12,1,2022-04-08_11h57.49.347,threat_forest,2021.2.3,60.01734500504118,True,35.0,0.5357142857142857,0.5595238095238095,-0.7806122448979592,-0.8347505668934241,0,0,1.0,0.6276014857602278,0.0393590164311949,0.4081632653061224,0.4081632653061224,0.5714285714285714,0.2857142857142857,-0.1428571428571428,-0.061224489795918435,2.9387755102040813,2.9387755102040813,0.0,1.0,-1.0,3.0,0,1,0,0,0.0393590164311949
7.0,0.0,7.0,0.0,0.0,0.0,0.0,0.0,274.6546240000753,278.1627836000407,,left,1.7935437000123784,278.8979595000856,tb12,274.6546240000753,278.1627836000407,278.8979595000856,,False,4.0,['p'],False,0.2592592592592592,0.3333333333333333,0.2222222222222222,2.0,2.0,0.9327883776363324,0.0085887169934886,wait_cost,1.0,3.0,,,tb12,1,2022-04-08_11h57.49.347,threat_forest,2021.2.3,60.01734500504118,False,53.0,0.5,0.5178571428571428,-0.8703703703703706,-0.8254913076341649,0,0,0.0,0.5841933834655249,0.0085887169934886,0.2592592592592592,0.2592592592592592,0.3333333333333333,0.2222222222222222,-0.3333333333333335,-0.18518518518518556,3.8148148148148144,3.8148148148148144,0.0,2.0,-1.0,4.0,0,1,0,0,0.0085887169934886
7.0,0.0,7.0,0.0,1.0,0.0,1.0,0.0,,,,left,1.2567764999112114,284.21311250003055,tb12,284.21311250003055,,280.7131067001028,282.7129556,True,3.0,['p'],True,0.4444444444444445,0.6666666666666666,0.3333333333333333,1.0,2.0,0.9656336071428248,0.0862014495831168,unsucc_cost,0.0,1.0,282.7129556,,tb12,1,2022-04-08_11h57.49.347,threat_forest,2021.2.3,60.01734500504118,True,53.0,0.5,0.5178571428571428,-0.8703703703703706,-0.8254913076341649,1,0,1.0,0.22855010943246198,0.0862014495831168,0.4444444444444445,0.4444444444444445,0.6666666666666666,0.3333333333333333,0.6666666666666665,0.4444444444444444,3.4444444444444446,3.4444444444444446,1.0,2.0,-1.0,3.0,0,1,0,1,0.0862014495831168
7.0,0.0,7.0,0.0,2.0,0.0,2.0,0.0,,,,left,1.294476900016889,288.73031990008894,tb12,288.73031990008894,,280.7131067001028,282.7129556,True,1.0,['p'],True,0.4444444444444445,0.6666666666666666,0.3333333333333333,1.0,2.0,0.9656336071428248,0.1956206490152873,succ_gain,0.0,3.0,287.4963269000873,,tb12,1,2022-04-08_11h57.49.347,threat_forest,2021.2.3,60.01734500504118,True,53.0,0.5,0.5178571428571428,-0.8703703703703706,-0.8254913076341649,1,0,1.0,0.25810667533558906,0.1956206490152873,1.0,0.4444444444444445,0.6666666666666666,0.3333333333333333,0.6666666666666665,0.4444444444444444,1.4444444444444444,1.4444444444444444,1.0,2.0,-1.0,1.0,1,1,0,1,0.625
7.0,0.0,7.0,0.0,3.0,0.0,3.0,0.0,,,,left,1.5522524999687448,294.24793890002184,tb12,290.0466786000179,292.046419100021,294.24793890002184,,False,3.0,['p'],False,0.2592592592592592,0.3333333333333333,0.2222222222222222,2.0,2.0,0.9327883776363324,-0.0509214569444209,wait_cost,1.0,2.0,292.046419100021,,tb12,1,2022-04-08_11h57.49.347,threat_forest,2021.2.3,60.01734500504118,False,53.0,0.5,0.5178571428571428,-0.8703703703703706,-0.8254913076341649,0,0,0.0,0.4397071018067412,-0.0509214569444209,0.2592592592592592,0.2592592592592592,0.3333333333333333,0.2222222222222222,-0.3333333333333335,-0.18518518518518556,2.8148148148148144,2.8148148148148144,0.0,2.0,1.0,3.0,0,1,0,0,-0.0509214569444209
7.0,0.0,7.0,0.0,4.0,0.0,4.0,0.0,,,,left,1.5195273999124763,299.2137810999993,tb12,290.0466786000179,292.046419100021,299.2137810999993,,False,2.0,['p'],False,0.2592592592592592,0.3333333333333333,0.2222222222222222,2.0,2.0,0.9327883776363324,-0.0925925925925926,wait_cost,1.0,1.0,297.82979550003074,,tb12,1,2022-04-08_11h57.49.347,threat_forest,2021.2.3,60.01734500504118,False,53.0,0.5,0.5178571428571428,-0.8703703703703706,-0.8254913076341649,0,0,0.0,0.41839936540198225,-0.0925925925925926,0.2592592592592592,0.2592592592592592,0.3333333333333333,0.2222222222222222,-0.3333333333333335,-0.18518518518518556,1.8148148148148144,1.8148148148148144,0.0,2.0,-1.0,2.0,0,1,0,0,-0.0925925925925926
7.0,0.0,7.0,0.0,5.0,0.0,5.0,0.0,,,,right,1.380406800075434,306.5307292001089,tb12,290.0466786000179,292.046419100021,306.5307292001089,,True,1.0,['p'],False,0.2592592592592592,0.3333333333333333,0.2222222222222222,2.0,2.0,0.9327883776363324,0.2592592592592592,succ_gain,1.0,3.0,302.7632065000944,,tb12,1,2022-04-08_11h57.49.347,threat_forest,2021.2.3,60.01734500504118,True,53.0,0.5,0.5178571428571428,-0.8703703703703706,-0.8254913076341649,0,0,1.0,0.3223782383925986,0.2592592592592592,1.0,0.2592592592592592,0.3333333333333333,0.2222222222222222,-0.3333333333333335,-0.18518518518518556,0.8148148148148144,1.0,0.0,2.0,-1.0,1.0,1,1,0,0,0.625
7.0,0.0,7.0,0.0,6.0,0.0,6.0,0.0,,,,left,1.0988800000632182,311.19688160007354,tb12,311.19688160007354,,307.9301871000789,309.92996650002897,True,3.0,['p'],True,0.4444444444444445,0.6666666666666666,0.3333333333333333,1.0,2.0,0.9656336071428248,-0.4773662551440329,succ_gain,0.0,5.0,309.92996650002897,,tb12,1,2022-04-08_11h57.49.347,threat_forest,2021.2.3,60.01734500504118,True,53.0,0.5,0.5178571428571428,-0.8703703703703706,-0.8254913076341649,1,0,1.0,0.0942914793444486,-0.4773662551440329,0.0,0.4444444444444445,0.6666666666666666,0.3333333333333333,0.6666666666666665,0.4444444444444444,3.4444444444444446,3.4444444444444446,1.0,2.0,1.0,3.0,0,0,0,1,-0.84
7.0,0.0,7.0,0.0,7.0,0.0,7.0,0.0,,,,left,1.369501799927093,316.8320567000192,tb12,312.3137285000412,314.31345250003505,316.8320567000192,,False,5.0,['p'],False,0.2592592592592592,0.3333333333333333,0.2222222222222222,2.0,2.0,0.9327883776363324,0.0,wait_cost,1.0,4.0,314.31345250003505,,tb12,1,2022-04-08_11h57.49.347,threat_forest,2021.2.3,60.01734500504118,False,53.0,0.5,0.5178571428571428,-0.8703703703703706,-0.8254913076341649,0,0,0.0,0.31444702401519825,0.0,0.0,0.2592592592592592,0.3333333333333333,0.2222222222222222,-0.3333333333333335,-0.18518518518518556,4.814814814814815,4.814814814814815,0.0,2.0,1.0,5.0,0,0,0,0,-0.84
8.0,0.0,8.0,0.0,0.0,0.0,0.0,0.0,322.1908409000607,325.6801661000354,,right,1.2194203999824822,328.84883360005915,tb12,328.84883360005915,,322.1908409000607,325.6801661000354,False,4.0,['p'],True,0.16,0.2,0.2,2.0,2.0,0.8198746470064713,0.0018667197674524,wait_cost,0.0,3.0,,,tb12,1,2022-04-08_11h57.49.347,threat_forest,2021.2.3,60.01734500504118,False,63.0,0.26666666666666666,0.3833333333333333,-1.5022222222222226,-1.1862962962962966,0,0,0.0,0.1983756638763934,0.0018667197674524,0.16,0.16,0.2,0.2,-0.8000000000000003,-0.5600000000000003,3.4399999999999995,3.4399999999999995,1.0,2.0,-1.0,4.0,0,1,0,0,0.0018667197674524
8.0,0.0,8.0,0.0,1.0,0.0,1.0,0.0,,,,right,0.820908399997279,332.61426640010905,tb12,332.61426640010905,,322.1908409000607,325.6801661000354,False,3.0,['p'],True,0.16,0.2,0.2,2.0,2.0,0.8198746470064713,0.0173973197132958,wait_cost,0.0,2.0,332.0973657000577,,tb12,1,2022-04-08_11h57.49.347,threat_forest,2021.2.3,60.01734500504118,False,63.0,0.26666666666666666,0.3833333333333333,-1.5022222222222226,-1.1862962962962966,0,0,0.0,-0.1973437470121264,0.0173973197132958,0.16,0.16,0.2,0.2,-0.8000000000000003,-0.5600000000000003,2.4399999999999995,2.4399999999999995,1.0,2.0,-1.0,3.0,0,1,0,0,0.0173973197132958
8.0,0.0,8.0,0.0,2.0,0.0,2.0,0.0,,,,left,1.3558113999897614,336.114729700028,tb12,333.4640650000656,335.4637153000804,336.114729700028,,False,2.0,['p'],False,0.2222222222222222,0.3333333333333333,0.3333333333333333,2.0,2.0,0.9656336071428248,0.0143818200071127,wait_cost,1.0,1.0,335.4637153000804,,tb12,1,2022-04-08_11h57.49.347,threat_forest,2021.2.3,60.01734500504118,False,63.0,0.26666666666666666,0.3833333333333333,-1.5022222222222226,-1.1862962962962966,0,0,0.0,0.304400094291638,0.0143818200071127,0.2222222222222222,0.2222222222222222,0.3333333333333333,0.3333333333333333,-0.666666666666667,-0.44444444444444464,1.5555555555555554,1.5555555555555554,0.0,2.0,-1.0,2.0,0,1,0,0,0.0143818200071127
8.0,0.0,8.0,0.0,3.0,0.0,3.0,0.0,,,,right,1.0033624999923632,342.3331562000094,tb12,342.3331562000094,,337.4973196000792,339.49726980004925,False,1.0,['p'],True,0.16,0.2,0.2,2.0,2.0,0.8198746470064713,0.0471577283950616,wait_cost,0.0,0.0,339.49726980004925,,tb12,1,2022-04-08_11h57.49.347,threat_forest,2021.2.3,60.01734500504118,False,63.0,0.26666666666666666,0.3833333333333333,-1.5022222222222226,-1.1862962962962966,0,0,0.0,0.003356859429987776,0.0471577283950616,1.0,0.16,0.2,0.2,-0.8000000000000003,-0.5600000000000003,0.4399999999999997,1.0,1.0,2.0,-1.0,1.0,1,1,0,0,0.625
9.0,0.0,9.0,0.0,0.0,0.0,0.0,0.0,346.4028151000384,349.9139228001004,,left,1.4922144000884143,350.9476827000035,tb12,350.9476827000035,,346.4028151000384,349.9139228001004,True,4.0,['p'],True,0.4444444444444445,0.6666666666666666,0.3333333333333333,1.0,1.0,0.9656336071428248,0.0517531804924914,figh_cost,0.0,1.0,,,tb12,1,2022-04-08_11h57.49.347,threat_forest,2021.2.3,60.01734500504118,True,57.0,0.4583333333333333,0.3625,-1.34375,-1.4229861111111113,1,1,1.0,0.4002611912489055,0.0517531804924914,0.4444444444444445,0.4444444444444445,0.6666666666666666,0.3333333333333333,0.0,0.0,4.0,4.0,1.0,1.0,-1.0,4.0,0,1,1,1,0.0517531804924914
9.0,0.0,9.0,0.0,1.0,0.0,1.0,0.0,,,,left,1.8208502000197768,357.39787970006,tb12,352.4643731000833,354.46391869999934,357.39787970006,,False,1.0,['p'],False,0.1875,0.25,0.25,2.0,1.0,0.895754137500101,0.0133795237835542,wait_cost,1.0,0.0,354.46391869999934,,tb12,1,2022-04-08_11h57.49.347,threat_forest,2021.2.3,60.01734500504118,False,57.0,0.4583333333333333,0.3625,-1.34375,-1.4229861111111113,0,0,0.0,0.5993035348794521,0.0133795237835542,1.0,0.1875,0.25,0.25,-1.0,-0.6875,0.3125,1.0,0.0,1.0,-1.0,1.0,1,1,0,0,0.625
10.0,0.0,10.0,0.0,0.0,0.0,0.0,0.0,364.40509440004826,367.914170700009,,right,1.0474179999437183,370.1826458000578,tb12,370.1826458000578,,364.40509440004826,367.914170700009,False,4.0,['p'],True,0.18,0.2,0.1,1.0,1.0,0.7058405977926203,-0.0012447101888581,wait_cost,0.0,3.0,,,tb12,1,2022-04-08_11h57.49.347,threat_forest,2021.2.3,60.01734500504118,False,11.0,0.35,0.4041666666666667,-1.3425000000000002,-1.3431250000000001,0,0,0.0,0.046328088073344154,-0.0012447101888581,0.18,0.18,0.2,0.1,-0.7000000000000002,-0.5600000000000003,3.4399999999999995,3.4399999999999995,1.0,1.0,-1.0,4.0,0,1,0,0,-0.0012447101888581
10.0,0.0,10.0,0.0,1.0,0.0,1.0,0.0,,,,right,0.8002914000535384,375.93149510002695,tb12,375.93149510002695,,364.40509440004826,367.914170700009,False,3.0,['p'],True,0.18,0.2,0.1,1.0,1.0,0.7058405977926203,0.0095213043566894,wait_cost,0.0,2.0,373.24760900007095,,tb12,1,2022-04-08_11h57.49.347,threat_forest,2021.2.3,60.01734500504118,False,11.0,0.35,0.4041666666666667,-1.3425000000000002,-1.3431250000000001,0,0,0.0,-0.22277936757023747,0.0095213043566894,0.18,0.18,0.2,0.1,-0.7000000000000002,-0.5600000000000003,2.4399999999999995,2.4399999999999995,1.0,1.0,-1.0,3.0,0,1,0,0,0.0095213043566894
10.0,0.0,10.0,0.0,2.0,0.0,2.0,0.0,,,,right,1.6110111000016332,380.21464290004224,tb12,380.21464290004224,,364.40509440004826,367.914170700009,False,2.0,['p'],True,0.18,0.2,0.1,1.0,1.0,0.7058405977926203,-0.0022718469726562,wait_cost,0.0,1.0,378.764342200011,,tb12,1,2022-04-08_11h57.49.347,threat_forest,2021.2.3,60.01734500504118,False,11.0,0.35,0.4041666666666667,-1.3425000000000002,-1.3431250000000001,0,0,0.0,0.47686199430246806,-0.0022718469726562,0.18,0.18,0.2,0.1,-0.7000000000000002,-0.5600000000000003,1.4399999999999997,1.4399999999999997,1.0,1.0,-1.0,2.0,0,1,0,0,-0.0022718469726562
10.0,0.0,10.0,0.0,3.0,0.0,3.0,0.0,,,,left,1.8342563000041991,387.247974100057,tb12,381.8481557000196,383.8478081000503,387.247974100057,,False,1.0,['p'],False,0.375,0.5,0.25,1.0,1.0,0.9850568223215076,0.0471695800781249,wait_cost,1.0,0.0,383.8478081000503,,tb12,1,2022-04-08_11h57.49.347,threat_forest,2021.2.3,60.01734500504118,False,11.0,0.35,0.4041666666666667,-1.3425000000000002,-1.3431250000000001,1,0,0.0,0.6066391132546707,0.0471695800781249,1.0,0.375,0.5,0.25,-0.25,-0.125,0.875,1.0,0.0,1.0,-1.0,1.0,1,1,0,1,0.625
11.0,0.0,11.0,0.0,0.0,0.0,0.0,0.0,394.5172919000033,398.0313403001055,,,,400.0321543000173,tb12,394.5172919000033,398.0313403001055,400.0321543000173,,True,4.0,['r'],False,0.5,0.5,0.0,0.0,1.0,0.6309297535714574,0.0805026556124999,wait_cost,1.0,3.0,,,tb12,1,2022-04-08_11h57.49.347,threat_forest,2021.2.3,60.01734500504118,,0.0,0.55,0.45,-0.9100000000000001,-1.1262500000000002,1,1,,,0.0805026556124999,0.5,0.5,0.5,0.0,0.5,0.5,4.5,4.5,0.0,1.0,-1.0,4.0,0,1,1,1,0.0805026556124999
11.0,0.0,11.0,0.0,1.0,0.0,1.0,0.0,,,,left,2.7970208000624552,406.53164730011486,tb12,406.53164730011486,,403.031649600016,405.0314180999994,True,3.0,['r'],True,0.36,0.6,0.4,2.0,1.0,0.9801625908629508,0.0196917849999999,figh_cost,0.0,0.0,405.0314180999994,,tb12,1,2022-04-08_11h57.49.347,threat_forest,2021.2.3,60.01734500504118,True,0.0,0.55,0.45,-0.9100000000000001,-1.1262500000000002,0,0,1.0,1.02855485075365,0.0196917849999999,0.36,0.36,0.6,0.4,-0.40000000000000036,-0.3200000000000003,2.6799999999999997,2.6799999999999997,1.0,1.0,-1.0,3.0,0,1,0,0,0.0196917849999999
12.0,0.0,12.0,0.0,0.0,0.0,0.0,0.0,412.7850758000277,416.2982018000912,,left,1.522205600049347,418.3656550000888,tb12,418.3656550000888,,412.7850758000277,416.2982018000912,True,5.0,['r'],True,0.24,0.4,0.4,2.0,2.0,0.9801625908629508,-0.0217856454141892,figh_cost,0.0,2.0,,,tb12,1,2022-04-08_11h57.49.347,threat_forest,2021.2.3,60.01734500504118,True,46.0,0.3666666666666667,0.45833333333333337,-1.0533333333333335,-0.9816666666666668,0,0,1.0,0.42016033576262823,-0.0217856454141892,0.24,0.24,0.4,0.4,-0.6000000000000001,-0.44000000000000017,4.56,4.56,1.0,2.0,-1.0,5.0,0,1,0,0,-0.0217856454141892
12.0,0.0,12.0,0.0,1.0,0.0,1.0,0.0,,,,right,2.7158972000470385,424.1151992001105,tb12,419.9151944000041,421.9151267000707,424.1151992001105,,True,2.0,['r'],False,0.3333333333333333,0.3333333333333333,0.0,0.0,2.0,0.5793801642856949,0.0282073652674897,succ_gain,1.0,4.0,421.9151267000707,,tb12,1,2022-04-08_11h57.49.347,threat_forest,2021.2.3,60.01734500504118,True,46.0,0.3666666666666667,0.45833333333333337,-1.0533333333333335,-0.9816666666666668,1,0,1.0,0.9991223592183616,0.0282073652674897,0.3333333333333333,0.3333333333333333,0.3333333333333333,0.0,0.33333333333333315,0.33333333333333315,2.333333333333333,2.333333333333333,0.0,2.0,-1.0,2.0,0,1,0,1,0.0282073652674897
12.0,0.0,12.0,0.0,2.0,0.0,2.0,0.0,,,,right,2.200477799982764,431.5989683000371,tb12,419.9151944000041,421.9151267000707,431.5989683000371,,True,4.0,['r'],False,0.3333333333333333,0.3333333333333333,0.0,0.0,2.0,0.5793801642856949,0.0675703703703702,unsucc_cost,1.0,2.0,428.8485647001071,,tb12,1,2022-04-08_11h57.49.347,threat_forest,2021.2.3,60.01734500504118,True,46.0,0.3666666666666667,0.45833333333333337,-1.0533333333333335,-0.9816666666666668,1,0,1.0,0.7886745185940621,0.0675703703703702,0.3333333333333333,0.3333333333333333,0.3333333333333333,0.0,0.33333333333333315,0.33333333333333315,4.333333333333333,4.333333333333333,0.0,2.0,1.0,4.0,0,1,0,1,0.0675703703703702
12.0,0.0,12.0,0.0,3.0,0.0,3.0,0.0,,,,left,2.070349599933252,438.098733000108,tb12,419.9151944000041,421.9151267000707,438.098733000108,,False,2.0,['r'],False,0.3333333333333333,0.3333333333333333,0.0,0.0,2.0,0.5793801642856949,0.0433487407407408,wait_cost,1.0,1.0,435.8321100000758,,tb12,1,2022-04-08_11h57.49.347,threat_forest,2021.2.3,60.01734500504118,False,46.0,0.3666666666666667,0.45833333333333337,-1.0533333333333335,-0.9816666666666668,1,0,0.0,0.7277174818738039,0.0433487407407408,0.3333333333333333,0.3333333333333333,0.3333333333333333,0.0,0.33333333333333315,0.33333333333333315,2.333333333333333,2.333333333333333,0.0,2.0,-1.0,2.0,0,1,0,1,0.0433487407407408
12.0,0.0,12.0,0.0,4.0,0.0,4.0,0.0,,,,left,1.4547094000736251,444.0824560000328,tb12,444.0824560000328,,440.1988126001088,442.1985979001038,True,1.0,['r'],True,0.24,0.4,0.4,2.0,2.0,0.9801625908629508,0.1041173333333332,succ_gain,0.0,3.0,442.1985979001038,,tb12,1,2022-04-08_11h57.49.347,threat_forest,2021.2.3,60.01734500504118,True,46.0,0.3666666666666667,0.45833333333333337,-1.0533333333333335,-0.9816666666666668,0,0,1.0,0.3748061556404457,0.1041173333333332,1.0,0.24,0.4,0.4,-0.6000000000000001,-0.44000000000000017,0.5599999999999998,1.0,1.0,2.0,-1.0,1.0,1,1,0,0,0.625
12.0,0.0,12.0,0.0,5.0,0.0,5.0,0.0,,,,right,1.7740442999638617,449.83271340001374,tb12,445.56574920006096,447.5653144000098,449.83271340001374,,True,3.0,['r'],False,0.3333333333333333,0.3333333333333333,0.0,0.0,2.0,0.5793801642856949,0.2144444444444444,unsucc_cost,1.0,1.0,447.5653144000098,,tb12,1,2022-04-08_11h57.49.347,threat_forest,2021.2.3,60.01734500504118,True,46.0,0.3666666666666667,0.45833333333333337,-1.0533333333333335,-0.9816666666666668,1,0,1.0,0.5732618553703337,0.2144444444444444,0.3333333333333333,0.3333333333333333,0.3333333333333333,0.0,0.33333333333333315,0.33333333333333315,3.333333333333333,3.333333333333333,0.0,2.0,1.0,3.0,0,1,0,1,0.2144444444444444
12.0,0.0,12.0,0.0,6.0,0.0,6.0,0.0,,,,left,2.40915139997378,455.432616300066,tb12,455.432616300066,,451.6323200000916,453.6323380001122,True,1.0,['r'],True,0.24,0.4,0.4,2.0,2.0,0.9801625908629508,0.24,unsucc_cost,0.0,0.0,453.6323380001122,,tb12,1,2022-04-08_11h57.49.347,threat_forest,2021.2.3,60.01734500504118,True,46.0,0.3666666666666667,0.45833333333333337,-1.0533333333333335,-0.9816666666666668,0,0,1.0,0.8792745693016482,0.24,1.0,0.24,0.4,0.4,-0.6000000000000001,-0.44000000000000017,0.5599999999999998,1.0,1.0,2.0,-1.0,1.0,1,1,0,0,0.625
13.0,0.0,13.0,0.0,0.0,0.0,0.0,0.0,462.3735056000296,465.8821873000125,,right,1.4225190000142902,466.8495305000106,tb12,462.3735056000296,465.8821873000125,466.8495305000106,,True,5.0,['p'],False,0.25,0.5,0.5,1.0,1.0,0.9463946303571862,0.0122551342604393,figh_cost,1.0,2.0,,,tb12,1,2022-04-08_11h57.49.347,threat_forest,2021.2.3,60.01734500504118,True,71.0,0.35,0.35833333333333334,-1.7350000000000003,-1.394166666666667,0,0,1.0,0.3524292437054504,0.0122551342604393,0.25,0.25,0.5,0.5,-1.0,-0.75,4.25,4.25,0.0,1.0,-1.0,5.0,0,1,0,0,0.0122551342604393
13.0,0.0,13.0,0.0,1.0,0.0,1.0,0.0,,,,right,1.4004204000812024,473.4659298000624,tb12,462.3735056000296,465.8821873000125,473.4659298000624,,True,2.0,['p'],False,0.25,0.5,0.5,1.0,1.0,0.9463946303571862,0.004407104375,figh_cost,1.0,0.0,470.29896949999966,,tb12,1,2022-04-08_11h57.49.347,threat_forest,2021.2.3,60.01734500504118,True,71.0,0.35,0.35833333333333334,-1.7350000000000003,-1.394166666666667,0,0,1.0,0.33677247731675153,0.004407104375,0.25,0.25,0.5,0.5,-1.0,-0.75,1.25,1.25,0.0,1.0,-1.0,2.0,0,1,0,0,0.004407104375
14.0,0.0,14.0,0.0,0.0,0.0,0.0,0.0,479.235027500079,482.7492191001074,,left,1.924492200021632,485.0328992001014,tb12,479.235027500079,482.7492191001074,485.0328992001014,,False,4.0,['r'],False,0.25,0.5,0.5,2.0,1.0,0.9463946303571862,0.0015300455080301,wait_cost,1.0,3.0,,,tb12,1,2022-04-08_11h57.49.347,threat_forest,2021.2.3,60.01734500504118,False,43.0,0.41666666666666663,0.3833333333333333,-1.375,-1.5550000000000002,0,0,0.0,0.6546621407439113,0.0015300455080301,0.25,0.25,0.5,0.5,-1.0,-0.75,3.25,3.25,0.0,1.0,-1.0,4.0,0,1,0,0,0.0015300455080301
14.0,0.0,14.0,0.0,1.0,0.0,1.0,0.0,,,,left,1.4997514999704435,491.53333550004754,tb12,479.235027500079,482.7492191001074,491.53333550004754,,False,3.0,['r'],False,0.25,0.5,0.5,2.0,1.0,0.9463946303571862,0.0077793451003086,wait_cost,1.0,2.0,488.982644700096,,tb12,1,2022-04-08_11h57.49.347,threat_forest,2021.2.3,60.01734500504118,False,43.0,0.41666666666666663,0.3833333333333333,-1.375,-1.5550000000000002,0,0,0.0,0.4052994276975521,0.0077793451003086,0.25,0.25,0.5,0.5,-1.0,-0.75,2.25,2.25,0.0,1.0,-1.0,3.0,0,1,0,0,0.0077793451003086
14.0,0.0,14.0,0.0,2.0,0.0,2.0,0.0,,,,left,2.5571082999231294,495.7335621000966,tb12,479.235027500079,482.7492191001074,495.7335621000966,,False,2.0,['r'],False,0.25,0.5,0.5,2.0,1.0,0.9463946303571862,0.0095154562114198,wait_cost,1.0,1.0,495.0499578000745,,tb12,1,2022-04-08_11h57.49.347,threat_forest,2021.2.3,60.01734500504118,False,43.0,0.41666666666666663,0.3833333333333333,-1.375,-1.5550000000000002,0,0,0.0,0.9388770497035396,0.0095154562114198,0.25,0.25,0.5,0.5,-1.0,-0.75,1.25,1.25,0.0,1.0,-1.0,2.0,0,1,0,0,0.0095154562114198
14.0,0.0,14.0,0.0,3.0,0.0,3.0,0.0,,,,right,1.3195601999759674,500.8668093000306,tb12,479.235027500079,482.7492191001074,500.8668093000306,,True,1.0,['r'],False,0.25,0.5,0.5,2.0,1.0,0.9463946303571862,0.0310149016203703,unsucc_cost,1.0,0.0,500.3160923001124,,tb12,1,2022-04-08_11h57.49.347,threat_forest,2021.2.3,60.01734500504118,True,43.0,0.41666666666666663,0.3833333333333333,-1.375,-1.5550000000000002,0,0,1.0,0.2772984992444912,0.0310149016203703,1.0,0.25,0.5,0.5,-1.0,-0.75,0.25,1.0,0.0,1.0,-1.0,1.0,1,1,0,0,0.625
15.0,0.0,15.0,0.0,0.0,0.0,0.0,0.0,507.4615939001087,510.9662970000645,,right,2.0838885999983177,512.3335794000886,tb12,507.4615939001087,510.9662970000645,512.3335794000886,,True,4.0,['p'],False,0.375,0.5,0.25,1.0,2.0,0.9850568223215076,0.0505551995468139,unsucc_cost,1.0,2.0,,,tb12,1,2022-04-08_11h57.49.347,threat_forest,2021.2.3,60.01734500504118,True,45.0,0.35,0.3833333333333333,-0.9750000000000001,-1.175,1,0,1.0,0.7342356675671156,0.0505551995468139,0.375,0.375,0.5,0.25,0.25,0.25,4.25,4.25,0.0,2.0,-1.0,4.0,0,1,0,1,0.0505551995468139
15.0,0.0,15.0,0.0,1.0,0.0,1.0,0.0,,,,,,517.1675634999992,tb12,517.1675634999992,,514.4499734001001,516.4497446001042,True,2.0,['p'],True,0.2,0.2,0.0,0.0,2.0,0.4554859150035951,-0.0239407760620117,wait_cost,0.0,1.0,516.4497446001042,,tb12,1,2022-04-08_11h57.49.347,threat_forest,2021.2.3,60.01734500504118,,45.0,0.35,0.3833333333333333,-0.9750000000000001,-1.175,0,0,,,-0.0239407760620117,0.2,0.2,0.2,0.0,-0.20000000000000018,-0.20000000000000018,1.7999999999999998,1.7999999999999998,1.0,2.0,-1.0,2.0,0,1,0,0,-0.0239407760620117
15.0,0.0,15.0,0.0,2.0,0.0,2.0,0.0,,,,left,1.8618226000107825,525.4006238000002,tb12,525.4006238000002,,514.4499734001001,516.4497446001042,True,1.0,['p'],True,0.2,0.2,0.0,0.0,2.0,0.4554859150035951,0.0755456298828124,succ_gain,0.0,3.0,522.166509600007,,tb12,1,2022-04-08_11h57.49.347,threat_forest,2021.2.3,60.01734500504118,True,45.0,0.35,0.3833333333333333,-0.9750000000000001,-1.175,0,0,1.0,0.6215559004227872,0.0755456298828124,1.0,0.2,0.2,0.0,-0.20000000000000018,-0.20000000000000018,0.7999999999999998,1.0,1.0,2.0,-1.0,1.0,1,1,0,0,0.625
15.0,0.0,15.0,0.0,3.0,0.0,3.0,0.0,,,,right,1.8602078999392688,531.1836564000696,tb12,527.283372700098,529.2832760000601,531.1836564000696,,True,3.0,['p'],False,0.375,0.5,0.25,1.0,2.0,0.9850568223215076,0.0929562988281249,succ_gain,1.0,5.0,529.2832760000601,,tb12,1,2022-04-08_11h57.49.347,threat_forest,2021.2.3,60.01734500504118,True,45.0,0.35,0.3833333333333333,-0.9750000000000001,-1.175,1,0,1.0,0.6206882556397411,0.0929562988281249,0.375,0.375,0.5,0.25,0.25,0.25,3.25,3.25,0.0,2.0,1.0,3.0,0,1,0,1,0.0929562988281249
15.0,0.0,15.0,0.0,4.0,0.0,4.0,0.0,,,,right,0.8995827999897301,537.5673565000761,tb12,527.283372700098,529.2832760000601,537.5673565000761,,True,5.0,['p'],False,0.375,0.5,0.25,1.0,2.0,0.9850568223215076,-0.37103515625,succ_gain,1.0,6.0,535.0666787000373,,tb12,1,2022-04-08_11h57.49.347,threat_forest,2021.2.3,60.01734500504118,True,45.0,0.35,0.3833333333333333,-0.9750000000000001,-1.175,1,0,1.0,-0.10582417869988973,-0.37103515625,0.0,0.375,0.5,0.25,0.25,0.25,5.25,5.25,0.0,2.0,1.0,5.0,0,0,0,1,-0.84
15.0,0.0,15.0,0.0,5.0,0.0,5.0,0.0,,,,right,2.863321700016968,541.2888207000215,tb12,541.2888207000215,,538.4836790000554,540.4834495000541,False,6.0,['p'],True,0.2,0.2,0.0,0.0,2.0,0.4554859150035951,0.0,wait_cost,0.0,5.0,540.4834495000541,,tb12,1,2022-04-08_11h57.49.347,threat_forest,2021.2.3,60.01734500504118,False,45.0,0.35,0.3833333333333333,-0.9750000000000001,-1.175,0,0,0.0,1.0519823844619318,0.0,0.0,0.2,0.2,0.0,-0.20000000000000018,-0.20000000000000018,5.8,5.8,1.0,2.0,1.0,6.0,0,0,0,0,-0.84
15.0,0.0,15.0,0.0,6.0,0.0,6.0,0.0,,,,right,1.6750871000112966,549.2507406000514,tb12,549.2507406000514,,538.4836790000554,540.4834495000541,False,5.0,['p'],True,0.2,0.2,0.0,0.0,2.0,0.4554859150035951,0.0,wait_cost,0.0,4.0,546.1834537000395,,tb12,1,2022-04-08_11h57.49.347,threat_forest,2021.2.3,60.01734500504118,False,45.0,0.35,0.3833333333333333,-0.9750000000000001,-1.175,0,0,0.0,0.5158651639318205,0.0,0.0,0.2,0.2,0.0,-0.20000000000000018,-0.20000000000000018,4.8,4.8,1.0,2.0,-1.0,5.0,0,0,0,0,-0.84
15.0,0.0,15.0,0.0,7.0,0.0,7.0,0.0,,,,right,1.984758000005968,556.1341710000997,tb12,556.1341710000997,,538.4836790000554,540.4834495000541,False,4.0,['p'],True,0.2,0.2,0.0,0.0,2.0,0.4554859150035951,0.0,wait_cost,0.0,3.0,552.9502985000145,,tb12,1,2022-04-08_11h57.49.347,threat_forest,2021.2.3,60.01734500504118,False,45.0,0.35,0.3833333333333333,-0.9750000000000001,-1.175,0,0,0.0,0.6854969923523186,0.0,0.0,0.2,0.2,0.0,-0.20000000000000018,-0.20000000000000018,3.8,3.8,1.0,2.0,-1.0,4.0,0,0,0,0,-0.84
16.0,0.0,16.0,0.0,0.0,0.0,0.0,0.0,562.6902885000454,566.200455000042,,left,1.4851568000158295,569.1340704000322,tb12,562.6902885000454,566.200455000042,569.1340704000322,,False,5.0,['p'],False,0.2448979591836734,0.2857142857142857,0.1428571428571428,1.0,1.0,0.8400769154957735,-0.0213375421468753,wait_cost,1.0,4.0,,,tb12,1,2022-04-08_11h57.49.347,threat_forest,2021.2.3,60.01734500504118,False,13.0,0.47619047619047616,0.41309523809523807,-1.2040816326530612,-1.0895408163265308,0,0,0.0,0.3955203559167607,-0.0213375421468753,0.2448979591836734,0.2448979591836734,0.2857142857142857,0.1428571428571428,-0.5714285714285712,-0.40816326530612246,4.591836734693878,4.591836734693878,0.0,1.0,-1.0,5.0,0,1,0,0,-0.0213375421468753
16.0,0.0,16.0,0.0,1.0,0.0,1.0,0.0,,,,left,1.701097200042568,573.7175137000158,tb12,573.7175137000158,,570.650835800101,572.6505792000098,True,4.0,['p'],True,0.4444444444444445,0.6666666666666666,0.3333333333333333,1.0,1.0,0.9656336071428248,0.0716196827788062,figh_cost,0.0,1.0,572.6505792000098,,tb12,1,2022-04-08_11h57.49.347,threat_forest,2021.2.3,60.01734500504118,True,13.0,0.47619047619047616,0.41309523809523807,-1.2040816326530612,-1.0895408163265308,1,1,1.0,0.5312734546633006,0.0716196827788062,0.4444444444444445,0.4444444444444445,0.6666666666666666,0.3333333333333333,0.0,0.0,4.0,4.0,1.0,1.0,-1.0,4.0,0,1,1,1,0.0716196827788062
16.0,0.0,16.0,0.0,2.0,0.0,2.0,0.0,,,,right,1.814613500027917,578.0675112000899,tb12,575.4509596000426,577.450668000034,578.0675112000899,,True,1.0,['p'],False,0.2448979591836734,0.2857142857142857,0.1428571428571428,1.0,1.0,0.8400769154957735,0.040304492726213,unsucc_cost,1.0,0.0,577.450668000034,,tb12,1,2022-04-08_11h57.49.347,threat_forest,2021.2.3,60.01734500504118,True,13.0,0.47619047619047616,0.41309523809523807,-1.2040816326530612,-1.0895408163265308,0,0,1.0,0.5958724973972246,0.040304492726213,1.0,0.2448979591836734,0.2857142857142857,0.1428571428571428,-0.5714285714285712,-0.40816326530612246,0.5918367346938775,1.0,0.0,1.0,-1.0,1.0,1,1,0,0,0.625
17.0,0.0,17.0,0.0,0.0,0.0,0.0,0.0,585.6024945001118,589.1174928001128,,right,2.2240784000605345,592.3679658001056,tb12,585.6024945001118,589.1174928001128,592.3679658001056,,True,5.0,['r'],False,0.3333333333333333,0.3333333333333333,0.0,0.0,2.0,0.5793801642856949,0.0474629650798488,unsucc_cost,1.0,3.0,,,tb12,1,2022-04-08_11h57.49.347,threat_forest,2021.2.3,60.01734500504118,True,68.0,0.5,0.4880952380952381,-1.2222222222222223,-1.2131519274376417,1,0,1.0,0.7993426275927848,0.0474629650798488,0.3333333333333333,0.3333333333333333,0.3333333333333333,0.0,0.33333333333333315,0.33333333333333315,5.333333333333333,5.333333333333333,0.0,2.0,-1.0,5.0,0,1,0,1,0.0474629650798488
17.0,0.0,17.0,0.0,1.0,0.0,1.0,0.0,,,,left,1.0573234999319538,597.2011000000639,tb12,597.2011000000639,,594.6180051000556,596.6175788000692,True,3.0,['r'],True,0.2222222222222222,0.6666666666666666,0.6666666666666666,2.0,2.0,0.77250688571426,-0.0090279894663753,figh_cost,0.0,0.0,596.6175788000692,,tb12,1,2022-04-08_11h57.49.347,threat_forest,2021.2.3,60.01734500504118,True,68.0,0.5,0.4880952380952381,-1.2222222222222223,-1.2131519274376417,0,0,1.0,0.05574071487078503,-0.0090279894663753,0.2222222222222222,0.2222222222222222,0.6666666666666666,0.6666666666666666,-0.3333333333333335,-0.7777777777777779,2.2222222222222223,2.2222222222222223,1.0,2.0,-1.0,3.0,0,1,0,0,-0.0090279894663753
0.0,0.0,0.0,0.0,0.0,0.0,0.0,0.0,39.74777609994635,43.25769489991944,,right,1.6171705999877304,46.69098899990786,tb12,46.69098899990786,,39.74777609994635,43.25769489991944,False,4.0,['p'],True,0.28125,0.375,0.25,2.0,2.0,0.9634951148421658,-0.0007636143604934,wait_cost,0.0,3.0,,,tb12,2,2022-04-08_12h08.02.362,threat_forest,2021.2.3,60.165901445129975,False,10.0,0.35416666666666663,0.4270833333333333,-0.8958333333333335,-1.059027777777778,0,0,0.0,0.48067807904201476,-0.0007636143604934,0.28125,0.28125,0.375,0.25,-0.25,-0.125,3.875,3.875,1.0,2.0,-1.0,4.0,0,1,0,0,-0.0007636143604934
0.0,0.0,0.0,0.0,1.0,0.0,1.0,0.0,,,,left,2.3705695000244305,52.00819679989945,tb12,48.32473939994816,50.32451119995676,52.00819679989945,,False,3.0,['p'],False,0.3333333333333333,0.3333333333333333,0.0,0.0,2.0,0.5793801642856949,0.1051879490716752,wait_cost,1.0,2.0,50.32451119995676,,tb12,2,2022-04-08_12h08.02.362,threat_forest,2021.2.3,60.165901445129975,False,10.0,0.35416666666666663,0.4270833333333333,-0.8958333333333335,-1.059027777777778,1,0,0.0,0.8631302216496899,0.1051879490716752,0.3333333333333333,0.3333333333333333,0.3333333333333333,0.0,0.33333333333333315,0.33333333333333315,3.333333333333333,3.333333333333333,0.0,2.0,-1.0,3.0,0,1,0,1,0.1051879490716752
0.0,0.0,0.0,0.0,2.0,0.0,2.0,0.0,,,,left,1.6979122000047937,58.74148629989941,tb12,48.32473939994816,50.32451119995676,58.74148629989941,,False,2.0,['p'],False,0.3333333333333333,0.3333333333333333,0.0,0.0,2.0,0.5793801642856949,0.0234006245930988,wait_cost,1.0,1.0,56.4080149999354,,tb12,2,2022-04-08_12h08.02.362,threat_forest,2021.2.3,60.165901445129975,False,10.0,0.35416666666666663,0.4270833333333333,-0.8958333333333335,-1.059027777777778,1,0,0.0,0.5293993786634426,0.0234006245930988,0.3333333333333333,0.3333333333333333,0.3333333333333333,0.0,0.33333333333333315,0.33333333333333315,2.333333333333333,2.333333333333333,0.0,2.0,-1.0,2.0,0,1,0,1,0.0234006245930988
0.0,0.0,0.0,0.0,3.0,0.0,3.0,0.0,,,,right,2.142846899922006,65.90826930000912,tb12,48.32473939994816,50.32451119995676,65.90826930000912,,True,1.0,['p'],False,0.3333333333333333,0.3333333333333333,0.0,0.0,2.0,0.5793801642856949,0.1605812355324073,unsucc_cost,1.0,0.0,62.4579610999208,,tb12,2,2022-04-08_12h08.02.362,threat_forest,2021.2.3,60.165901445129975,True,10.0,0.35416666666666663,0.4270833333333333,-0.8958333333333335,-1.059027777777778,1,0,1.0,0.762135271999075,0.1605812355324073,1.0,0.3333333333333333,0.3333333333333333,0.0,0.33333333333333315,0.33333333333333315,1.333333333333333,1.333333333333333,0.0,2.0,-1.0,1.0,1,1,0,1,0.625
1.0,0.0,1.0,0.0,0.0,0.0,0.0,0.0,70.66988890001085,74.17482289997861,,left,1.850661400007084,76.29223459993955,tb12,76.29223459993955,,70.66988890001085,74.17482289997861,True,4.0,['r'],True,0.375,0.5,0.25,1.0,2.0,0.9850568223215076,0.0640175729863931,unsucc_cost,0.0,2.0,,,tb12,2,2022-04-08_12h08.02.362,threat_forest,2021.2.3,60.165901445129975,True,59.0,0.3611111111111111,0.35763888888888884,-1.1404320987654322,-1.018132716049383,1,1,1.0,0.6155430887148465,0.0640175729863931,0.375,0.375,0.5,0.25,0.25,0.25,4.25,4.25,1.0,2.0,-1.0,4.0,0,1,1,1,0.0640175729863931
1.0,0.0,1.0,0.0,1.0,0.0,1.0,0.0,,,,left,2.7815235999878496,82.408509699977,tb12,82.408509699977,,70.66988890001085,74.17482289997861,True,2.0,['r'],True,0.375,0.5,0.25,1.0,2.0,0.9850568223215076,0.0540079109848102,succ_gain,0.0,4.0,80.17493259999901,,tb12,2,2022-04-08_12h08.02.362,threat_forest,2021.2.3,60.165901445129975,True,59.0,0.3611111111111111,0.35763888888888884,-1.1404320987654322,-1.018132716049383,1,1,1.0,1.0229988351234434,0.0540079109848102,0.375,0.375,0.5,0.25,0.25,0.25,2.25,2.25,1.0,2.0,-1.0,2.0,0,1,1,1,0.0540079109848102
1.0,0.0,1.0,0.0,2.0,0.0,2.0,0.0,,,,left,1.5168280999641863,88.62630749994423,tb12,85.20875319989864,87.20834819995798,88.62630749994423,,False,4.0,['r'],False,0.1728395061728395,0.2222222222222222,0.2222222222222222,2.0,2.0,0.8571721972794328,-0.0827565825266031,wait_cost,1.0,3.0,87.20834819995798,,tb12,2,2022-04-08_12h08.02.362,threat_forest,2021.2.3,60.165901445129975,False,59.0,0.3611111111111111,0.35763888888888884,-1.1404320987654322,-1.018132716049383,0,0,0.0,0.41662137816728995,-0.0827565825266031,0.1728395061728395,0.1728395061728395,0.2222222222222222,0.2222222222222222,-0.7777777777777777,-0.5308641975308643,3.4691358024691357,3.4691358024691357,0.0,2.0,1.0,4.0,0,1,0,0,-0.0827565825266031
1.0,0.0,1.0,0.0,3.0,0.0,3.0,0.0,,,,left,1.996207999996841,94.29206329991575,tb12,94.29206329991575,,90.1753413999686,92.17507060000209,True,3.0,['r'],True,0.375,0.5,0.25,1.0,2.0,0.9850568223215076,0.0924634024249083,fight_cost,0.0,0.0,92.17507060000209,,tb12,2,2022-04-08_12h08.02.362,threat_forest,2021.2.3,60.165901445129975,True,59.0,0.3611111111111111,0.35763888888888884,-1.1404320987654322,-1.018132716049383,1,1,1.0,0.6912493808752035,0.0924634024249083,0.375,0.375,0.5,0.25,0.25,0.25,3.25,3.25,1.0,2.0,-1.0,3.0,0,1,1,1,0.0924634024249083
2.0,0.0,2.0,0.0,0.0,0.0,0.0,0.0,102.06365949998144,105.57532750000246,,left,1.2134776000166312,109.1758516000118,tb12,109.1758516000118,,102.06365949998144,105.57532750000246,True,5.0,['p'],True,0.3333333333333333,0.5,0.3333333333333333,2.0,2.0,1.0,-0.0164991778692271,succ_gain,0.0,6.0,,,tb12,2,2022-04-08_12h08.02.362,threat_forest,2021.2.3,60.165901445129975,True,2.0,0.45,0.40555555555555556,-0.7,-0.9202160493827161,0,0,1.0,0.1934902870249707,-0.0164991778692271,0.3333333333333333,0.3333333333333333,0.5,0.3333333333333333,0.0,0.0,5.0,5.0,1.0,2.0,-1.0,5.0,0,1,0,0,-0.0164991778692271
2.0,0.0,2.0,0.0,1.0,0.0,1.0,0.0,,,,left,2.882785699912347,113.24233249993996,tb12,110.4090089999372,112.4087536999723,113.24233249993996,,False,6.0,['p'],False,0.4,0.4,0.0,0.0,2.0,0.6126016192893442,-0.041177037037037,wait_cost,1.0,5.0,112.4087536999723,,tb12,2,2022-04-08_12h08.02.362,threat_forest,2021.2.3,60.165901445129975,False,2.0,0.45,0.40555555555555556,-0.7,-0.9202160493827161,1,0,0.0,1.058757083570327,-0.041177037037037,0.4,0.4,0.4,0.0,0.6000000000000001,0.6000000000000001,6.6,6.6,0.0,2.0,1.0,6.0,0,1,0,1,-0.041177037037037
2.0,0.0,2.0,0.0,2.0,0.0,2.0,0.0,,,,,,119.64272489992436,tb12,119.64272489992436,,116.14239689998794,118.14218630001416,True,5.0,['p'],True,0.3333333333333333,0.5,0.3333333333333333,2.0,2.0,1.0,-0.0235119341563785,wait_cost,0.0,4.0,118.14218630001416,,tb12,2,2022-04-08_12h08.02.362,threat_forest,2021.2.3,60.165901445129975,,2.0,0.45,0.40555555555555556,-0.7,-0.9202160493827161,0,0,,,-0.0235119341563785,0.3333333333333333,0.3333333333333333,0.5,0.3333333333333333,0.0,0.0,5.0,5.0,1.0,2.0,-1.0,5.0,0,1,0,0,-0.0235119341563785
2.0,0.0,2.0,0.0,3.0,0.0,3.0,0.0,,,,left,1.456062200013548,126.07609489990864,tb12,126.07609489990864,,116.14239689998794,118.14218630001416,True,4.0,['p'],True,0.3333333333333333,0.5,0.3333333333333333,2.0,2.0,1.0,-0.0109382716049383,succ_gain,0.0,6.0,124.642251299927,,tb12,2,2022-04-08_12h08.02.362,threat_forest,2021.2.3,60.165901445129975,True,2.0,0.45,0.40555555555555556,-0.7,-0.9202160493827161,0,0,1.0,0.37573566865155467,-0.0109382716049383,0.3333333333333333,0.3333333333333333,0.5,0.3333333333333333,0.0,0.0,4.0,4.0,1.0,2.0,-1.0,4.0,0,1,0,0,-0.0109382716049383
2.0,0.0,2.0,0.0,4.0,0.0,4.0,0.0,,,,right,2.062037399969995,130.7123777999077,tb12,127.55926099990027,129.5590329999104,130.7123777999077,,True,6.0,['p'],False,0.4,0.4,0.0,0.0,2.0,0.6126016192893442,0.0,succ_gain,1.0,6.0,129.5590329999104,,tb12,2,2022-04-08_12h08.02.362,threat_forest,2021.2.3,60.165901445129975,True,2.0,0.45,0.40555555555555556,-0.7,-0.9202160493827161,1,0,1.0,0.7236945231460893,0.0,0.0,0.4,0.4,0.0,0.6000000000000001,0.6000000000000001,6.6,6.6,0.0,2.0,1.0,6.0,0,0,0,1,-0.84
2.0,0.0,2.0,0.0,5.0,0.0,5.0,0.0,,,,left,1.5742818999569863,136.8612835999811,tb12,136.8612835999811,,132.79264100000728,134.7923883999465,True,6.0,['p'],True,0.3333333333333333,0.5,0.3333333333333333,2.0,2.0,1.0,0.0,unsucc_cost,0.0,4.0,134.7923883999465,,tb12,2,2022-04-08_12h08.02.362,threat_forest,2021.2.3,60.165901445129975,True,2.0,0.45,0.40555555555555556,-0.7,-0.9202160493827161,0,0,1.0,0.45379923177168363,0.0,0.0,0.3333333333333333,0.5,0.3333333333333333,0.0,0.0,6.0,6.0,1.0,2.0,-1.0,6.0,0,0,0,0,-0.84
2.0,0.0,2.0,0.0,6.0,0.0,6.0,0.0,,,,left,1.7285264999372885,142.25951020000502,tb12,142.25951020000502,,132.79264100000728,134.7923883999465,True,4.0,['p'],True,0.3333333333333333,0.5,0.3333333333333333,2.0,2.0,1.0,-0.2111111111111111,unsucc_cost,0.0,2.0,140.4591514999047,,tb12,2,2022-04-08_12h08.02.362,threat_forest,2021.2.3,60.165901445129975,True,2.0,0.45,0.40555555555555556,-0.7,-0.9202160493827161,0,0,1.0,0.5472693114377736,-0.2111111111111111,0.0,0.3333333333333333,0.5,0.3333333333333333,0.0,0.0,4.0,4.0,1.0,2.0,-1.0,4.0,0,0,0,0,-0.84
2.0,0.0,2.0,0.0,7.0,0.0,7.0,0.0,,,,right,2.048376000020653,149.1765257999068,tb12,144.00947809999343,146.00926219997928,149.1765257999068,,True,2.0,['p'],False,0.4,0.4,0.0,0.0,2.0,0.6126016192893442,-0.6,succ_gain,1.0,4.0,146.00926219997928,,tb12,2,2022-04-08_12h08.02.362,threat_forest,2021.2.3,60.165901445129975,True,2.0,0.45,0.40555555555555556,-0.7,-0.9202160493827161,1,0,1.0,0.717047284086074,-0.6,0.0,0.4,0.4,0.0,0.6000000000000001,0.6000000000000001,2.6,2.6,0.0,2.0,-1.0,2.0,0,0,0,1,-0.84
3.0,0.0,3.0,0.0,0.0,0.0,0.0,0.0,155.25092149991542,158.75942699995358,,right,2.512002900009975,160.84376219997648,tb12,160.84376219997648,,155.25092149991542,158.75942699995358,False,5.0,['p'],True,0.375,0.5,0.25,1.0,1.0,0.9850568223215076,0.0395346585071088,wait_cost,0.0,4.0,,,tb12,2,2022-04-08_12h08.02.362,threat_forest,2021.2.3,60.165901445129975,False,50.0,0.35,0.4,-1.2625000000000002,-0.9812500000000001,0,0,0.0,0.9210804030678554,0.0395346585071088,0.375,0.375,0.5,0.25,-0.25,-0.125,4.875,4.875,1.0,1.0,1.0,5.0,0,1,0,0,0.0395346585071088
3.0,0.0,3.0,0.0,1.0,0.0,1.0,0.0,,,,right,1.8540970999747517,168.5098020998994,tb12,168.5098020998994,,155.25092149991542,158.75942699995358,False,4.0,['p'],True,0.375,0.5,0.25,1.0,1.0,0.9850568223215076,0.0537241477966309,wait_cost,0.0,3.0,165.3761538999388,,tb12,2,2022-04-08_12h08.02.362,threat_forest,2021.2.3,60.165901445129975,False,50.0,0.35,0.4,-1.2625000000000002,-0.9812500000000001,0,0,0.0,0.6173978390056487,0.0537241477966309,0.375,0.375,0.5,0.25,-0.25,-0.125,3.875,3.875,1.0,1.0,-1.0,4.0,0,1,0,0,0.0537241477966309
3.0,0.0,3.0,0.0,2.0,0.0,2.0,0.0,,,,left,1.4810691000893712,176.16027079999913,tb12,170.39319839992095,172.39294699998572,176.16027079999913,,False,3.0,['p'],False,0.2,0.2,0.0,0.0,1.0,0.4554859150035951,-0.0045679809570313,wait_cost,1.0,2.0,172.39294699998572,,tb12,2,2022-04-08_12h08.02.362,threat_forest,2021.2.3,60.165901445129975,False,50.0,0.35,0.4,-1.2625000000000002,-0.9812500000000001,0,0,0.0,0.39276419192130985,-0.0045679809570313,0.2,0.2,0.2,0.0,-0.40000000000000013,-0.40000000000000013,2.5999999999999996,2.5999999999999996,0.0,1.0,-1.0,3.0,0,1,0,0,-0.0045679809570313
3.0,0.0,3.0,0.0,3.0,0.0,3.0,0.0,,,,right,1.325222500017844,180.4937996999361,tb12,180.4937996999361,,177.6599669000134,179.65969279990532,False,2.0,['p'],True,0.375,0.5,0.25,1.0,1.0,0.9850568223215076,0.0438836669921876,wait_cost,0.0,1.0,179.65969279990532,,tb12,2,2022-04-08_12h08.02.362,threat_forest,2021.2.3,60.165901445129975,False,50.0,0.35,0.4,-1.2625000000000002,-0.9812500000000001,0,0,0.0,0.28158036988220686,0.0438836669921876,0.375,0.375,0.5,0.25,-0.25,-0.125,1.875,1.875,1.0,1.0,-1.0,2.0,0,1,0,0,0.0438836669921876
3.0,0.0,3.0,0.0,4.0,0.0,4.0,0.0,,,,right,2.0490967000368983,185.1936825999292,tb12,181.8434402999701,183.8430824999232,185.1936825999292,,True,1.0,['p'],False,0.2,0.2,0.0,0.0,1.0,0.4554859150035951,0.0662499999999999,unsucc_cost,1.0,0.0,183.8430824999232,,tb12,2,2022-04-08_12h08.02.362,threat_forest,2021.2.3,60.165901445129975,True,50.0,0.35,0.4,-1.2625000000000002,-0.9812500000000001,0,0,1.0,0.71739906191423,0.0662499999999999,1.0,0.2,0.2,0.0,-0.40000000000000013,-0.40000000000000013,0.5999999999999999,1.0,0.0,1.0,-1.0,1.0,1,1,0,0,0.625
4.0,0.0,4.0,0.0,0.0,0.0,0.0,0.0,190.71549889992457,194.226608099998,,right,2.5577070000581443,197.97755660000257,tb12,190.71549889992457,194.226608099998,197.97755660000257,,True,4.0,['p'],False,0.4,0.4,0.0,0.0,2.0,0.6126016192893442,0.0555185734261673,unsucc_cost,1.0,2.0,,,tb12,2,2022-04-08_12h08.02.362,threat_forest,2021.2.3,60.165901445129975,True,33.0,0.41428571428571426,0.3821428571428571,-0.7306122448979593,-0.9965561224489797,1,1,1.0,0.9391111540074629,0.0555185734261673,0.4,0.4,0.4,0.0,0.6000000000000001,0.6000000000000001,4.6,4.6,0.0,2.0,-1.0,4.0,0,1,1,1,0.0555185734261673
4.0,0.0,4.0,0.0,1.0,0.0,1.0,0.0,,,,left,2.251629100064747,204.927160799969,tb12,190.71549889992457,194.226608099998,204.927160799969,,False,2.0,['p'],False,0.4,0.4,0.0,0.0,2.0,0.6126016192893442,0.0369828260060052,wait_cost,1.0,1.0,202.5600953999674,,tb12,2,2022-04-08_12h08.02.362,threat_forest,2021.2.3,60.165901445129975,False,33.0,0.41428571428571426,0.3821428571428571,-0.7306122448979593,-0.9965561224489797,1,1,0.0,0.8116539986958059,0.0369828260060052,0.4,0.4,0.4,0.0,0.6000000000000001,0.6000000000000001,2.6,2.6,0.0,2.0,-1.0,2.0,0,1,1,1,0.0369828260060052
4.0,0.0,4.0,0.0,2.0,0.0,2.0,0.0,,,,left,1.6912972000427544,210.5103603999596,tb12,210.5103603999596,,207.21038860001136,209.2103020999348,True,1.0,['p'],True,0.3061224489795918,0.4285714285714285,0.2857142857142857,2.0,2.0,0.9885754083994552,0.1370112372093173,unsucc_cost,0.0,0.0,209.2103020999348,,tb12,2,2022-04-08_12h08.02.362,threat_forest,2021.2.3,60.165901445129975,True,33.0,0.41428571428571426,0.3821428571428571,-0.7306122448979593,-0.9965561224489797,0,0,1.0,0.5254958084905198,0.1370112372093173,1.0,0.3061224489795918,0.4285714285714285,0.2857142857142857,-0.14285714285714324,-0.06122448979591866,0.9387755102040813,1.0,1.0,2.0,-1.0,1.0,1,1,0,0,0.625
5.0,0.0,5.0,0.0,0.0,0.0,0.0,0.0,217.76478609989863,221.2770412999671,,left,1.586448200047016,224.86073549999853,tb12,217.76478609989863,221.2770412999671,224.86073549999853,,False,5.0,['p'],False,0.2040816326530612,0.2857142857142857,0.2857142857142857,2.0,2.0,0.9335459102197724,-0.0417655517413427,wait_cost,1.0,4.0,,,tb12,2,2022-04-08_12h08.02.362,threat_forest,2021.2.3,60.165901445129975,False,21.0,0.47619047619047616,0.4452380952380952,-1.012471655328798,-0.8715419501133786,0,0,0.0,0.4614976810492137,-0.0417655517413427,0.2040816326530612,0.2040816326530612,0.2857142857142857,0.2857142857142857,-0.7142857142857144,-0.46938775510204067,4.530612244897959,4.530612244897959,0.0,2.0,-1.0,5.0,0,1,0,0,-0.0417655517413427
5.0,0.0,5.0,0.0,1.0,0.0,1.0,0.0,,,,left,1.5971523999469357,230.61100769997572,tb12,217.76478609989863,221.2770412999671,230.61100769997572,,False,4.0,['p'],False,0.2040816326530612,0.2857142857142857,0.2857142857142857,2.0,2.0,0.9335459102197724,0.016103917800016,wait_cost,1.0,3.0,228.47713559994008,,tb12,2,2022-04-08_12h08.02.362,threat_forest,2021.2.3,60.165901445129975,False,21.0,0.47619047619047616,0.4452380952380952,-1.012471655328798,-0.8715419501133786,0,0,0.0,0.4682222935758428,0.016103917800016,0.2040816326530612,0.2040816326530612,0.2857142857142857,0.2857142857142857,-0.7142857142857144,-0.46938775510204067,3.5306122448979593,3.5306122448979593,0.0,2.0,-1.0,4.0,0,1,0,0,0.016103917800016
5.0,0.0,5.0,0.0,2.0,0.0,2.0,0.0,,,,left,2.4458029000088573,237.194396100007,tb12,217.76478609989863,221.2770412999671,237.194396100007,,False,3.0,['p'],False,0.2040816326530612,0.2857142857142857,0.2857142857142857,2.0,2.0,0.9335459102197724,0.0021800726536297,wait_cost,1.0,2.0,234.22717629990075,,tb12,2,2022-04-08_12h08.02.362,threat_forest,2021.2.3,60.165901445129975,False,21.0,0.47619047619047616,0.4452380952380952,-1.012471655328798,-0.8715419501133786,0,0,0.0,0.8943734534821594,0.0021800726536297,0.2040816326530612,0.2040816326530612,0.2857142857142857,0.2857142857142857,-0.7142857142857144,-0.46938775510204067,2.5306122448979593,2.5306122448979593,0.0,2.0,-1.0,3.0,0,1,0,0,0.0021800726536297
5.0,0.0,5.0,0.0,3.0,0.0,3.0,0.0,,,,left,1.8869535999838265,244.17765989992768,tb12,244.17765989992768,,239.66087349993177,241.6606659999816,True,2.0,['p'],True,0.4444444444444445,0.6666666666666666,0.3333333333333333,1.0,2.0,0.9656336071428248,0.10522521765908,succ_gain,0.0,4.0,241.6606659999816,,tb12,2,2022-04-08_12h08.02.362,threat_forest,2021.2.3,60.165901445129975,True,21.0,0.47619047619047616,0.4452380952380952,-1.012471655328798,-0.8715419501133786,1,0,1.0,0.6349636767803427,0.10522521765908,0.4444444444444445,0.4444444444444445,0.6666666666666666,0.3333333333333333,0.6666666666666665,0.4444444444444444,2.4444444444444446,2.4444444444444446,1.0,2.0,-1.0,2.0,0,1,0,1,0.10522521765908
5.0,0.0,5.0,0.0,4.0,0.0,4.0,0.0,,,,left,1.207732000038959,250.7776720999973,tb12,250.7776720999973,,239.66087349993177,241.6606659999816,True,4.0,['p'],True,0.4444444444444445,0.6666666666666666,0.3333333333333333,1.0,2.0,0.9656336071428248,0.1875157470395566,fight_cost,0.0,1.0,248.09416259999853,,tb12,2,2022-04-08_12h08.02.362,threat_forest,2021.2.3,60.165901445129975,True,21.0,0.47619047619047616,0.4452380952380952,-1.012471655328798,-0.8715419501133786,1,0,1.0,0.1887442206269388,0.1875157470395566,0.4444444444444445,0.4444444444444445,0.6666666666666666,0.3333333333333333,0.6666666666666665,0.4444444444444444,4.444444444444445,4.444444444444445,1.0,2.0,1.0,4.0,0,1,0,1,0.1875157470395566
5.0,0.0,5.0,0.0,5.0,0.0,5.0,0.0,,,,left,2.1254048000555485,255.6111684999196,tb12,255.6111684999196,,239.66087349993177,241.6606659999816,True,1.0,['p'],True,0.4444444444444445,0.6666666666666666,0.3333333333333333,1.0,2.0,0.9656336071428248,0.4444444444444444,succ_gain,0.0,3.0,254.0108051999705,,tb12,2,2022-04-08_12h08.02.362,threat_forest,2021.2.3,60.165901445129975,True,21.0,0.47619047619047616,0.4452380952380952,-1.012471655328798,-0.8715419501133786,1,0,1.0,0.7539622783784622,0.4444444444444444,1.0,0.4444444444444445,0.6666666666666666,0.3333333333333333,0.6666666666666665,0.4444444444444444,1.4444444444444444,1.4444444444444444,1.0,2.0,-1.0,1.0,1,1,0,1,0.625
5.0,0.0,5.0,0.0,6.0,0.0,6.0,0.0,,,,,,260.4279929999029,tb12,257.76111759990454,259.7609657999128,260.4279929999029,,True,3.0,['p'],False,0.2040816326530612,0.2857142857142857,0.2857142857142857,2.0,2.0,0.9335459102197724,-0.6304780415567588,wait_cost,1.0,2.0,259.7609657999128,,tb12,2,2022-04-08_12h08.02.362,threat_forest,2021.2.3,60.165901445129975,,21.0,0.47619047619047616,0.4452380952380952,-1.012471655328798,-0.8715419501133786,0,0,,,-0.6304780415567588,0.0,0.2040816326530612,0.2857142857142857,0.2857142857142857,-0.7142857142857144,-0.46938775510204067,2.5306122448979593,2.5306122448979593,0.0,2.0,1.0,3.0,0,0,0,0,-0.84
5.0,0.0,5.0,0.0,7.0,0.0,7.0,0.0,,,,left,1.7197815000545231,266.91138119995594,tb12,266.91138119995594,,263.4279692999553,265.4276383999968,True,2.0,['p'],True,0.4444444444444445,0.6666666666666666,0.3333333333333333,1.0,2.0,0.9656336071428248,-0.5555555555555556,fight_cost,0.0,0.0,265.4276383999968,,tb12,2,2022-04-08_12h08.02.362,threat_forest,2021.2.3,60.165901445129975,True,21.0,0.47619047619047616,0.4452380952380952,-1.012471655328798,-0.8715419501133786,1,0,1.0,0.54219724790373,-0.5555555555555556,0.0,0.4444444444444445,0.6666666666666666,0.3333333333333333,0.6666666666666665,0.4444444444444444,2.4444444444444446,2.4444444444444446,1.0,2.0,-1.0,2.0,0,0,0,1,-0.84
6.0,0.0,6.0,0.0,0.0,0.0,0.0,0.0,273.71776229992975,277.22784539998975,,left,1.2451092000119388,280.4288303999929,tb12,280.4288303999929,,273.71776229992975,277.22784539998975,True,5.0,['r'],True,0.4444444444444445,0.6666666666666666,0.3333333333333333,1.0,1.0,0.9656336071428248,0.0492535467687539,unsucc_cost,0.0,3.0,,,tb12,2,2022-04-08_12h08.02.362,threat_forest,2021.2.3,60.165901445129975,True,39.0,0.43333333333333335,0.45476190476190476,-1.2000000000000002,-1.106235827664399,1,0,1.0,0.21922323692326187,0.0492535467687539,0.4444444444444445,0.4444444444444445,0.6666666666666666,0.3333333333333333,0.0,0.0,5.0,5.0,1.0,1.0,-1.0,5.0,0,1,0,1,0.0492535467687539
6.0,0.0,6.0,0.0,1.0,0.0,1.0,0.0,,,,left,1.439164499985054,285.66152009996586,tb12,285.66152009996586,,273.71776229992975,277.22784539998975,True,3.0,['r'],True,0.4444444444444445,0.6666666666666666,0.3333333333333333,1.0,1.0,0.9656336071428248,0.0524121025193765,fight_cost,0.0,0.0,283.69477780000307,,tb12,2,2022-04-08_12h08.02.362,threat_forest,2021.2.3,60.165901445129975,True,39.0,0.43333333333333335,0.45476190476190476,-1.2000000000000002,-1.106235827664399,1,0,1.0,0.36406273685819984,0.0524121025193765,0.4444444444444445,0.4444444444444445,0.6666666666666666,0.3333333333333333,0.0,0.0,3.0,3.0,1.0,1.0,-1.0,3.0,0,1,0,1,0.0524121025193765
7.0,0.0,7.0,0.0,0.0,0.0,0.0,0.0,291.16961509990506,294.67809199995827,,right,2.735131500056013,297.32894449995365,tb12,291.16961509990506,294.67809199995827,297.32894449995365,,True,5.0,['p'],False,0.375,0.5,0.25,1.0,2.0,0.9850568223215076,0.0153323500884942,unsucc_cost,1.0,3.0,,,tb12,2,2022-04-08_12h08.02.362,threat_forest,2021.2.3,60.165901445129975,True,31.0,0.41666666666666663,0.425,-0.9675925925925928,-1.0837962962962964,1,0,1.0,1.0061795151773532,0.0153323500884942,0.375,0.375,0.5,0.25,0.25,0.25,5.25,5.25,0.0,2.0,-1.0,5.0,0,1,0,1,0.0153323500884942
7.0,0.0,7.0,0.0,1.0,0.0,1.0,0.0,,,,right,2.3502623999956995,304.26324719993863,tb12,304.26324719993863,,300.09512319997884,302.0948707999196,False,3.0,['p'],True,0.2592592592592592,0.3333333333333333,0.2222222222222222,2.0,2.0,0.9327883776363324,0.0348746299545656,wait_cost,0.0,2.0,302.0948707999196,,tb12,2,2022-04-08_12h08.02.362,threat_forest,2021.2.3,60.165901445129975,False,31.0,0.41666666666666663,0.425,-0.9675925925925928,-1.0837962962962964,0,0,0.0,0.8545269814952396,0.0348746299545656,0.2592592592592592,0.2592592592592592,0.3333333333333333,0.2222222222222222,-0.3333333333333335,-0.18518518518518556,2.8148148148148144,2.8148148148148144,1.0,2.0,-1.0,3.0,0,1,0,0,0.0348746299545656
7.0,0.0,7.0,0.0,2.0,0.0,2.0,0.0,,,,right,2.0776447999523957,310.8953940999927,tb12,310.8953940999927,,300.09512319997884,302.0948707999196,False,2.0,['p'],True,0.2592592592592592,0.3333333333333333,0.2222222222222222,2.0,2.0,0.9327883776363324,-0.0142932796568574,wait_cost,0.0,1.0,308.64492949994747,,tb12,2,2022-04-08_12h08.02.362,threat_forest,2021.2.3,60.165901445129975,False,31.0,0.41666666666666663,0.425,-0.9675925925925928,-1.0837962962962964,0,0,0.0,0.7312349444533216,-0.0142932796568574,0.2592592592592592,0.2592592592592592,0.3333333333333333,0.2222222222222222,-0.3333333333333335,-0.18518518518518556,1.8148148148148144,1.8148148148148144,1.0,2.0,-1.0,2.0,0,1,0,0,-0.0142932796568574
7.0,0.0,7.0,0.0,3.0,0.0,3.0,0.0,,,,right,1.997451600036584,317.2954310999485,tb12,312.995353300008,314.9950751999859,317.2954310999485,,True,1.0,['p'],False,0.375,0.5,0.25,1.0,2.0,0.9850568223215076,0.1720538355195473,succ_gain,1.0,3.0,314.9950751999859,,tb12,2,2022-04-08_12h08.02.362,threat_forest,2021.2.3,60.165901445129975,True,31.0,0.41666666666666663,0.425,-0.9675925925925928,-1.0837962962962964,1,0,1.0,0.69187216809519,0.1720538355195473,1.0,0.375,0.5,0.25,0.25,0.25,1.25,1.25,0.0,2.0,-1.0,1.0,1,1,0,1,0.625
7.0,0.0,7.0,0.0,4.0,0.0,4.0,0.0,,,,right,2.9459704000037163,322.7964708999498,tb12,322.7964708999498,,319.31208279996645,321.31191619997844,False,3.0,['p'],True,0.2592592592592592,0.3333333333333333,0.2222222222222222,2.0,2.0,0.9327883776363324,0.0776320301783265,wait_cost,0.0,2.0,321.31191619997844,,tb12,2,2022-04-08_12h08.02.362,threat_forest,2021.2.3,60.165901445129975,False,31.0,0.41666666666666663,0.425,-0.9675925925925928,-1.0837962962962964,0,0,0.0,1.0804382704691595,0.0776320301783265,0.2592592592592592,0.2592592592592592,0.3333333333333333,0.2222222222222222,-0.3333333333333335,-0.18518518518518556,2.8148148148148144,2.8148148148148144,1.0,2.0,1.0,3.0,0,1,0,0,0.0776320301783265
7.0,0.0,7.0,0.0,5.0,0.0,5.0,0.0,,,,right,2.070227100048214,328.4955639999825,tb12,328.4955639999825,,319.31208279996645,321.31191619997844,False,2.0,['p'],True,0.2592592592592592,0.3333333333333333,0.2222222222222222,2.0,2.0,0.9327883776363324,-0.0578703703703703,wait_cost,0.0,1.0,327.7619255000027,,tb12,2,2022-04-08_12h08.02.362,threat_forest,2021.2.3,60.165901445129975,False,31.0,0.41666666666666663,0.425,-0.9675925925925928,-1.0837962962962964,0,0,0.0,0.7276583114277767,-0.0578703703703703,0.2592592592592592,0.2592592592592592,0.3333333333333333,0.2222222222222222,-0.3333333333333335,-0.18518518518518556,1.8148148148148144,1.8148148148148144,1.0,2.0,-1.0,2.0,0,1,0,0,-0.0578703703703703
7.0,0.0,7.0,0.0,6.0,0.0,6.0,0.0,,,,right,1.7824465000303462,336.19562099990435,tb12,330.5957628999604,332.59563389990944,336.19562099990435,,True,1.0,['p'],False,0.375,0.5,0.25,1.0,2.0,0.9850568223215076,0.375,unsucc_cost,1.0,0.0,332.59563389990944,,tb12,2,2022-04-08_12h08.02.362,threat_forest,2021.2.3,60.165901445129975,True,31.0,0.41666666666666663,0.425,-0.9675925925925928,-1.0837962962962964,1,0,1.0,0.5779868588476637,0.375,1.0,0.375,0.5,0.25,0.25,0.25,1.25,1.25,0.0,2.0,-1.0,1.0,1,1,0,1,0.625
8.0,0.0,8.0,0.0,0.0,0.0,0.0,0.0,343.7689883999992,347.2789491999429,,right,1.3901520998915655,349.7311958000064,tb12,349.7311958000064,,343.7689883999992,347.2789491999429,False,5.0,['p'],True,0.18,0.2,0.1,1.0,2.0,0.7058405977926203,-0.0324991432968132,wait_cost,0.0,4.0,,,tb12,2,2022-04-08_12h08.02.362,threat_forest,2021.2.3,60.165901445129975,False,41.0,0.43333333333333335,0.425,-0.9677777777777778,-0.9676851851851853,0,0,0.0,0.3294131655386106,-0.0324991432968132,0.18,0.18,0.2,0.1,-0.5000000000000002,-0.3800000000000001,4.62,4.62,1.0,2.0,-1.0,5.0,0,1,0,0,-0.0324991432968132
8.0,0.0,8.0,0.0,1.0,0.0,1.0,0.0,,,,right,1.4573218999430535,355.67964240000583,tb12,355.67964240000583,,343.7689883999992,347.2789491999429,False,4.0,['p'],True,0.18,0.2,0.1,1.0,2.0,0.7058405977926203,0.0073549610652169,wait_cost,0.0,3.0,353.145667099976,,tb12,2,2022-04-08_12h08.02.362,threat_forest,2021.2.3,60.165901445129975,False,41.0,0.43333333333333335,0.425,-0.9677777777777778,-0.9676851851851853,0,0,0.0,0.37660043619664224,0.0073549610652169,0.18,0.18,0.2,0.1,-0.5000000000000002,-0.3800000000000001,3.62,3.62,1.0,2.0,-1.0,4.0,0,1,0,0,0.0073549610652169
8.0,0.0,8.0,0.0,2.0,0.0,2.0,0.0,,,,right,1.7710945999715475,360.12923029996455,tb12,357.1627264999552,359.162377199973,360.12923029996455,,True,3.0,['p'],False,0.4444444444444445,0.6666666666666666,0.3333333333333333,1.0,2.0,0.9656336071428248,0.1096367459228776,succ_gain,1.0,5.0,359.162377199973,,tb12,2,2022-04-08_12h08.02.362,threat_forest,2021.2.3,60.165901445129975,True,41.0,0.43333333333333335,0.425,-0.9677777777777778,-0.9676851851851853,1,1,1.0,0.5715977735071082,0.1096367459228776,0.4444444444444445,0.4444444444444445,0.6666666666666666,0.3333333333333333,0.6666666666666665,0.4444444444444444,3.4444444444444446,3.4444444444444446,0.0,2.0,-1.0,3.0,0,1,1,1,0.1096367459228776
8.0,0.0,8.0,0.0,3.0,0.0,3.0,0.0,,,,right,0.9955785000929608,366.5959731999319,tb12,357.1627264999552,359.162377199973,366.5959731999319,,True,5.0,['p'],False,0.4444444444444445,0.6666666666666666,0.3333333333333333,1.0,2.0,0.9656336071428248,0.1145178326474622,unsucc_cost,1.0,3.0,363.9293347999919,,tb12,2,2022-04-08_12h08.02.362,threat_forest,2021.2.3,60.165901445129975,True,41.0,0.43333333333333335,0.425,-0.9677777777777778,-0.9676851851851853,1,1,1.0,-0.004431303646581788,0.1145178326474622,0.4444444444444445,0.4444444444444445,0.6666666666666666,0.3333333333333333,0.6666666666666665,0.4444444444444444,5.444444444444445,5.444444444444445,0.0,2.0,1.0,5.0,0,1,1,1,0.1145178326474622
8.0,0.0,8.0,0.0,4.0,0.0,4.0,0.0,,,,right,1.0798718000296503,371.296190999914,tb12,357.1627264999552,359.162377199973,371.296190999914,,True,3.0,['p'],False,0.4444444444444445,0.6666666666666666,0.3333333333333333,1.0,2.0,0.9656336071428248,0.1354938271604938,fight_cost,1.0,0.0,369.61263629992027,,tb12,2,2022-04-08_12h08.02.362,threat_forest,2021.2.3,60.165901445129975,True,41.0,0.43333333333333335,0.425,-0.9677777777777778,-0.9676851851851853,1,1,1.0,0.07684233041403966,0.1354938271604938,0.4444444444444445,0.4444444444444445,0.6666666666666666,0.3333333333333333,0.6666666666666665,0.4444444444444444,3.4444444444444446,3.4444444444444446,0.0,2.0,-1.0,3.0,0,1,1,1,0.1354938271604938
9.0,0.0,9.0,0.0,0.0,0.0,0.0,0.0,375.52228029991966,379.02930499997456,,left,2.261802900000476,382.08009319996927,tb12,375.52228029991966,379.02930499997456,382.08009319996927,,False,4.0,['p'],False,0.4166666666666667,0.5,0.1666666666666666,1.0,1.0,0.9358932809493992,0.0414014973705713,wait_cost,1.0,3.0,,,tb12,2,2022-04-08_12h08.02.362,threat_forest,2021.2.3,60.165901445129975,False,16.0,0.4,0.4166666666666667,-1.1033333333333333,-1.0355555555555556,1,0,0.0,0.8161622386191255,0.0414014973705713,0.4166666666666667,0.4166666666666667,0.5,0.1666666666666666,2.220446049250313e-16,0.08333333333333348,4.083333333333334,4.083333333333334,0.0,1.0,-1.0,4.0,0,1,0,1,0.0414014973705713
9.0,0.0,9.0,0.0,1.0,0.0,1.0,0.0,,,,right,1.5112732000416145,388.2516483999789,tb12,388.2516483999789,,384.3632134000072,386.3627931999508,False,3.0,['p'],True,0.27,0.3,0.1,1.0,1.0,0.7963326591781347,0.0226762938595989,wait_cost,0.0,2.0,386.3627931999508,,tb12,2,2022-04-08_12h08.02.362,threat_forest,2021.2.3,60.165901445129975,False,16.0,0.4,0.4166666666666667,-1.1033333333333333,-1.0355555555555556,0,0,0.0,0.41295247438675814,0.0226762938595989,0.27,0.27,0.3,0.1,-0.3999999999999999,-0.29000000000000004,2.71,2.71,1.0,1.0,-1.0,3.0,0,1,0,0,0.0226762938595989
9.0,0.0,9.0,0.0,2.0,0.0,2.0,0.0,,,,left,2.7129790000617504,393.8137235000031,tb12,389.7798673999496,391.7795407999074,393.8137235000031,,False,2.0,['p'],False,0.4166666666666667,0.5,0.1666666666666666,1.0,1.0,0.9358932809493992,0.0468912204938272,wait_cost,1.0,1.0,391.7795407999074,,tb12,2,2022-04-08_12h08.02.362,threat_forest,2021.2.3,60.165901445129975,False,16.0,0.4,0.4166666666666667,-1.1033333333333333,-1.0355555555555556,1,0,0.0,0.9980472931609359,0.0468912204938272,0.4166666666666667,0.4166666666666667,0.5,0.1666666666666666,2.220446049250313e-16,0.08333333333333348,2.0833333333333335,2.0833333333333335,0.0,1.0,-1.0,2.0,0,1,0,1,0.0468912204938272
9.0,0.0,9.0,0.0,3.0,0.0,3.0,0.0,,,,right,2.8828973000636324,402.01402589993086,tb12,389.7798673999496,391.7795407999074,402.01402589993086,,True,1.0,['p'],False,0.4166666666666667,0.5,0.1666666666666666,1.0,1.0,0.9358932809493992,0.0748196450617284,fight_cost,1.0,0.0,398.5464857999468,,tb12,2,2022-04-08_12h08.02.362,threat_forest,2021.2.3,60.165901445129975,True,16.0,0.4,0.4166666666666667,-1.1033333333333333,-1.0355555555555556,1,0,1.0,1.0587957954285059,0.0748196450617284,1.0,0.4166666666666667,0.5,0.1666666666666666,2.220446049250313e-16,0.08333333333333348,1.0833333333333335,1.0833333333333335,0.0,1.0,-1.0,1.0,1,1,0,1,0.625
10.0,0.0,10.0,0.0,0.0,0.0,0.0,0.0,408.7878239999991,412.29659099993296,,right,1.6224519000388682,415.89894240000285,tb12,415.89894240000285,,408.7878239999991,412.29659099993296,False,5.0,['p'],True,0.24,0.3,0.2,2.0,2.0,0.9003120349047065,-0.0305436800767033,wait_cost,0.0,4.0,,,tb12,2,2022-04-08_12h08.02.362,threat_forest,2021.2.3,60.165901445129975,False,15.0,0.4833333333333333,0.44166666666666665,-0.8977777777777778,-1.0005555555555556,0,0,0.0,0.48393852357199607,-0.0305436800767033,0.24,0.24,0.3,0.2,-0.3999999999999999,-0.24,4.76,4.76,1.0,2.0,-1.0,5.0,0,1,0,0,-0.0305436800767033
10.0,0.0,10.0,0.0,1.0,0.0,1.0,0.0,,,,right,2.180680499994196,422.1306818999583,tb12,422.1306818999583,,408.7878239999991,412.29659099993296,False,4.0,['p'],True,0.24,0.3,0.2,2.0,2.0,0.9003120349047065,0.023182399409304,wait_cost,0.0,3.0,419.5466765000019,,tb12,2,2022-04-08_12h08.02.362,threat_forest,2021.2.3,60.165901445129975,False,15.0,0.4833333333333333,0.44166666666666665,-0.8977777777777778,-1.0005555555555556,0,0,0.0,0.7796369840511027,0.023182399409304,0.24,0.24,0.3,0.2,-0.3999999999999999,-0.24,3.76,3.76,1.0,2.0,-1.0,4.0,0,1,0,0,0.023182399409304
10.0,0.0,10.0,0.0,2.0,0.0,2.0,0.0,,,,right,2.356075800023973,429.0974178999895,tb12,424.3303690999746,426.3300466999645,429.0974178999895,,True,3.0,['p'],False,0.4444444444444445,0.6666666666666666,0.3333333333333333,1.0,2.0,0.9656336071428248,0.1061548666361835,fight_cost,1.0,0.0,426.3300466999645,,tb12,2,2022-04-08_12h08.02.362,threat_forest,2021.2.3,60.165901445129975,True,15.0,0.4833333333333333,0.44166666666666665,-0.8977777777777778,-1.0005555555555556,1,1,1.0,0.8569974384568424,0.1061548666361835,0.4444444444444445,0.4444444444444445,0.6666666666666666,0.3333333333333333,0.6666666666666665,0.4444444444444444,3.4444444444444446,3.4444444444444446,0.0,2.0,-1.0,3.0,0,1,1,1,0.1061548666361835
11.0,0.0,11.0,0.0,0.0,0.0,0.0,0.0,435.4028289999114,438.913624699926,,left,1.5485978999640793,440.1810366999125,tb12,435.4028289999114,438.913624699926,440.1810366999125,,False,4.0,['r'],False,0.2448979591836734,0.2857142857142857,0.1428571428571428,1.0,2.0,0.8400769154957735,0.0036753268254111,wait_cost,1.0,3.0,,,tb12,2,2022-04-08_12h08.02.362,threat_forest,2021.2.3,60.165901445129975,False,42.0,0.39285714285714285,0.4380952380952381,-0.9566326530612245,-0.9272052154195012,0,0,0.0,0.43734994088282975,0.0036753268254111,0.2448979591836734,0.2448979591836734,0.2857142857142857,0.1428571428571428,-0.2857142857142856,-0.16326530612244894,3.836734693877551,3.836734693877551,0.0,2.0,-1.0,4.0,0,1,0,0,0.0036753268254111
11.0,0.0,11.0,0.0,1.0,0.0,1.0,0.0,,,,,,444.6308312999317,tb12,435.4028289999114,438.913624699926,444.6308312999317,,True,3.0,['r'],False,0.2448979591836734,0.2857142857142857,0.1428571428571428,1.0,2.0,0.8400769154957735,0.0373646502000353,wait_cost,1.0,2.0,443.7470129999565,,tb12,2,2022-04-08_12h08.02.362,threat_forest,2021.2.3,60.165901445129975,,42.0,0.39285714285714285,0.4380952380952381,-0.9566326530612245,-0.9272052154195012,0,0,,,0.0373646502000353,0.2448979591836734,0.2448979591836734,0.2857142857142857,0.1428571428571428,-0.2857142857142856,-0.16326530612244894,2.836734693877551,2.836734693877551,0.0,2.0,-1.0,3.0,0,1,0,0,0.0373646502000353
11.0,0.0,11.0,0.0,2.0,0.0,2.0,0.0,,,,left,1.6742516999365762,452.9144740999909,tb12,435.4028289999114,438.913624699926,452.9144740999909,,False,2.0,['r'],False,0.2448979591836734,0.2857142857142857,0.1428571428571428,1.0,2.0,0.8400769154957735,-0.0192806690339615,wait_cost,1.0,1.0,449.6304080999689,,tb12,2,2022-04-08_12h08.02.362,threat_forest,2021.2.3,60.165901445129975,False,42.0,0.39285714285714285,0.4380952380952381,-0.9566326530612245,-0.9272052154195012,0,0,0.0,0.515366319149646,-0.0192806690339615,0.2448979591836734,0.2448979591836734,0.2857142857142857,0.1428571428571428,-0.2857142857142856,-0.16326530612244894,1.836734693877551,1.836734693877551,0.0,2.0,-1.0,2.0,0,1,0,0,-0.0192806690339615
11.0,0.0,11.0,0.0,3.0,0.0,3.0,0.0,,,,left,2.280975100002252,459.231134200003,tb12,459.231134200003,,454.6141403999645,456.61389269994106,True,1.0,['r'],True,0.375,0.5,0.25,1.0,2.0,0.9850568223215076,0.1736050327337567,unsucc_cost,0.0,0.0,456.61389269994106,,tb12,2,2022-04-08_12h08.02.362,threat_forest,2021.2.3,60.165901445129975,True,42.0,0.39285714285714285,0.4380952380952381,-0.9566326530612245,-0.9272052154195012,1,0,1.0,0.8246030269788592,0.1736050327337567,1.0,0.375,0.5,0.25,0.25,0.25,1.25,1.25,1.0,2.0,-1.0,1.0,1,1,0,1,0.625
12.0,0.0,12.0,0.0,0.0,0.0,0.0,0.0,466.40831909992266,469.9105734999757,,,,473.2814313999843,tb12,466.40831909992266,469.9105734999757,473.2814313999843,,True,5.0,['r'],False,0.2857142857142857,0.2857142857142857,0.0,0.0,2.0,0.5445684476282007,0.0313986794861317,wait_cost,1.0,4.0,,,tb12,2,2022-04-08_12h08.02.362,threat_forest,2021.2.3,60.165901445129975,,55.0,0.2928571428571428,0.34285714285714286,-1.0485714285714285,-1.0026020408163265,1,0,,,0.0313986794861317,0.2857142857142857,0.2857142857142857,0.2857142857142857,0.0,0.1428571428571428,0.1428571428571428,5.142857142857142,5.142857142857142,0.0,2.0,-1.0,5.0,0,1,0,1,0.0313986794861317
12.0,0.0,12.0,0.0,1.0,0.0,1.0,0.0,,,,,,479.0817170999944,tb12,466.40831909992266,469.9105734999757,479.0817170999944,,True,4.0,['r'],False,0.2857142857142857,0.2857142857142857,0.0,0.0,2.0,0.5445684476282007,0.0344651387255309,wait_cost,1.0,3.0,478.2808483999688,,tb12,2,2022-04-08_12h08.02.362,threat_forest,2021.2.3,60.165901445129975,,55.0,0.2928571428571428,0.34285714285714286,-1.0485714285714285,-1.0026020408163265,1,0,,,0.0344651387255309,0.2857142857142857,0.2857142857142857,0.2857142857142857,0.0,0.1428571428571428,0.1428571428571428,4.142857142857142,4.142857142857142,0.0,2.0,-1.0,4.0,0,1,0,1,0.0344651387255309
12.0,0.0,12.0,0.0,2.0,0.0,2.0,0.0,,,,right,1.942915300023742,484.88337299996056,tb12,484.88337299996056,,482.0812442000024,484.0809716999065,False,3.0,['r'],True,0.24,0.3,0.2,2.0,2.0,0.9003120349047065,0.0759881665306122,wait_cost,0.0,2.0,484.0809716999065,,tb12,2,2022-04-08_12h08.02.362,threat_forest,2021.2.3,60.165901445129975,False,55.0,0.2928571428571428,0.34285714285714286,-1.0485714285714285,-1.0026020408163265,0,0,0.0,0.6641895770744343,0.0759881665306122,0.24,0.24,0.3,0.2,-0.3999999999999999,-0.24,2.76,2.76,1.0,2.0,-1.0,3.0,0,1,0,0,0.0759881665306122
12.0,0.0,12.0,0.0,3.0,0.0,3.0,0.0,,,,right,2.5558312999783084,492.1813970999792,tb12,492.1813970999792,,482.0812442000024,484.0809716999065,False,2.0,['r'],True,0.24,0.3,0.2,2.0,2.0,0.9003120349047065,-0.0017800583090379,wait_cost,0.0,1.0,488.8477896999102,,tb12,2,2022-04-08_12h08.02.362,threat_forest,2021.2.3,60.165901445129975,False,55.0,0.2928571428571428,0.34285714285714286,-1.0485714285714285,-1.0026020408163265,0,0,0.0,0.9383775327636569,-0.0017800583090379,0.24,0.24,0.3,0.2,-0.3999999999999999,-0.24,1.76,1.76,1.0,2.0,-1.0,2.0,0,1,0,0,-0.0017800583090379
12.0,0.0,12.0,0.0,4.0,0.0,4.0,0.0,,,,right,1.025306799914688,499.2486343999626,tb12,494.76462719996925,496.764928599936,499.2486343999626,,True,1.0,['r'],False,0.2857142857142857,0.2857142857142857,0.0,0.0,2.0,0.5445684476282007,0.1229527696793002,unsucc_cost,1.0,0.0,496.764928599936,,tb12,2,2022-04-08_12h08.02.362,threat_forest,2021.2.3,60.165901445129975,True,55.0,0.2928571428571428,0.34285714285714286,-1.0485714285714285,-1.0026020408163265,1,0,1.0,0.024991884793917535,0.1229527696793002,1.0,0.2857142857142857,0.2857142857142857,0.0,0.1428571428571428,0.1428571428571428,1.1428571428571428,1.1428571428571428,0.0,2.0,-1.0,1.0,1,1,0,1,0.625
13.0,0.0,13.0,0.0,0.0,0.0,0.0,0.0,503.4717034999048,506.9812679999741,,left,1.9594493999611584,509.7818939998979,tb12,509.7818939998979,,503.4717034999048,506.9812679999741,True,5.0,['p'],True,0.25,0.5,0.5,1.0,2.0,0.9463946303571862,-0.0007067709743359,succ_gain,0.0,6.0,,,tb12,2,2022-04-08_12h08.02.362,threat_forest,2021.2.3,60.165901445129975,True,8.0,0.35,0.3214285714285714,-1.5300000000000002,-1.2892857142857144,0,0,1.0,0.6726635153903006,-0.0007067709743359,0.25,0.25,0.5,0.5,-0.5,-0.5,4.5,4.5,1.0,2.0,-1.0,5.0,0,1,0,0,-0.0007067709743359
13.0,0.0,13.0,0.0,1.0,0.0,1.0,0.0,,,,left,2.0294038999127224,516.7150574999396,tb12,516.7150574999396,,503.4717034999048,506.9812679999741,True,6.0,['p'],True,0.25,0.5,0.5,1.0,2.0,0.9463946303571862,-0.1080868773281251,fight_cost,0.0,3.0,513.7648050999269,,tb12,2,2022-04-08_12h08.02.362,threat_forest,2021.2.3,60.165901445129975,True,8.0,0.35,0.3214285714285714,-1.5300000000000002,-1.2892857142857144,0,0,1.0,0.7077421045682634,-0.1080868773281251,0.25,0.25,0.5,0.5,-0.5,-0.5,5.5,5.5,1.0,2.0,1.0,6.0,0,1,0,0,-0.1080868773281251
13.0,0.0,13.0,0.0,2.0,0.0,2.0,0.0,,,,left,2.1432126000290737,522.5818471999373,tb12,522.5818471999373,,503.4717034999048,506.9812679999741,True,3.0,['p'],True,0.25,0.5,0.5,1.0,2.0,0.9463946303571862,0.0416813124999999,succ_gain,0.0,5.0,520.7648088999558,,tb12,2,2022-04-08_12h08.02.362,threat_forest,2021.2.3,60.165901445129975,True,8.0,0.35,0.3214285714285714,-1.5300000000000002,-1.2892857142857144,0,0,1.0,0.7623059183038963,0.0416813124999999,0.25,0.25,0.5,0.5,-0.5,-0.5,2.5,2.5,1.0,2.0,-1.0,3.0,0,1,0,0,0.0416813124999999
13.0,0.0,13.0,0.0,3.0,0.0,3.0,0.0,,,,left,2.1749377999221906,530.465848499909,tb12,530.465848499909,,503.4717034999048,506.9812679999741,True,5.0,['p'],True,0.25,0.5,0.5,1.0,2.0,0.9463946303571862,0.05981875,succ_gain,0.0,6.0,526.7482594999019,,tb12,2,2022-04-08_12h08.02.362,threat_forest,2021.2.3,60.165901445129975,True,8.0,0.35,0.3214285714285714,-1.5300000000000002,-1.2892857142857144,0,0,1.0,0.7770000663948005,0.05981875,0.25,0.25,0.5,0.5,-0.5,-0.5,4.5,4.5,1.0,2.0,1.0,5.0,0,1,0,0,0.05981875
13.0,0.0,13.0,0.0,4.0,0.0,4.0,0.0,,,,left,1.6677753999829292,535.581932800007,tb12,535.581932800007,,503.4717034999048,506.9812679999741,True,6.0,['p'],True,0.25,0.5,0.5,1.0,2.0,0.9463946303571862,-0.3518875,fight_cost,0.0,3.0,534.6650224999757,,tb12,2,2022-04-08_12h08.02.362,threat_forest,2021.2.3,60.165901445129975,True,8.0,0.35,0.3214285714285714,-1.5300000000000002,-1.2892857142857144,0,0,1.0,0.5114906425817101,-0.3518875,0.0,0.25,0.5,0.5,-0.5,-0.5,5.5,5.5,1.0,2.0,1.0,6.0,0,0,0,0,-0.84
13.0,0.0,13.0,0.0,5.0,0.0,5.0,0.0,,,,left,2.1812133999774237,541.5181085999357,tb12,537.2820550999604,539.2817603999283,541.5181085999357,,False,3.0,['p'],False,0.16,0.2,0.2,2.0,2.0,0.8198746470064713,0.0636999999999998,wait_cost,1.0,2.0,539.2817603999283,,tb12,2,2022-04-08_12h08.02.362,threat_forest,2021.2.3,60.165901445129975,False,8.0,0.35,0.3214285714285714,-1.5300000000000002,-1.2892857142857144,0,0,0.0,0.7798813274478472,0.0636999999999998,0.16,0.16,0.2,0.2,-0.8000000000000003,-0.5600000000000003,2.4399999999999995,2.4399999999999995,0.0,2.0,-1.0,3.0,0,1,0,0,0.0636999999999998
13.0,0.0,13.0,0.0,6.0,0.0,6.0,0.0,,,,right,2.046157700009644,548.8157857999904,tb12,548.8157857999904,,543.732127700001,545.7318754999433,False,2.0,['p'],True,0.25,0.5,0.5,1.0,2.0,0.9463946303571862,0.045,wait_cost,0.0,1.0,545.7318754999433,,tb12,2,2022-04-08_12h08.02.362,threat_forest,2021.2.3,60.165901445129975,False,8.0,0.35,0.3214285714285714,-1.5300000000000002,-1.2892857142857144,0,0,0.0,0.7159637417877028,0.045,0.25,0.25,0.5,0.5,-0.5,-0.5,1.5,1.5,1.0,2.0,-1.0,2.0,0,1,0,0,0.045
13.0,0.0,13.0,0.0,7.0,0.0,7.0,0.0,,,,left,1.7391364000504836,556.1658339999849,tb12,556.1658339999849,,543.732127700001,545.7318754999433,True,1.0,['p'],True,0.25,0.5,0.5,1.0,2.0,0.9463946303571862,0.25,fight_cost,0.0,0.0,552.8820158999879,,tb12,2,2022-04-08_12h08.02.362,threat_forest,2021.2.3,60.165901445129975,True,8.0,0.35,0.3214285714285714,-1.5300000000000002,-1.2892857142857144,0,0,1.0,0.5533886682079322,0.25,1.0,0.25,0.5,0.5,-0.5,-0.5,0.5,1.0,1.0,2.0,-1.0,1.0,1,1,0,0,0.625
14.0,0.0,14.0,0.0,0.0,0.0,0.0,0.0,562.83906509995,566.348921299912,,left,1.9721922000171617,567.6492572999559,tb12,562.83906509995,566.348921299912,567.6492572999559,,False,5.0,['r'],False,0.3061224489795918,0.4285714285714285,0.2857142857142857,2.0,1.0,0.9885754083994552,-0.0051042852935925,wait_cost,1.0,4.0,,,tb12,2,2022-04-08_12h08.02.362,threat_forest,2021.2.3,60.165901445129975,False,36.0,0.41428571428571426,0.3821428571428571,-1.083673469387755,-1.3068367346938776,0,0,0.0,0.679145715942832,-0.0051042852935925,0.3061224489795918,0.3061224489795918,0.4285714285714285,0.2857142857142857,-0.5714285714285716,-0.36734693877551017,4.63265306122449,4.63265306122449,0.0,1.0,-1.0,5.0,0,1,0,0,-0.0051042852935925
14.0,0.0,14.0,0.0,1.0,0.0,1.0,0.0,,,,left,1.292572799953632,575.0825474999147,tb12,562.83906509995,566.348921299912,575.0825474999147,,False,4.0,['r'],False,0.3061224489795918,0.4285714285714285,0.2857142857142857,2.0,1.0,0.9885754083994552,0.0131354906297295,wait_cost,1.0,3.0,571.6490257999394,,tb12,2,2022-04-08_12h08.02.362,threat_forest,2021.2.3,60.165901445129975,False,36.0,0.41428571428571426,0.3821428571428571,-1.083673469387755,-1.3068367346938776,0,0,0.0,0.2566346507300281,0.0131354906297295,0.3061224489795918,0.3061224489795918,0.4285714285714285,0.2857142857142857,-0.5714285714285716,-0.36734693877551017,3.63265306122449,3.63265306122449,0.0,1.0,-1.0,4.0,0,1,0,0,0.0131354906297295
14.0,0.0,14.0,0.0,2.0,0.0,2.0,0.0,,,,left,1.6126100000692531,582.1497527000029,tb12,562.83906509995,566.348921299912,582.1497527000029,,False,3.0,['r'],False,0.3061224489795918,0.4285714285714285,0.2857142857142857,2.0,1.0,0.9885754083994552,0.0188949652252541,wait_cost,1.0,2.0,578.3990463999799,,tb12,2,2022-04-08_12h08.02.362,threat_forest,2021.2.3,60.165901445129975,False,36.0,0.41428571428571426,0.3821428571428571,-1.083673469387755,-1.3068367346938776,0,0,0.0,0.4778539844583214,0.0188949652252541,0.3061224489795918,0.3061224489795918,0.4285714285714285,0.2857142857142857,-0.5714285714285716,-0.36734693877551017,2.63265306122449,2.63265306122449,0.0,1.0,-1.0,3.0,0,1,0,0,0.0188949652252541
14.0,0.0,14.0,0.0,3.0,0.0,3.0,0.0,,,,,,588.4827533999924,tb12,562.83906509995,566.348921299912,588.4827533999924,,True,2.0,['r'],False,0.3061224489795918,0.4285714285714285,0.2857142857142857,2.0,1.0,0.9885754083994552,-0.0018730078453705,wait_cost,1.0,1.0,585.7824132000096,,tb12,2,2022-04-08_12h08.02.362,threat_forest,2021.2.3,60.165901445129975,,36.0,0.41428571428571426,0.3821428571428571,-1.083673469387755,-1.3068367346938776,0,0,,,-0.0018730078453705,0.3061224489795918,0.3061224489795918,0.4285714285714285,0.2857142857142857,-0.5714285714285716,-0.36734693877551017,1.6326530612244898,1.6326530612244898,0.0,1.0,-1.0,2.0,0,1,0,0,-0.0018730078453705
14.0,0.0,14.0,0.0,4.0,0.0,4.0,0.0,,,,left,1.6966250999830663,594.266255699913,tb12,594.266255699913,,591.4827782999491,593.4825652999571,True,1.0,['r'],True,0.4,0.4,0.0,0.0,1.0,0.6126016192893442,0.1506122448979592,succ_gain,0.0,2.0,593.4825652999571,,tb12,2,2022-04-08_12h08.02.362,threat_forest,2021.2.3,60.165901445129975,True,36.0,0.41428571428571426,0.3821428571428571,-1.083673469387755,-1.3068367346938776,1,1,1.0,0.5286410425665533,0.1506122448979592,1.0,0.4,0.4,0.0,0.20000000000000007,0.20000000000000007,1.2000000000000002,1.2000000000000002,1.0,1.0,-1.0,1.0,1,1,1,1,0.625
14.0,0.0,14.0,0.0,5.0,0.0,5.0,0.0,,,,right,1.8945009999442848,601.1662479999941,tb12,595.9829329999629,597.9827729999088,601.1662479999941,,True,2.0,['r'],False,0.3061224489795918,0.4285714285714285,0.2857142857142857,2.0,1.0,0.9885754083994552,-0.0469387755102042,unsucc_cost,1.0,0.0,597.9827729999088,,tb12,2,2022-04-08_12h08.02.362,threat_forest,2021.2.3,60.165901445129975,True,36.0,0.41428571428571426,0.3821428571428571,-1.083673469387755,-1.3068367346938776,0,0,1.0,0.6389554792907285,-0.0469387755102042,0.3061224489795918,0.3061224489795918,0.4285714285714285,0.2857142857142857,-0.5714285714285716,-0.36734693877551017,1.6326530612244898,1.6326530612244898,0.0,1.0,1.0,2.0,0,1,0,0,-0.0469387755102042
15.0,0.0,15.0,0.0,0.0,0.0,0.0,0.0,608.8732786999317,612.3828856999753,,left,2.0039885999867693,613.8168963999487,tb12,608.8732786999317,612.3828856999753,613.8168963999487,,False,4.0,['p'],False,0.32,0.4,0.2,1.0,1.0,0.9455672104350704,0.0193852844836012,wait_cost,1.0,3.0,,,tb12,2,2022-04-08_12h08.02.362,threat_forest,2021.2.3,60.165901445129975,False,61.0,0.325,0.36964285714285716,-1.354375,-1.2190242346938776,0,0,0.0,0.6951394945770814,0.0193852844836012,0.32,0.32,0.4,0.2,-0.3999999999999999,-0.24,3.76,3.76,0.0,1.0,-1.0,4.0,0,1,0,0,0.0193852844836012
15.0,0.0,15.0,0.0,1.0,0.0,1.0,0.0,,,,left,1.608980100019835,618.6503716999432,tb12,608.8732786999317,612.3828856999753,618.6503716999432,,False,3.0,['p'],False,0.32,0.4,0.2,1.0,1.0,0.9455672104350704,0.0263107318191394,wait_cost,1.0,2.0,617.8496720999246,,tb12,2,2022-04-08_12h08.02.362,threat_forest,2021.2.3,60.165901445129975,False,61.0,0.325,0.36964285714285716,-1.354375,-1.2190242346938776,0,0,0.0,0.47560050001569876,0.0263107318191394,0.32,0.32,0.4,0.2,-0.3999999999999999,-0.24,2.76,2.76,0.0,1.0,-1.0,3.0,0,1,0,0,0.0263107318191394
15.0,0.0,15.0,0.0,2.0,0.0,2.0,0.0,,,,right,1.10319180006627,625.1167127999943,tb12,625.1167127999943,,620.2831721999682,622.283205899992,False,2.0,['p'],True,0.21875,0.25,0.125,1.0,1.0,0.7908280489481783,0.0057226981557463,wait_cost,0.0,1.0,622.283205899992,,tb12,2,2022-04-08_12h08.02.362,threat_forest,2021.2.3,60.165901445129975,False,61.0,0.325,0.36964285714285716,-1.354375,-1.2190242346938776,0,0,0.0,0.09820761460699425,0.0057226981557463,0.21875,0.21875,0.25,0.125,-0.625,-0.46875,1.53125,1.53125,1.0,1.0,-1.0,2.0,0,1,0,0,0.0057226981557463
15.0,0.0,15.0,0.0,3.0,0.0,3.0,0.0,,,,left,1.958142300019972,631.0504757999443,tb12,631.0504757999443,,620.2831721999682,622.283205899992,True,1.0,['p'],True,0.21875,0.25,0.125,1.0,1.0,0.7908280489481783,0.0248910556259155,unsucc_cost,0.0,0.0,628.2497493999545,,tb12,2,2022-04-08_12h08.02.362,threat_forest,2021.2.3,60.165901445129975,True,61.0,0.325,0.36964285714285716,-1.354375,-1.2190242346938776,0,0,1.0,0.6719962176779353,0.0248910556259155,1.0,0.21875,0.25,0.125,-0.625,-0.46875,0.53125,1.0,1.0,1.0,-1.0,1.0,1,1,0,0,0.625
16.0,0.0,16.0,0.0,0.0,0.0,0.0,0.0,638.5892804999603,642.1000378999161,,right,2.2076977000106126,642.6172367999097,tb12,638.5892804999603,642.1000378999161,642.6172367999097,,True,4.0,['r'],False,0.3333333333333333,0.3333333333333333,0.0,0.0,2.0,0.5793801642856949,0.0326749431231451,succ_gain,1.0,6.0,,,tb12,2,2022-04-08_12h08.02.362,threat_forest,2021.2.3,60.165901445129975,True,40.0,0.35416666666666663,0.33958333333333335,-0.8958333333333335,-1.1251041666666668,1,0,1.0,0.7919502078145737,0.0326749431231451,0.3333333333333333,0.3333333333333333,0.3333333333333333,0.0,0.33333333333333315,0.33333333333333315,4.333333333333333,4.333333333333333,0.0,2.0,-1.0,4.0,0,1,0,1,0.0326749431231451
16.0,0.0,16.0,0.0,1.0,0.0,1.0,0.0,,,,right,2.549979600007646,647.936394099961,tb12,647.936394099961,,644.850218800013,646.8503169999458,False,6.0,['r'],True,0.28125,0.375,0.25,2.0,2.0,0.9634951148421658,-0.1073108765070514,wait_cost,0.0,5.0,646.8503169999458,,tb12,2,2022-04-08_12h08.02.362,threat_forest,2021.2.3,60.165901445129975,False,40.0,0.35416666666666663,0.33958333333333335,-0.8958333333333335,-1.1251041666666668,1,0,0.0,0.936085359141333,-0.1073108765070514,0.28125,0.28125,0.375,0.25,-0.25,-0.125,5.875,5.875,1.0,2.0,1.0,6.0,0,1,0,1,-0.1073108765070514
16.0,0.0,16.0,0.0,2.0,0.0,2.0,0.0,,,,right,2.233186300029047,653.2507732999511,tb12,653.2507732999511,,644.850218800013,646.8503169999458,False,5.0,['r'],True,0.28125,0.375,0.25,2.0,2.0,0.9634951148421658,-0.0090943703910818,wait_cost,0.0,4.0,652.5168188000098,,tb12,2,2022-04-08_12h08.02.362,threat_forest,2021.2.3,60.165901445129975,False,40.0,0.35416666666666663,0.33958333333333335,-0.8958333333333335,-1.1251041666666668,1,0,0.0,0.8034293997536492,-0.0090943703910818,0.28125,0.28125,0.375,0.25,-0.25,-0.125,4.875,4.875,1.0,2.0,-1.0,5.0,0,1,0,1,-0.0090943703910818
16.0,0.0,16.0,0.0,3.0,0.0,3.0,0.0,,,,left,2.47975099994801,659.8675515999785,tb12,655.5003648999846,657.5003128999379,659.8675515999785,,False,4.0,['r'],False,0.3333333333333333,0.3333333333333333,0.0,0.0,2.0,0.5793801642856949,0.0651312934027776,wait_cost,1.0,3.0,657.5003128999379,,tb12,2,2022-04-08_12h08.02.362,threat_forest,2021.2.3,60.165901445129975,False,40.0,0.35416666666666663,0.33958333333333335,-0.8958333333333335,-1.1251041666666668,1,0,0.0,0.9081581518893772,0.0651312934027776,0.3333333333333333,0.3333333333333333,0.3333333333333333,0.0,0.33333333333333315,0.33333333333333315,4.333333333333333,4.333333333333333,0.0,2.0,-1.0,4.0,0,1,0,1,0.0651312934027776
16.0,0.0,16.0,0.0,4.0,0.0,4.0,0.0,,,,left,2.5296156000113115,666.6510948999785,tb12,655.5003648999846,657.5003128999379,666.6510948999785,,False,3.0,['r'],False,0.3333333333333333,0.3333333333333333,0.0,0.0,2.0,0.5793801642856949,0.2178819444444443,wait_cost,1.0,2.0,664.3670843999134,,tb12,2,2022-04-08_12h08.02.362,threat_forest,2021.2.3,60.165901445129975,False,40.0,0.35416666666666663,0.33958333333333335,-0.8958333333333335,-1.1251041666666668,1,0,0.0,0.9280673544414486,0.2178819444444443,0.3333333333333333,0.3333333333333333,0.3333333333333333,0.0,0.33333333333333315,0.33333333333333315,3.333333333333333,3.333333333333333,0.0,2.0,-1.0,3.0,0,1,0,1,0.2178819444444443
16.0,0.0,16.0,0.0,5.0,0.0,5.0,0.0,,,,left,2.505970900063403,672.5009587999666,tb12,655.5003648999846,657.5003128999379,672.5009587999666,,False,2.0,['r'],False,0.3333333333333333,0.3333333333333333,0.0,0.0,2.0,0.5793801642856949,0.0260416666666666,wait_cost,1.0,1.0,671.2004266999429,,tb12,2,2022-04-08_12h08.02.362,threat_forest,2021.2.3,60.165901445129975,False,40.0,0.35416666666666663,0.33958333333333335,-0.8958333333333335,-1.1251041666666668,1,0,0.0,0.9186762443008701,0.0260416666666666,0.3333333333333333,0.3333333333333333,0.3333333333333333,0.0,0.33333333333333315,0.33333333333333315,2.333333333333333,2.333333333333333,0.0,2.0,-1.0,2.0,0,1,0,1,0.0260416666666666
