miniblock.thisRepN,miniblock.thisTrialN,miniblock.thisN,miniblock.thisIndex,day.thisRepN,day.thisTrialN,day.thisN,day.thisIndex,forest.started,fixation_forest.started,fixation_forest.stopped,key_resp.keys,key_resp.rt,key_resp.started,Subject_ID,weather_left.started,weather_left.stopped,weather_right.started,weather_right.stopped,foraging T/F,in_LP,p/r heuristic,good_weather.T/F,p_succ_correct,p_succ_uncorrected,r_threat,n_oponents,gain_if_succ,weather_entropy,OP_value_difference,action_outcome,forest_side_L=0_R=1,out_LP,fixation_day.started,fixation_day.stopped,participant,session,date,expName,psychopyVersion,frameRate,foraging T/F NaNs,fora_NR,forest_mean_p,mvt_cutoff_p,forest_mean_ev,mvt_cutoff_ev,mvt_policy_eg,mvt_policy_p,fora_response,logRT,optimal policy values,multi-heuristic policy,** $\mathit{p}$ success,* $\mathit{p}$ gain,* $\mathit{r}$ predator,expected gain naive,expected gain correct,expected state no bounds,expected state with bounds,weather type,gain magnitude,win stay lose shift,continuous energy state,** binary energy state,** wait when safe,$\mathit{p}$ success based MVT,marginal value,$\mathit{OP}$ values + cap
0.0,0.0,0.0,0.0,0.0,0.0,0.0,0.0,72.10452799987979,75.61118120001629,,left,1.1514577998314053,76.13924399996176,iz8,72.10452799987979,75.61118120001629,76.13924399996176,,False,5.0,['r'],False,0.5185185185185185,0.6666666666666666,0.2222222222222222,2.0,2.0,0.9327883776363328,-0.0122223691349874,wait_cost,1.0,4.0,,,iz8,1,2022-04-21_11h28.55.000,threat_forest,2021.2.3,59.73929775023638,False,60.0,0.6458333333333333,0.6458333333333333,0.17592592592592587,0.17592592592592587,0,0,0,0.14102879161000584,-0.0122223691349874,0.5185185185185185,0.5185185185185185,0.6666666666666666,0.2222222222222222,0.9999999999999999,0.8518518518518517,5.851851851851852,5.851851851851852,0.0,2.0,,5.0,0,1,0,0,-0.0122223691349874
0.0,0.0,0.0,0.0,1.0,0.0,1.0,0.0,,,,left,1.0777908000163734,80.52255130000412,iz8,72.10452799987979,75.61118120001629,80.52255130000412,,False,4.0,['r'],False,0.5185185185185185,0.6666666666666666,0.2222222222222222,2.0,2.0,0.9327883776363328,0.0437285366701187,wait_cost,1.0,3.0,79.32210669992492,,iz8,1,2022-04-21_11h28.55.000,threat_forest,2021.2.3,59.73929775023638,False,60.0,0.6458333333333333,0.6458333333333333,0.17592592592592587,0.17592592592592587,0,0,0,0.07491339058954369,0.0437285366701187,0.5185185185185185,0.5185185185185185,0.6666666666666666,0.2222222222222222,0.9999999999999999,0.8518518518518517,4.851851851851852,4.851851851851852,0.0,2.0,-1.0,4.0,0,1,0,0,0.0437285366701187
0.0,0.0,0.0,0.0,2.0,0.0,2.0,0.0,,,,left,1.119106299942359,85.38923779991455,iz8,72.10452799987979,75.61118120001629,85.38923779991455,,False,3.0,['r'],False,0.5185185185185185,0.6666666666666666,0.2222222222222222,2.0,2.0,0.9327883776363328,0.0932899939702561,wait_cost,1.0,2.0,83.62224359996617,,iz8,1,2022-04-21_11h28.55.000,threat_forest,2021.2.3,59.73929775023638,False,60.0,0.6458333333333333,0.6458333333333333,0.17592592592592587,0.17592592592592587,0,0,0,0.11253042029821696,0.0932899939702561,0.5185185185185185,0.5185185185185185,0.6666666666666666,0.2222222222222222,0.9999999999999999,0.8518518518518517,3.8518518518518516,3.8518518518518516,0.0,2.0,-1.0,3.0,0,1,0,0,0.0932899939702561
0.0,0.0,0.0,0.0,3.0,0.0,3.0,0.0,,,,left,0.8068699000868946,90.92386389989406,iz8,90.92386389989406,,86.53945189993829,88.53894210001454,True,2.0,['r'],True,0.625,0.625,0.0,0.0,2.0,0.6021808102656677,0.0850764152838109,succ_gain,0.0,4.0,88.53894210001454,,iz8,1,2022-04-21_11h28.55.000,threat_forest,2021.2.3,59.73929775023638,True,60.0,0.6458333333333333,0.6458333333333333,0.17592592592592587,0.17592592592592587,1,0,1,-0.21459283797515435,0.0850764152838109,0.625,0.625,0.625,0.0,1.5,1.5,3.5,3.5,1.0,2.0,-1.0,2.0,0,1,0,1,0.0850764152838109
0.0,0.0,0.0,0.0,4.0,0.0,4.0,0.0,,,,left,1.098701599985361,95.67466800007968,iz8,91.75596059998496,93.755651100073,95.67466800007968,,False,4.0,['r'],False,0.5185185185185185,0.6666666666666666,0.2222222222222222,2.0,2.0,0.9327883776363328,0.0476305298353909,wait_cost,1.0,3.0,93.755651100073,,iz8,1,2022-04-21_11h28.55.000,threat_forest,2021.2.3,59.73929775023638,False,60.0,0.6458333333333333,0.6458333333333333,0.17592592592592587,0.17592592592592587,0,0,0,0.09412911897681081,0.0476305298353909,0.5185185185185185,0.5185185185185185,0.6666666666666666,0.2222222222222222,0.9999999999999999,0.8518518518518517,4.851851851851852,4.851851851851852,0.0,2.0,1.0,4.0,0,1,0,0,0.0476305298353909
0.0,0.0,0.0,0.0,5.0,0.0,5.0,0.0,,,,left,0.6767736000474542,99.72277950006536,iz8,91.75596059998496,93.755651100073,99.72277950006536,,False,3.0,['r'],False,0.5185185185185185,0.6666666666666666,0.2222222222222222,2.0,2.0,0.9327883776363328,0.0683727709190671,wait_cost,1.0,2.0,98.80580860003828,,iz8,1,2022-04-21_11h28.55.000,threat_forest,2021.2.3,59.73929775023638,False,60.0,0.6458333333333333,0.6458333333333333,0.17592592592592587,0.17592592592592587,0,0,0,-0.3904184784730002,0.0683727709190671,0.5185185185185185,0.5185185185185185,0.6666666666666666,0.2222222222222222,0.9999999999999999,0.8518518518518517,3.8518518518518516,3.8518518518518516,0.0,2.0,-1.0,3.0,0,1,0,0,0.0683727709190671
0.0,0.0,0.0,0.0,6.0,0.0,6.0,0.0,,,,left,0.5094033000059426,104.59359740000218,iz8,104.59359740000218,,100.42293799994512,102.42248379997908,True,2.0,['r'],True,0.625,0.625,0.0,0.0,2.0,0.6021808102656677,0.0532407407407407,succ_gain,0.0,4.0,102.42248379997908,,iz8,1,2022-04-21_11h28.55.000,threat_forest,2021.2.3,59.73929775023638,True,60.0,0.6458333333333333,0.6458333333333333,0.17592592592592587,0.17592592592592587,1,0,1,-0.6745152382364398,0.0532407407407407,0.625,0.625,0.625,0.0,1.5,1.5,3.5,3.5,1.0,2.0,-1.0,2.0,0,1,0,1,0.0532407407407407
0.0,0.0,0.0,0.0,7.0,0.0,7.0,0.0,,,,left,0.4440605998970568,109.17318330006674,iz8,105.1227430999279,107.12271069991402,109.17318330006674,,False,4.0,['r'],False,0.5185185185185185,0.6666666666666666,0.2222222222222222,2.0,2.0,0.9327883776363328,0.0,wait_cost,1.0,3.0,107.12271069991402,,iz8,1,2022-04-21_11h28.55.000,threat_forest,2021.2.3,59.73929775023638,False,60.0,0.6458333333333333,0.6458333333333333,0.17592592592592587,0.17592592592592587,0,0,0,-0.8117942396086812,0.0,0.0,0.5185185185185185,0.6666666666666666,0.2222222222222222,0.9999999999999999,0.8518518518518517,4.851851851851852,4.851851851851852,0.0,2.0,1.0,4.0,0,0,0,0,-0.84
1.0,0.0,1.0,0.0,0.0,0.0,0.0,0.0,114.22029020008632,117.72272419999354,,right,1.1794188998173922,119.10675049992278,iz8,114.22029020008632,117.72272419999354,119.10675049992278,,True,5.0,['p'],False,0.4444444444444445,0.6666666666666666,0.3333333333333333,1.0,2.0,0.9656336071428248,0.0253949986159629,succ_gain,1.0,6.0,,,iz8,1,2022-04-21_11h28.55.000,threat_forest,2021.2.3,59.73929775023638,True,15.0,0.4833333333333333,0.5645833333333332,-0.8977777777777778,-0.360925925925926,0,0,1,0.16502185939854483,0.0253949986159629,0.4444444444444445,0.4444444444444445,0.6666666666666666,0.3333333333333333,0.6666666666666665,0.4444444444444444,5.444444444444445,5.444444444444445,0.0,2.0,-1.0,5.0,0,1,0,0,0.0253949986159629
1.0,0.0,1.0,0.0,1.0,0.0,1.0,0.0,,,,right,0.700641900068149,124.74292399990372,iz8,124.74292399990372,,120.30637850007042,122.30613819998688,False,6.0,['p'],True,0.24,0.3,0.2,2.0,2.0,0.9003120349047065,-0.0831804998354586,wait_cost,0.0,5.0,122.30613819998688,,iz8,1,2022-04-21_11h28.55.000,threat_forest,2021.2.3,59.73929775023638,False,15.0,0.4833333333333333,0.5645833333333332,-0.8977777777777778,-0.360925925925926,0,0,0,-0.3557583640291108,-0.0831804998354586,0.24,0.24,0.3,0.2,-0.3999999999999999,-0.24,5.76,5.76,1.0,2.0,1.0,6.0,0,1,0,0,-0.0831804998354586
1.0,0.0,1.0,0.0,2.0,0.0,2.0,0.0,,,,left,2.013789099873975,128.85653289989568,iz8,125.47306059999391,127.4727938999422,128.85653289989568,,False,5.0,['p'],False,0.4444444444444445,0.6666666666666666,0.3333333333333333,1.0,2.0,0.9656336071428248,0.0727072881708411,wait_cost,1.0,4.0,127.4727938999422,,iz8,1,2022-04-21_11h28.55.000,threat_forest,2021.2.3,59.73929775023638,False,15.0,0.4833333333333333,0.5645833333333332,-0.8977777777777778,-0.360925925925926,0,0,0,0.7000180717694515,0.0727072881708411,0.4444444444444445,0.4444444444444445,0.6666666666666666,0.3333333333333333,0.6666666666666665,0.4444444444444444,5.444444444444445,5.444444444444445,0.0,2.0,-1.0,5.0,0,1,0,0,0.0727072881708411
1.0,0.0,1.0,0.0,3.0,0.0,3.0,0.0,,,,right,0.651417399989441,136.42358419997618,iz8,125.47306059999391,127.4727938999422,136.42358419997618,,True,4.0,['p'],False,0.4444444444444445,0.6666666666666666,0.3333333333333333,1.0,2.0,0.9656336071428248,0.110089861911294,succ_gain,1.0,6.0,132.88964350009337,,iz8,1,2022-04-21_11h28.55.000,threat_forest,2021.2.3,59.73929775023638,True,15.0,0.4833333333333333,0.5645833333333332,-0.8977777777777778,-0.360925925925926,0,0,1,-0.4286046748150827,0.110089861911294,0.4444444444444445,0.4444444444444445,0.6666666666666666,0.3333333333333333,0.6666666666666665,0.4444444444444444,4.444444444444445,4.444444444444445,0.0,2.0,-1.0,4.0,0,1,0,0,0.110089861911294
1.0,0.0,1.0,0.0,4.0,0.0,4.0,0.0,,,,left,1.024044000077993,140.5400745999068,iz8,125.47306059999391,127.4727938999422,140.5400745999068,,False,6.0,['p'],False,0.4444444444444445,0.6666666666666666,0.3333333333333333,1.0,2.0,0.9656336071428248,-0.1746436213991769,wait_cost,1.0,5.0,139.1064065999817,,iz8,1,2022-04-21_11h28.55.000,threat_forest,2021.2.3,59.73929775023638,False,15.0,0.4833333333333333,0.5645833333333332,-0.8977777777777778,-0.360925925925926,0,0,0,0.023759494520347417,-0.1746436213991769,0.0,0.4444444444444445,0.6666666666666666,0.3333333333333333,0.6666666666666665,0.4444444444444444,6.444444444444445,6.444444444444445,0.0,2.0,1.0,6.0,0,0,0,0,-0.84
1.0,0.0,1.0,0.0,5.0,0.0,5.0,0.0,,,,right,0.5651761000044644,144.67508640000597,iz8,144.67508640000597,,141.5900842999108,143.5898021000903,False,5.0,['p'],True,0.24,0.3,0.2,2.0,2.0,0.9003120349047065,-0.1213333333333333,wait_cost,0.0,4.0,143.5898021000903,,iz8,1,2022-04-21_11h28.55.000,threat_forest,2021.2.3,59.73929775023638,False,15.0,0.4833333333333333,0.5645833333333332,-0.8977777777777778,-0.360925925925926,0,0,0,-0.5706179149744299,-0.1213333333333333,0.0,0.24,0.3,0.2,-0.3999999999999999,-0.24,4.76,4.76,1.0,2.0,-1.0,5.0,0,0,0,0,-0.84
1.0,0.0,1.0,0.0,6.0,0.0,6.0,0.0,,,,left,0.4556073001585901,150.59030309994705,iz8,145.25689320010133,147.25651249988005,150.59030309994705,,False,4.0,['p'],False,0.4444444444444445,0.6666666666666666,0.3333333333333333,1.0,2.0,0.9656336071428248,-0.2192592592592592,wait_cost,1.0,3.0,147.25651249988005,,iz8,1,2022-04-21_11h28.55.000,threat_forest,2021.2.3,59.73929775023638,False,15.0,0.4833333333333333,0.5645833333333332,-0.8977777777777778,-0.360925925925926,0,0,0,-0.7861240243623479,-0.2192592592592592,0.0,0.4444444444444445,0.6666666666666666,0.3333333333333333,0.6666666666666665,0.4444444444444444,4.444444444444445,4.444444444444445,0.0,2.0,-1.0,4.0,0,0,0,0,-0.84
1.0,0.0,1.0,0.0,7.0,0.0,7.0,0.0,,,,right,0.8660903999116272,154.67374160001054,iz8,154.67374160001054,,151.07351560005918,153.07379819988273,False,3.0,['p'],True,0.24,0.3,0.2,2.0,2.0,0.9003120349047065,-0.2,wait_cost,0.0,2.0,153.07379819988273,,iz8,1,2022-04-21_11h28.55.000,threat_forest,2021.2.3,59.73929775023638,False,15.0,0.4833333333333333,0.5645833333333332,-0.8977777777777778,-0.360925925925926,0,0,0,-0.14376598797902343,-0.2,0.0,0.24,0.3,0.2,-0.3999999999999999,-0.24,2.76,2.76,1.0,2.0,-1.0,3.0,0,0,0,0,-0.84
2.0,0.0,2.0,0.0,0.0,0.0,0.0,0.0,160.7468288000673,164.25679020001553,,right,0.7489340000320226,166.50730350008234,iz8,160.7468288000673,164.25679020001553,166.50730350008234,,True,5.0,['p'],False,0.4444444444444445,0.6666666666666666,0.3333333333333333,1.0,2.0,0.9656336071428248,0.0210978181405199,succ_gain,1.0,6.0,,,iz8,1,2022-04-21_11h28.55.000,threat_forest,2021.2.3,59.73929775023638,True,53.0,0.5,0.49166666666666664,-0.8703703703703706,-0.8840740740740742,1,0,1,-0.28910441679472076,0.0210978181405199,0.4444444444444445,0.4444444444444445,0.6666666666666666,0.3333333333333333,0.6666666666666665,0.4444444444444444,5.444444444444445,5.444444444444445,0.0,2.0,-1.0,5.0,0,1,0,1,0.0210978181405199
2.0,0.0,2.0,0.0,1.0,0.0,1.0,0.0,,,,left,0.6710350001230836,171.75746749993414,iz8,160.7468288000673,164.25679020001553,171.75746749993414,,False,6.0,['p'],False,0.4444444444444445,0.6666666666666666,0.3333333333333333,1.0,2.0,0.9656336071428248,-0.0737245483227398,wait_cost,1.0,5.0,169.27374810003676,,iz8,1,2022-04-21_11h28.55.000,threat_forest,2021.2.3,59.73929775023638,False,53.0,0.5,0.49166666666666664,-0.8703703703703706,-0.8840740740740742,1,0,0,-0.3989339822335667,-0.0737245483227398,0.4444444444444445,0.4444444444444445,0.6666666666666666,0.3333333333333333,0.6666666666666665,0.4444444444444444,6.444444444444445,6.444444444444445,0.0,2.0,1.0,6.0,0,1,0,1,-0.0737245483227398
2.0,0.0,2.0,0.0,2.0,0.0,2.0,0.0,,,,left,0.5919516000431031,177.65770799992606,iz8,160.7468288000673,164.25679020001553,177.65770799992606,,False,5.0,['p'],False,0.4444444444444445,0.6666666666666666,0.3333333333333333,1.0,2.0,0.9656336071428248,0.0683164578319449,wait_cost,1.0,4.0,174.4569081000518,,iz8,1,2022-04-21_11h28.55.000,threat_forest,2021.2.3,59.73929775023638,False,53.0,0.5,0.49166666666666664,-0.8703703703703706,-0.8840740740740742,1,0,0,-0.5243304041243387,0.0683164578319449,0.4444444444444445,0.4444444444444445,0.6666666666666666,0.3333333333333333,0.6666666666666665,0.4444444444444444,5.444444444444445,5.444444444444445,0.0,2.0,-1.0,5.0,0,1,0,1,0.0683164578319449
2.0,0.0,2.0,0.0,3.0,0.0,3.0,0.0,,,,right,0.7311717998236418,182.84078540001065,iz8,160.7468288000673,164.25679020001553,182.84078540001065,,True,4.0,['p'],False,0.4444444444444445,0.6666666666666666,0.3333333333333333,1.0,2.0,0.9656336071428248,0.1073049501261665,succ_gain,1.0,6.0,180.27377910004,,iz8,1,2022-04-21_11h28.55.000,threat_forest,2021.2.3,59.73929775023638,True,53.0,0.5,0.49166666666666664,-0.8703703703703706,-0.8840740740740742,1,0,1,-0.3131068265667182,0.1073049501261665,0.4444444444444445,0.4444444444444445,0.6666666666666666,0.3333333333333333,0.6666666666666665,0.4444444444444444,4.444444444444445,4.444444444444445,0.0,2.0,-1.0,4.0,0,1,0,1,0.1073049501261665
2.0,0.0,2.0,0.0,4.0,0.0,4.0,0.0,,,,left,0.4298505999613553,189.10795570001935,iz8,160.7468288000673,164.25679020001553,189.10795570001935,,False,6.0,['p'],False,0.4444444444444445,0.6666666666666666,0.3333333333333333,1.0,2.0,0.9656336071428248,-0.1726108824874257,wait_cost,1.0,5.0,185.59057660005053,,iz8,1,2022-04-21_11h28.55.000,threat_forest,2021.2.3,59.73929775023638,False,53.0,0.5,0.49166666666666664,-0.8703703703703706,-0.8840740740740742,1,0,0,-0.8443175726168042,-0.1726108824874257,0.0,0.4444444444444445,0.6666666666666666,0.3333333333333333,0.6666666666666665,0.4444444444444444,6.444444444444445,6.444444444444445,0.0,2.0,1.0,6.0,0,0,0,1,-0.84
2.0,0.0,2.0,0.0,5.0,0.0,5.0,0.0,,,,right,0.546146199805662,194.07550520007496,iz8,194.07550520007496,,189.55757929990068,191.5571741999593,False,5.0,['p'],True,0.2592592592592592,0.3333333333333333,0.2222222222222222,2.0,2.0,0.9327883776363324,-0.1337448559670782,wait_cost,0.0,4.0,191.5571741999593,,iz8,1,2022-04-21_11h28.55.000,threat_forest,2021.2.3,59.73929775023638,False,53.0,0.5,0.49166666666666664,-0.8703703703703706,-0.8840740740740742,0,0,0,-0.604868573868103,-0.1337448559670782,0.0,0.2592592592592592,0.3333333333333333,0.2222222222222222,-0.3333333333333335,-0.18518518518518556,4.814814814814815,4.814814814814815,1.0,2.0,-1.0,5.0,0,0,0,0,-0.84
2.0,0.0,2.0,0.0,6.0,0.0,6.0,0.0,,,,left,0.4508133002091199,199.79145579994656,iz8,194.6408816999756,196.64057889999825,199.79145579994656,,False,4.0,['p'],False,0.4444444444444445,0.6666666666666666,0.3333333333333333,1.0,2.0,0.9656336071428248,-0.2160493827160494,wait_cost,1.0,3.0,196.64057889999825,,iz8,1,2022-04-21_11h28.55.000,threat_forest,2021.2.3,59.73929775023638,False,53.0,0.5,0.49166666666666664,-0.8703703703703706,-0.8840740740740742,1,0,0,-0.7967019936822612,-0.2160493827160494,0.0,0.4444444444444445,0.6666666666666666,0.3333333333333333,0.6666666666666665,0.4444444444444444,4.444444444444445,4.444444444444445,0.0,2.0,-1.0,4.0,0,0,0,1,-0.84
2.0,0.0,2.0,0.0,7.0,0.0,7.0,0.0,,,,left,0.6507894000969827,203.10797129990533,iz8,194.6408816999756,196.64057889999825,203.10797129990533,,False,3.0,['p'],False,0.4444444444444445,0.6666666666666666,0.3333333333333333,1.0,2.0,0.9656336071428248,-0.3333333333333333,wait_cost,1.0,2.0,202.27400079998188,,iz8,1,2022-04-21_11h28.55.000,threat_forest,2021.2.3,59.73929775023638,False,53.0,0.5,0.49166666666666664,-0.8703703703703706,-0.8840740740740742,1,0,0,-0.42956919126685045,-0.3333333333333333,0.0,0.4444444444444445,0.6666666666666666,0.3333333333333333,0.6666666666666665,0.4444444444444444,3.4444444444444446,3.4444444444444446,0.0,2.0,-1.0,3.0,0,0,0,1,-0.84
3.0,0.0,3.0,0.0,0.0,0.0,0.0,0.0,207.8841814999469,211.390826900024,,left,1.4330546997953206,212.4415249999147,iz8,212.4415249999147,,207.8841814999469,211.390826900024,True,4.0,['p'],True,0.32,0.4,0.2,1.0,2.0,0.9455672104350704,0.0381787567431899,unsucc_cost,0.0,2.0,,,iz8,1,2022-04-21_11h28.55.000,threat_forest,2021.2.3,59.73929775023638,True,12.0,0.3111111111111111,0.40555555555555556,-1.1204938271604938,-0.9954320987654321,1,0,1,0.35980831964251764,0.0381787567431899,0.32,0.32,0.4,0.2,0.0,0.07999999999999996,4.08,4.08,1.0,2.0,-1.0,4.0,0,1,0,1,0.0381787567431899
3.0,0.0,3.0,0.0,1.0,0.0,1.0,0.0,,,,right,0.6536755000706762,218.39360180008225,iz8,213.89106049994007,215.89101250004023,218.39360180008225,,True,2.0,['p'],False,0.1975308641975308,0.2222222222222222,0.1111111111111111,1.0,2.0,0.7461067557824965,-0.0130550838348044,succ_gain,1.0,4.0,215.89101250004023,,iz8,1,2022-04-21_11h28.55.000,threat_forest,2021.2.3,59.73929775023638,True,12.0,0.3111111111111111,0.40555555555555556,-1.1204938271604938,-0.9954320987654321,0,0,1,-0.4251442279235724,-0.0130550838348044,0.1975308641975308,0.1975308641975308,0.2222222222222222,0.1111111111111111,-0.4444444444444444,-0.32098765432098775,1.6790123456790123,1.6790123456790123,0.0,2.0,-1.0,2.0,0,1,0,0,-0.0130550838348044
3.0,0.0,3.0,0.0,2.0,0.0,2.0,0.0,,,,right,0.8712067001033574,224.24161410005763,iz8,213.89106049994007,215.89101250004023,224.24161410005763,,True,4.0,['p'],False,0.1975308641975308,0.2222222222222222,0.1111111111111111,1.0,2.0,0.7461067557824965,-0.0323179562505064,succ_gain,1.0,6.0,221.0742842000909,,iz8,1,2022-04-21_11h28.55.000,threat_forest,2021.2.3,59.73929775023638,True,12.0,0.3111111111111111,0.40555555555555556,-1.1204938271604938,-0.9954320987654321,0,0,1,-0.13787601673253985,-0.0323179562505064,0.1975308641975308,0.1975308641975308,0.2222222222222222,0.1111111111111111,-0.4444444444444444,-0.32098765432098775,3.6790123456790123,3.6790123456790123,0.0,2.0,1.0,4.0,0,1,0,0,-0.0323179562505064
3.0,0.0,3.0,0.0,3.0,0.0,3.0,0.0,,,,right,1.1323024001903832,229.8914683000185,iz8,229.8914683000185,,225.1412623000797,227.1410731999204,False,6.0,['p'],True,0.32,0.4,0.2,1.0,2.0,0.9455672104350704,-0.3730546733729614,wait_cost,0.0,5.0,227.1410731999204,,iz8,1,2022-04-21_11h28.55.000,threat_forest,2021.2.3,59.73929775023638,False,12.0,0.3111111111111111,0.40555555555555556,-1.1204938271604938,-0.9954320987654321,1,0,0,0.12425308208336532,-0.3730546733729614,0.0,0.32,0.4,0.2,0.0,0.07999999999999996,6.08,6.08,1.0,2.0,1.0,6.0,0,0,0,1,-0.84
3.0,0.0,3.0,0.0,4.0,0.0,4.0,0.0,,,,left,0.9336978001520038,236.61050139996223,iz8,231.041357900016,233.04108390002511,236.61050139996223,,False,5.0,['p'],False,0.1975308641975308,0.2222222222222222,0.1111111111111111,1.0,2.0,0.7461067557824965,-0.4866382262565363,wait_cost,1.0,4.0,233.04108390002511,,iz8,1,2022-04-21_11h28.55.000,threat_forest,2021.2.3,59.73929775023638,False,12.0,0.3111111111111111,0.40555555555555556,-1.1204938271604938,-0.9954320987654321,0,0,0,-0.06860244754943551,-0.4866382262565363,0.0,0.1975308641975308,0.2222222222222222,0.1111111111111111,-0.4444444444444444,-0.32098765432098775,4.679012345679013,4.679012345679013,0.0,2.0,-1.0,5.0,0,0,0,0,-0.84
3.0,0.0,3.0,0.0,5.0,0.0,5.0,0.0,,,,left,1.522728299954906,242.4751394998748,iz8,231.041357900016,233.04108390002511,242.4751394998748,,False,4.0,['p'],False,0.1975308641975308,0.2222222222222222,0.1111111111111111,1.0,2.0,0.7461067557824965,-0.5736503581771071,wait_cost,1.0,3.0,239.5745665999129,,iz8,1,2022-04-21_11h28.55.000,threat_forest,2021.2.3,59.73929775023638,False,12.0,0.3111111111111111,0.40555555555555556,-1.1204938271604938,-0.9954320987654321,0,0,0,0.4205036600697291,-0.5736503581771071,0.0,0.1975308641975308,0.2222222222222222,0.1111111111111111,-0.4444444444444444,-0.32098765432098775,3.6790123456790123,3.6790123456790123,0.0,2.0,-1.0,4.0,0,0,0,0,-0.84
3.0,0.0,3.0,0.0,6.0,0.0,6.0,0.0,,,,right,0.7106654001399875,248.37519069993868,iz8,248.37519069993868,,244.02485909988167,246.02457350003533,False,3.0,['p'],True,0.32,0.4,0.2,1.0,2.0,0.9455672104350704,-0.5557925925925925,wait_cost,0.0,2.0,246.02457350003533,,iz8,1,2022-04-21_11h28.55.000,threat_forest,2021.2.3,59.73929775023638,False,12.0,0.3111111111111111,0.40555555555555556,-1.1204938271604938,-0.9954320987654321,1,0,0,-0.34155356453309665,-0.5557925925925925,0.0,0.32,0.4,0.2,0.0,0.07999999999999996,3.08,3.08,1.0,2.0,-1.0,3.0,0,0,0,1,-0.84
3.0,0.0,3.0,0.0,7.0,0.0,7.0,0.0,,,,right,0.62640820001252,254.87515669991265,iz8,254.87515669991265,,244.02485909988167,246.02457350003533,False,2.0,['p'],True,0.32,0.4,0.2,1.0,2.0,0.9455672104350704,-0.6799999999999999,wait_cost,0.0,1.0,251.1081141999457,,iz8,1,2022-04-21_11h28.55.000,threat_forest,2021.2.3,59.73929775023638,False,12.0,0.3111111111111111,0.40555555555555556,-1.1204938271604938,-0.9954320987654321,1,0,0,-0.4677530436943552,-0.6799999999999999,0.0,0.32,0.4,0.2,0.0,0.07999999999999996,2.08,2.08,1.0,2.0,-1.0,2.0,0,0,0,1,-0.84
4.0,0.0,4.0,0.0,0.0,0.0,0.0,0.0,258.7325641999487,262.24158759997226,,right,1.0336812001187354,263.2604151000269,iz8,258.7325641999487,262.24158759997226,263.2604151000269,,True,5.0,['p'],False,0.1975308641975308,0.2222222222222222,0.1111111111111111,1.0,1.0,0.7461067557824965,-0.0071988747894753,unsucc_cost,1.0,3.0,,,iz8,1,2022-04-21_11h28.55.000,threat_forest,2021.2.3,59.73929775023638,True,48.0,0.3111111111111111,0.3111111111111111,-1.3792592592592592,-1.2498765432098766,0,0,1,0.03312641144687959,-0.0071988747894753,0.1975308641975308,0.1975308641975308,0.2222222222222222,0.1111111111111111,-0.6666666666666667,-0.5185185185185184,4.481481481481482,4.481481481481482,0.0,1.0,-1.0,5.0,0,1,0,0,-0.0071988747894753
4.0,0.0,4.0,0.0,1.0,0.0,1.0,0.0,,,,right,0.6337171997874975,268.50859940005466,iz8,258.7325641999487,262.24158759997226,268.50859940005466,,True,3.0,['p'],False,0.1975308641975308,0.2222222222222222,0.1111111111111111,1.0,1.0,0.7461067557824965,0.0102042008928614,unsucc_cost,1.0,1.0,266.32497849990614,,iz8,1,2022-04-21_11h28.55.000,threat_forest,2021.2.3,59.73929775023638,True,48.0,0.3111111111111111,0.3111111111111111,-1.3792592592592592,-1.2498765432098766,0,0,1,-0.4561524811754924,0.0102042008928614,0.1975308641975308,0.1975308641975308,0.2222222222222222,0.1111111111111111,-0.6666666666666667,-0.5185185185185184,2.481481481481482,2.481481481481482,0.0,1.0,-1.0,3.0,0,1,0,0,0.0102042008928614
4.0,0.0,4.0,0.0,2.0,0.0,2.0,0.0,,,,right,0.8041088001336902,274.3586538999807,iz8,258.7325641999487,262.24158759997226,274.3586538999807,,True,1.0,['p'],False,0.1975308641975308,0.2222222222222222,0.1111111111111111,1.0,1.0,0.7461067557824965,0.0175935243885211,succ_gain,1.0,2.0,271.1583682000637,,iz8,1,2022-04-21_11h28.55.000,threat_forest,2021.2.3,59.73929775023638,True,48.0,0.3111111111111111,0.3111111111111111,-1.3792592592592592,-1.2498765432098766,0,0,1,-0.21802069540921026,0.0175935243885211,1.0,0.1975308641975308,0.2222222222222222,0.1111111111111111,-0.6666666666666667,-0.5185185185185184,0.4814814814814816,1.0,0.0,1.0,-1.0,1.0,1,1,0,0,0.625
4.0,0.0,4.0,0.0,3.0,0.0,3.0,0.0,,,,right,1.2993634000886232,280.3426940999925,iz8,280.3426940999925,,275.1920541001018,277.1917594000697,False,2.0,['p'],True,0.32,0.4,0.2,1.0,1.0,0.9455672104350704,0.0283699473129097,wait_cost,0.0,1.0,277.1917594000697,,iz8,1,2022-04-21_11h28.55.000,threat_forest,2021.2.3,59.73929775023638,False,48.0,0.3111111111111111,0.3111111111111111,-1.3792592592592592,-1.2498765432098766,1,1,0,0.2618744522895688,0.0283699473129097,0.32,0.32,0.4,0.2,-0.3999999999999999,-0.24,1.76,1.76,1.0,1.0,1.0,2.0,0,1,1,1,0.0283699473129097
4.0,0.0,4.0,0.0,4.0,0.0,4.0,0.0,,,,right,0.6871931001078337,285.07983920001425,iz8,281.6593631999567,283.6586521000136,285.07983920001425,,True,1.0,['p'],False,0.1975308641975308,0.2222222222222222,0.1111111111111111,1.0,1.0,0.7461067557824965,0.0571620179850632,unsucc_cost,1.0,0.0,283.6586521000136,,iz8,1,2022-04-21_11h28.55.000,threat_forest,2021.2.3,59.73929775023638,True,48.0,0.3111111111111111,0.3111111111111111,-1.3792592592592592,-1.2498765432098766,0,0,1,-0.3751399489506333,0.0571620179850632,1.0,0.1975308641975308,0.2222222222222222,0.1111111111111111,-0.6666666666666667,-0.5185185185185184,0.4814814814814816,1.0,0.0,1.0,-1.0,1.0,1,1,0,0,0.625
5.0,0.0,5.0,0.0,0.0,0.0,0.0,0.0,291.2997121999506,294.80864199995995,,right,0.8766691000200808,295.4799929999281,iz8,291.2997121999506,294.80864199995995,295.4799929999281,,True,5.0,['p'],False,0.27,0.3,0.1,1.0,2.0,0.7963326591781347,-0.0191201048580569,succ_gain,1.0,6.0,,,iz8,1,2022-04-21_11h28.55.000,threat_forest,2021.2.3,59.73929775023638,True,1.0,0.4833333333333333,0.3972222222222222,-0.7877777777777778,-1.0835185185185185,1,0,1,-0.13162566679398363,-0.0191201048580569,0.27,0.27,0.3,0.1,-0.10000000000000009,-0.020000000000000018,4.98,4.98,0.0,2.0,-1.0,5.0,0,1,0,1,-0.0191201048580569
5.0,0.0,5.0,0.0,1.0,0.0,1.0,0.0,,,,right,1.3249135999940336,301.6594479000196,iz8,301.6594479000196,,296.3757038998883,298.3754886998795,False,6.0,['p'],True,0.4444444444444445,0.6666666666666666,0.3333333333333333,1.0,2.0,0.9656336071428248,-0.0704457173777337,wait_cost,0.0,5.0,298.3754886998795,,iz8,1,2022-04-21_11h28.55.000,threat_forest,2021.2.3,59.73929775023638,False,1.0,0.4833333333333333,0.3972222222222222,-0.7877777777777778,-1.0835185185185185,1,1,0,0.2813472497604079,-0.0704457173777337,0.4444444444444445,0.4444444444444445,0.6666666666666666,0.3333333333333333,0.6666666666666665,0.4444444444444444,6.444444444444445,6.444444444444445,1.0,2.0,1.0,6.0,0,1,1,1,-0.0704457173777337
5.0,0.0,5.0,0.0,2.0,0.0,2.0,0.0,,,,right,0.6398167000152171,308.55917369993404,iz8,308.55917369993404,,296.3757038998883,298.3754886998795,False,5.0,['p'],True,0.4444444444444445,0.6666666666666666,0.3333333333333333,1.0,2.0,0.9656336071428248,0.0505826202705592,wait_cost,0.0,4.0,305.0089779000264,,iz8,1,2022-04-21_11h28.55.000,threat_forest,2021.2.3,59.73929775023638,False,1.0,0.4833333333333333,0.3972222222222222,-0.7877777777777778,-1.0835185185185185,1,1,0,-0.4465735498767389,0.0505826202705592,0.4444444444444445,0.4444444444444445,0.6666666666666666,0.3333333333333333,0.6666666666666665,0.4444444444444444,5.444444444444445,5.444444444444445,1.0,2.0,-1.0,5.0,0,1,1,1,0.0505826202705592
5.0,0.0,5.0,0.0,3.0,0.0,3.0,0.0,,,,right,0.7522021001204848,314.04288890003227,iz8,314.04288890003227,,296.3757038998883,298.3754886998795,False,4.0,['p'],True,0.4444444444444445,0.6666666666666666,0.3333333333333333,1.0,2.0,0.9656336071428248,0.084740865512117,wait_cost,0.0,3.0,311.22561209998094,,iz8,1,2022-04-21_11h28.55.000,threat_forest,2021.2.3,59.73929775023638,False,1.0,0.4833333333333333,0.3972222222222222,-0.7877777777777778,-1.0835185185185185,1,1,0,-0.28475024097893337,0.084740865512117,0.4444444444444445,0.4444444444444445,0.6666666666666666,0.3333333333333333,0.6666666666666665,0.4444444444444444,4.444444444444445,4.444444444444445,1.0,2.0,-1.0,4.0,0,1,1,1,0.084740865512117
5.0,0.0,5.0,0.0,4.0,0.0,4.0,0.0,,,,left,0.8016413999721408,317.55964690004475,iz8,317.55964690004475,,296.3757038998883,298.3754886998795,True,3.0,['p'],True,0.4444444444444445,0.6666666666666666,0.3333333333333333,1.0,2.0,0.9656336071428248,0.1229938271604937,figh_cost,0.0,0.0,316.82572060008533,,iz8,1,2022-04-21_11h28.55.000,threat_forest,2021.2.3,59.73929775023638,True,1.0,0.4833333333333333,0.3972222222222222,-0.7877777777777778,-1.0835185185185185,1,1,1,-0.22109390331334783,0.1229938271604937,0.4444444444444445,0.4444444444444445,0.6666666666666666,0.3333333333333333,0.6666666666666665,0.4444444444444444,3.4444444444444446,3.4444444444444446,1.0,2.0,-1.0,3.0,0,1,1,1,0.1229938271604937
6.0,0.0,6.0,0.0,0.0,0.0,0.0,0.0,323.0138783999719,326.5258690000046,,right,1.988389400066808,327.0762686000671,iz8,327.0762686000671,,323.0138783999719,326.5258690000046,False,5.0,['r'],True,0.36,0.6,0.4,2.0,1.0,0.9801625908629508,-0.019480620685,wait_cost,0.0,4.0,,,iz8,1,2022-04-21_11h28.55.000,threat_forest,2021.2.3,59.73929775023638,False,24.0,0.55,0.5166666666666666,-0.9100000000000001,-0.848888888888889,0,0,0,0.687324964338438,-0.019480620685,0.36,0.36,0.6,0.4,-0.40000000000000036,-0.3200000000000003,4.68,4.68,1.0,1.0,-1.0,5.0,0,1,0,0,-0.019480620685
6.0,0.0,6.0,0.0,1.0,0.0,1.0,0.0,,,,right,0.8892055000178516,333.34342799987644,iz8,329.09482620004565,331.1092926999554,333.34342799987644,,True,4.0,['r'],False,0.5,0.5,0.0,0.0,1.0,0.6309297535714574,0.102124415,succ_gain,1.0,5.0,331.1092926999554,,iz8,1,2022-04-21_11h28.55.000,threat_forest,2021.2.3,59.73929775023638,True,24.0,0.55,0.5166666666666666,-0.9100000000000001,-0.848888888888889,1,0,1,-0.11742691155601605,0.102124415,0.5,0.5,0.5,0.0,0.5,0.5,4.5,4.5,0.0,1.0,-1.0,4.0,0,1,0,1,0.102124415
6.0,0.0,6.0,0.0,2.0,0.0,2.0,0.0,,,,right,0.7725919999647886,337.8931225000415,iz8,337.8931225000415,,334.25975230010226,336.2621917000506,False,5.0,['r'],True,0.36,0.6,0.4,2.0,1.0,0.9801625908629508,-0.0404334399999999,wait_cost,0.0,4.0,336.2621917000506,,iz8,1,2022-04-21_11h28.55.000,threat_forest,2021.2.3,59.73929775023638,False,24.0,0.55,0.5166666666666666,-0.9100000000000001,-0.848888888888889,0,0,0,-0.25800418349578924,-0.0404334399999999,0.36,0.36,0.6,0.4,-0.40000000000000036,-0.3200000000000003,4.68,4.68,1.0,1.0,1.0,5.0,0,1,0,0,-0.0404334399999999
6.0,0.0,6.0,0.0,3.0,0.0,3.0,0.0,,,,right,0.6099056000821292,343.87641620007344,iz8,343.87641620007344,,334.25975230010226,336.2621917000506,False,4.0,['r'],True,0.36,0.6,0.4,2.0,1.0,0.9801625908629508,-0.0316195,wait_cost,0.0,3.0,340.69281979999505,,iz8,1,2022-04-21_11h28.55.000,threat_forest,2021.2.3,59.73929775023638,False,24.0,0.55,0.5166666666666666,-0.9100000000000001,-0.848888888888889,0,0,0,-0.4944510877541329,-0.0316195,0.36,0.36,0.6,0.4,-0.40000000000000036,-0.3200000000000003,3.6799999999999997,3.6799999999999997,1.0,1.0,-1.0,4.0,0,1,0,0,-0.0316195
6.0,0.0,6.0,0.0,4.0,0.0,4.0,0.0,,,,right,0.642271899851039,350.27804809995,iz8,350.27804809995,,334.25975230010226,336.2621917000506,False,3.0,['r'],True,0.36,0.6,0.4,2.0,1.0,0.9801625908629508,-0.0570119999999999,wait_cost,0.0,2.0,346.509491099976,,iz8,1,2022-04-21_11h28.55.000,threat_forest,2021.2.3,59.73929775023638,False,24.0,0.55,0.5166666666666666,-0.9100000000000001,-0.848888888888889,0,0,0,-0.4427435449342695,-0.0570119999999999,0.36,0.36,0.6,0.4,-0.40000000000000036,-0.3200000000000003,2.6799999999999997,2.6799999999999997,1.0,1.0,-1.0,3.0,0,1,0,0,-0.0570119999999999
6.0,0.0,6.0,0.0,5.0,0.0,5.0,0.0,,,,right,0.5957337999716401,356.60997819993645,iz8,356.60997819993645,,334.25975230010226,336.2621917000506,False,2.0,['r'],True,0.36,0.6,0.4,2.0,1.0,0.9801625908629508,-0.0699999999999999,wait_cost,0.0,1.0,352.943046499975,,iz8,1,2022-04-21_11h28.55.000,threat_forest,2021.2.3,59.73929775023638,False,24.0,0.55,0.5166666666666666,-0.9100000000000001,-0.848888888888889,0,0,0,-0.5179613560349681,-0.0699999999999999,0.36,0.36,0.6,0.4,-0.40000000000000036,-0.3200000000000003,1.6799999999999997,1.6799999999999997,1.0,1.0,-1.0,2.0,0,1,0,0,-0.0699999999999999
6.0,0.0,6.0,0.0,6.0,0.0,6.0,0.0,,,,right,0.6626391999889165,360.0435919999145,iz8,357.2266935000662,359.2263235000428,360.0435919999145,,True,1.0,['r'],False,0.5,0.5,0.0,0.0,1.0,0.6309297535714574,0.5,succ_gain,1.0,2.0,359.2263235000428,,iz8,1,2022-04-21_11h28.55.000,threat_forest,2021.2.3,59.73929775023638,True,24.0,0.55,0.5166666666666666,-0.9100000000000001,-0.848888888888889,1,0,1,-0.41152463000162737,0.5,1.0,0.5,0.5,0.0,0.5,0.5,1.5,1.5,0.0,1.0,-1.0,1.0,1,1,0,1,0.625
6.0,0.0,6.0,0.0,7.0,0.0,7.0,0.0,,,,right,0.6325083000119776,364.9768395998981,iz8,364.9768395998981,,360.7267114999704,362.7263996999245,False,2.0,['r'],True,0.36,0.6,0.4,2.0,1.0,0.9801625908629508,-0.64,wait_cost,0.0,1.0,362.7263996999245,,iz8,1,2022-04-21_11h28.55.000,threat_forest,2021.2.3,59.73929775023638,False,24.0,0.55,0.5166666666666666,-0.9100000000000001,-0.848888888888889,0,0,0,-0.4580619359179805,-0.64,0.0,0.36,0.6,0.4,-0.40000000000000036,-0.3200000000000003,1.6799999999999997,1.6799999999999997,1.0,1.0,1.0,2.0,0,0,0,0,-0.84
7.0,0.0,7.0,0.0,0.0,0.0,0.0,0.0,369.66801310004666,373.1765739000402,,right,1.192529199877754,375.8784362999722,iz8,375.8784362999722,,369.66801310004666,373.1765739000402,False,4.0,['r'],True,0.46875,0.625,0.25,2.0,1.0,0.9634951148421658,0.0314926583817976,wait_cost,0.0,3.0,,,iz8,1,2022-04-21_11h28.55.000,threat_forest,2021.2.3,59.73929775023638,False,38.0,0.6125,0.58125,-0.5218750000000001,-0.7159375000000001,0,0,0,0.17607642975122872,0.0314926583817976,0.46875,0.46875,0.625,0.25,0.125,0.15625,4.15625,4.15625,1.0,1.0,-1.0,4.0,0,1,0,0,0.0314926583817976
7.0,0.0,7.0,0.0,1.0,0.0,1.0,0.0,,,,right,0.7471984000876546,380.3439146000892,iz8,377.0935649999883,379.09332760004327,380.3439146000892,,True,3.0,['r'],False,0.6,0.6,0.0,0.0,1.0,0.6126016192893442,0.1452018321690559,unsucc_cost,1.0,1.0,379.09332760004327,,iz8,1,2022-04-21_11h28.55.000,threat_forest,2021.2.3,59.73929775023638,True,38.0,0.6125,0.58125,-0.5218750000000001,-0.7159375000000001,1,1,1,-0.291424533280109,0.1452018321690559,0.6,0.6,0.6,0.0,0.7999999999999999,0.7999999999999999,3.8,3.8,0.0,1.0,-1.0,3.0,0,1,1,1,0.1452018321690559
7.0,0.0,7.0,0.0,2.0,0.0,2.0,0.0,,,,right,0.580264899879694,385.5940960000735,iz8,377.0935649999883,379.09332760004327,385.5940960000735,,True,1.0,['r'],False,0.6,0.6,0.0,0.0,1.0,0.6126016192893442,0.206885390625,unsucc_cost,1.0,0.0,383.1100626999978,,iz8,1,2022-04-21_11h28.55.000,threat_forest,2021.2.3,59.73929775023638,True,38.0,0.6125,0.58125,-0.5218750000000001,-0.7159375000000001,1,1,1,-0.5442705557777934,0.206885390625,1.0,0.6,0.6,0.0,0.7999999999999999,0.7999999999999999,1.7999999999999998,1.7999999999999998,0.0,1.0,-1.0,1.0,1,1,1,1,0.625
8.0,0.0,8.0,0.0,0.0,0.0,0.0,0.0,390.9704934998881,394.4768948999699,,right,0.9599868000950664,396.9941835999489,iz8,390.9704934998881,394.4768948999699,396.9941835999489,,True,4.0,['p'],False,0.4166666666666667,0.5,0.1666666666666666,1.0,1.0,0.9358932809493992,0.0414014973705713,figh_cost,1.0,1.0,,,iz8,1,2022-04-21_11h28.55.000,threat_forest,2021.2.3,59.73929775023638,True,16.0,0.4,0.5062500000000001,-1.1033333333333333,-0.8126041666666667,0,0,1,-0.04083574451575835,0.0414014973705713,0.4166666666666667,0.4166666666666667,0.5,0.1666666666666666,2.220446049250313e-16,0.08333333333333348,4.083333333333334,4.083333333333334,0.0,1.0,-1.0,4.0,0,1,0,0,0.0414014973705713
8.0,0.0,8.0,0.0,1.0,0.0,1.0,0.0,,,,right,0.9493131001945584,400.6108951000497,iz8,390.9704934998881,394.4768948999699,400.6108951000497,,True,1.0,['p'],False,0.4166666666666667,0.5,0.1666666666666666,1.0,1.0,0.9358932809493992,0.0372662954218108,succ_gain,1.0,2.0,399.9769643000327,,iz8,1,2022-04-21_11h28.55.000,threat_forest,2021.2.3,59.73929775023638,True,16.0,0.4,0.5062500000000001,-1.1033333333333333,-0.8126041666666667,0,0,1,-0.05201660834281058,0.0372662954218108,1.0,0.4166666666666667,0.5,0.1666666666666666,2.220446049250313e-16,0.08333333333333348,1.0833333333333335,1.0833333333333335,0.0,1.0,-1.0,1.0,1,1,0,0,0.625
8.0,0.0,8.0,0.0,2.0,0.0,2.0,0.0,,,,right,1.003151900134981,404.9612189000472,iz8,404.9612189000472,,401.57747259992175,403.5770348999649,False,2.0,['p'],True,0.27,0.3,0.1,1.0,1.0,0.7963326591781347,0.0086842224691358,wait_cost,0.0,1.0,403.5770348999649,,iz8,1,2022-04-21_11h28.55.000,threat_forest,2021.2.3,59.73929775023638,False,16.0,0.4,0.5062500000000001,-1.1033333333333333,-0.8126041666666667,0,0,0,0.003146943310629525,0.0086842224691358,0.27,0.27,0.3,0.1,-0.3999999999999999,-0.29000000000000004,1.71,1.71,1.0,1.0,1.0,2.0,0,1,0,0,0.0086842224691358
8.0,0.0,8.0,0.0,3.0,0.0,3.0,0.0,,,,right,1.248281099833548,408.9107528999448,iz8,405.9940176999662,407.9938819000963,408.9107528999448,,True,1.0,['p'],False,0.4166666666666667,0.5,0.1666666666666666,1.0,1.0,0.9358932809493992,0.0748196450617284,unsucc_cost,1.0,0.0,407.9938819000963,,iz8,1,2022-04-21_11h28.55.000,threat_forest,2021.2.3,59.73929775023638,True,16.0,0.4,0.5062500000000001,-1.1033333333333333,-0.8126041666666667,0,0,1,0.22176748483569939,0.0748196450617284,1.0,0.4166666666666667,0.5,0.1666666666666666,2.220446049250313e-16,0.08333333333333348,1.0833333333333335,1.0833333333333335,0.0,1.0,-1.0,1.0,1,1,0,0,0.625
9.0,0.0,9.0,0.0,0.0,0.0,0.0,0.0,414.7994609999005,418.3105637999252,,right,1.1920044999569654,419.8122658999637,iz8,419.8122658999637,,414.7994609999005,418.3105637999252,False,4.0,['p'],True,0.2040816326530612,0.2857142857142857,0.2857142857142857,2.0,2.0,0.9335459102197724,-0.0053173066993206,wait_cost,0.0,3.0,,,iz8,1,2022-04-21_11h28.55.000,threat_forest,2021.2.3,59.73929775023638,False,21.0,0.47619047619047616,0.4380952380952381,-1.012471655328798,-1.0579024943310658,0,0,0,0.17563634376771464,-0.0053173066993206,0.2040816326530612,0.2040816326530612,0.2857142857142857,0.2857142857142857,-0.7142857142857144,-0.46938775510204067,3.5306122448979593,3.5306122448979593,1.0,2.0,-1.0,4.0,0,1,0,0,-0.0053173066993206
9.0,0.0,9.0,0.0,1.0,0.0,1.0,0.0,,,,right,0.7187161999754608,423.994696599897,iz8,421.0277265000623,423.027305399999,423.994696599897,,True,3.0,['p'],False,0.4444444444444445,0.6666666666666666,0.3333333333333333,1.0,2.0,0.9656336071428248,0.0927490191006968,succ_gain,1.0,5.0,423.027305399999,,iz8,1,2022-04-21_11h28.55.000,threat_forest,2021.2.3,59.73929775023638,True,21.0,0.47619047619047616,0.4380952380952381,-1.012471655328798,-1.0579024943310658,1,1,1,-0.3302887140974376,0.0927490191006968,0.4444444444444445,0.4444444444444445,0.6666666666666666,0.3333333333333333,0.6666666666666665,0.4444444444444444,3.4444444444444446,3.4444444444444446,0.0,2.0,-1.0,3.0,0,1,1,1,0.0927490191006968
9.0,0.0,9.0,0.0,2.0,0.0,2.0,0.0,,,,left,1.3884455000516027,430.1279036998749,iz8,421.0277265000623,423.027305399999,430.1279036998749,,False,5.0,['p'],False,0.4444444444444445,0.6666666666666666,0.3333333333333333,1.0,2.0,0.9656336071428248,0.0918775427186178,wait_cost,1.0,4.0,426.7440098999068,,iz8,1,2022-04-21_11h28.55.000,threat_forest,2021.2.3,59.73929775023638,False,21.0,0.47619047619047616,0.4380952380952381,-1.012471655328798,-1.0579024943310658,1,1,0,0.32818477604126545,0.0918775427186178,0.4444444444444445,0.4444444444444445,0.6666666666666666,0.3333333333333333,0.6666666666666665,0.4444444444444444,5.444444444444445,5.444444444444445,0.0,2.0,1.0,5.0,0,1,1,1,0.0918775427186178
9.0,0.0,9.0,0.0,3.0,0.0,3.0,0.0,,,,right,0.5331778000108898,436.34491099999286,iz8,421.0277265000623,423.027305399999,436.34491099999286,,True,4.0,['p'],False,0.4444444444444445,0.6666666666666666,0.3333333333333333,1.0,2.0,0.9656336071428248,0.1281138193638644,figh_cost,1.0,1.0,433.5441697998904,,iz8,1,2022-04-21_11h28.55.000,threat_forest,2021.2.3,59.73929775023638,True,21.0,0.47619047619047616,0.4380952380952381,-1.012471655328798,-1.0579024943310658,1,1,1,-0.6289003269327891,0.1281138193638644,0.4444444444444445,0.4444444444444445,0.6666666666666666,0.3333333333333333,0.6666666666666665,0.4444444444444444,4.444444444444445,4.444444444444445,0.0,2.0,-1.0,4.0,0,1,1,1,0.1281138193638644
9.0,0.0,9.0,0.0,4.0,0.0,4.0,0.0,,,,right,0.8374164998531342,440.21125670010224,iz8,440.21125670010224,,436.9115907000378,438.9108557999134,False,1.0,['p'],True,0.2040816326530612,0.2857142857142857,0.2857142857142857,2.0,2.0,0.9335459102197724,0.0919241468318242,wait_cost,0.0,0.0,438.9108557999134,,iz8,1,2022-04-21_11h28.55.000,threat_forest,2021.2.3,59.73929775023638,False,21.0,0.47619047619047616,0.4380952380952381,-1.012471655328798,-1.0579024943310658,0,0,0,-0.17743372192135673,0.0919241468318242,1.0,0.2040816326530612,0.2857142857142857,0.2857142857142857,-0.7142857142857144,-0.46938775510204067,0.5306122448979593,1.0,1.0,2.0,-1.0,1.0,1,1,0,0,0.625
10.0,0.0,10.0,0.0,0.0,0.0,0.0,0.0,444.2730854998808,447.7778457999229,,left,1.5047526000998914,451.06443280004896,iz8,451.06443280004896,,444.2730854998808,447.7778457999229,True,5.0,['r'],True,0.46875,0.625,0.25,2.0,2.0,0.9634951148421658,-0.0155794500840503,unsucc_cost,0.0,3.0,,,iz8,1,2022-04-21_11h28.55.000,threat_forest,2021.2.3,59.73929775023638,True,19.0,0.5982142857142857,0.5372023809523809,-0.044642857142857206,-0.5285572562358276,1,0,1,0.4086284993724054,-0.0155794500840503,0.46875,0.46875,0.625,0.25,0.75,0.625,5.625,5.625,1.0,2.0,-1.0,5.0,0,1,0,1,-0.0155794500840503
10.0,0.0,10.0,0.0,1.0,0.0,1.0,0.0,,,,right,0.8365785998757929,456.21146179991774,iz8,452.5947374999523,454.5943899000995,456.21146179991774,,True,3.0,['r'],False,0.5714285714285714,0.5714285714285714,0.0,0.0,2.0,0.6216097450797566,0.2045482011987489,unsucc_cost,1.0,1.0,454.5943899000995,,iz8,1,2022-04-21_11h28.55.000,threat_forest,2021.2.3,59.73929775023638,True,19.0,0.5982142857142857,0.5372023809523809,-0.044642857142857206,-0.5285572562358276,1,1,1,-0.1784348001771445,0.2045482011987489,0.5714285714285714,0.5714285714285714,0.5714285714285714,0.0,1.2857142857142856,1.2857142857142856,4.285714285714286,4.285714285714286,0.0,2.0,-1.0,3.0,0,1,1,1,0.2045482011987489
10.0,0.0,10.0,0.0,2.0,0.0,2.0,0.0,,,,left,0.5489686999935657,461.5616776999086,iz8,461.5616776999086,,457.0781914999243,459.0778584000655,True,1.0,['r'],True,0.46875,0.625,0.25,2.0,2.0,0.9634951148421658,0.3047633530538698,succ_gain,0.0,3.0,459.0778584000655,,iz8,1,2022-04-21_11h28.55.000,threat_forest,2021.2.3,59.73929775023638,True,19.0,0.5982142857142857,0.5372023809523809,-0.044642857142857206,-0.5285572562358276,1,0,1,-0.5997138518600712,0.3047633530538698,1.0,0.46875,0.625,0.25,0.75,0.625,1.625,1.625,1.0,2.0,-1.0,1.0,1,1,0,1,0.625
10.0,0.0,10.0,0.0,3.0,0.0,3.0,0.0,,,,right,1.028047899948433,464.7286862998735,iz8,462.1281616000924,464.1279462999664,464.7286862998735,,True,3.0,['r'],False,0.5714285714285714,0.5714285714285714,0.0,0.0,2.0,0.6216097450797566,0.1827383633208046,unsucc_cost,1.0,1.0,464.1279462999664,,iz8,1,2022-04-21_11h28.55.000,threat_forest,2021.2.3,59.73929775023638,True,19.0,0.5982142857142857,0.5372023809523809,-0.044642857142857206,-0.5285572562358276,1,1,1,0.027661761228023888,0.1827383633208046,0.5714285714285714,0.5714285714285714,0.5714285714285714,0.0,1.2857142857142856,1.2857142857142856,4.285714285714286,4.285714285714286,0.0,2.0,1.0,3.0,0,1,1,1,0.1827383633208046
10.0,0.0,10.0,0.0,4.0,0.0,4.0,0.0,,,,left,0.9853558999020606,468.5618914000224,iz8,468.5618914000224,,465.7781823999248,467.7780341999605,True,1.0,['r'],True,0.46875,0.625,0.25,2.0,2.0,0.9634951148421658,0.3303161932497608,succ_gain,0.0,3.0,467.7780341999605,,iz8,1,2022-04-21_11h28.55.000,threat_forest,2021.2.3,59.73929775023638,True,19.0,0.5982142857142857,0.5372023809523809,-0.044642857142857206,-0.5285572562358276,1,0,1,-0.014752383372767198,0.3303161932497608,1.0,0.46875,0.625,0.25,0.75,0.625,1.625,1.625,1.0,2.0,-1.0,1.0,1,1,0,1,0.625
10.0,0.0,10.0,0.0,5.0,0.0,5.0,0.0,,,,right,0.549323899904266,472.8783154000994,iz8,469.5783216999844,471.5780267999508,472.8783154000994,,True,3.0,['r'],False,0.5714285714285714,0.5714285714285714,0.0,0.0,2.0,0.6216097450797566,0.2485650510204081,unsucc_cost,1.0,1.0,471.5780267999508,,iz8,1,2022-04-21_11h28.55.000,threat_forest,2021.2.3,59.73929775023638,True,19.0,0.5982142857142857,0.5372023809523809,-0.044642857142857206,-0.5285572562358276,1,1,1,-0.599067029832649,0.2485650510204081,0.5714285714285714,0.5714285714285714,0.5714285714285714,0.0,1.2857142857142856,1.2857142857142856,4.285714285714286,4.285714285714286,0.0,2.0,1.0,3.0,0,1,1,1,0.2485650510204081
10.0,0.0,10.0,0.0,6.0,0.0,6.0,0.0,,,,right,0.7442866000346839,477.361756300088,iz8,469.5783216999844,471.5780267999508,477.361756300088,,True,1.0,['r'],False,0.5714285714285714,0.5714285714285714,0.0,0.0,2.0,0.6216097450797566,0.5714285714285714,succ_gain,1.0,3.0,475.4447450998705,,iz8,1,2022-04-21_11h28.55.000,threat_forest,2021.2.3,59.73929775023638,True,19.0,0.5982142857142857,0.5372023809523809,-0.044642857142857206,-0.5285572562358276,1,1,1,-0.2953291032249517,0.5714285714285714,1.0,0.5714285714285714,0.5714285714285714,0.0,1.2857142857142856,1.2857142857142856,2.2857142857142856,2.2857142857142856,0.0,2.0,-1.0,1.0,1,1,1,1,0.625
10.0,0.0,10.0,0.0,7.0,0.0,7.0,0.0,,,,right,0.3996730998624116,481.2973676000256,iz8,481.2973676000256,,478.128578200005,480.1281888000667,False,3.0,['r'],True,0.46875,0.625,0.25,2.0,2.0,0.9634951148421658,-0.25,wait_cost,0.0,2.0,480.1281888000667,,iz8,1,2022-04-21_11h28.55.000,threat_forest,2021.2.3,59.73929775023638,False,19.0,0.5982142857142857,0.5372023809523809,-0.044642857142857206,-0.5285572562358276,1,0,0,-0.9171083163492466,-0.25,0.0,0.46875,0.625,0.25,0.75,0.625,3.625,3.625,1.0,2.0,1.0,3.0,0,0,0,1,-0.84
11.0,0.0,11.0,0.0,0.0,0.0,0.0,0.0,486.01804580003954,489.5283339999151,,left,1.2352887999732047,490.9455802999437,iz8,490.9455802999437,,486.01804580003954,489.5283339999151,True,4.0,['r'],True,0.24,0.4,0.4,2.0,2.0,0.9801625908629508,-0.0095698812742934,figh_cost,0.0,1.0,,,iz8,1,2022-04-21_11h28.55.000,threat_forest,2021.2.3,59.73929775023638,True,46.0,0.3666666666666667,0.4824404761904762,-1.0533333333333335,-0.5489880952380953,0,0,1,0.21130478887434515,-0.0095698812742934,0.24,0.24,0.4,0.4,-0.6000000000000001,-0.44000000000000017,3.5599999999999996,3.5599999999999996,1.0,2.0,-1.0,4.0,0,1,0,0,-0.0095698812742934
11.0,0.0,11.0,0.0,1.0,0.0,1.0,0.0,,,,left,1.3630812000483274,495.16196119994856,iz8,495.16196119994856,,486.01804580003954,489.5283339999151,True,1.0,['r'],True,0.24,0.4,0.4,2.0,2.0,0.9801625908629508,0.0546311547259259,succ_gain,0.0,3.0,494.2116765999235,,iz8,1,2022-04-21_11h28.55.000,threat_forest,2021.2.3,59.73929775023638,True,46.0,0.3666666666666667,0.4824404761904762,-1.0533333333333335,-0.5489880952380953,0,0,1,0.3097477254434471,0.0546311547259259,1.0,0.24,0.4,0.4,-0.6000000000000001,-0.44000000000000017,0.5599999999999998,1.0,1.0,2.0,-1.0,1.0,1,1,0,0,0.625
11.0,0.0,11.0,0.0,2.0,0.0,2.0,0.0,,,,right,1.4793772001285106,499.77880620001815,iz8,496.54534989991225,498.5451164999977,499.77880620001815,,True,3.0,['r'],False,0.3333333333333333,0.3333333333333333,0.0,0.0,2.0,0.5793801642856949,0.1273255308641976,unsucc_cost,1.0,1.0,498.5451164999977,,iz8,1,2022-04-21_11h28.55.000,threat_forest,2021.2.3,59.73929775023638,True,46.0,0.3666666666666667,0.4824404761904762,-1.0533333333333335,-0.5489880952380953,0,0,1,0.3916211884863645,0.1273255308641976,0.3333333333333333,0.3333333333333333,0.3333333333333333,0.0,0.33333333333333315,0.33333333333333315,3.333333333333333,3.333333333333333,0.0,2.0,1.0,3.0,0,1,0,0,0.1273255308641976
11.0,0.0,11.0,0.0,3.0,0.0,3.0,0.0,,,,right,0.8679039999842644,505.0287301000208,iz8,496.54534989991225,498.5451164999977,505.0287301000208,,True,1.0,['r'],False,0.3333333333333333,0.3333333333333333,0.0,0.0,2.0,0.5793801642856949,0.1446074074074073,unsucc_cost,1.0,0.0,503.2785887999926,,iz8,1,2022-04-21_11h28.55.000,threat_forest,2021.2.3,59.73929775023638,True,46.0,0.3666666666666667,0.4824404761904762,-1.0533333333333335,-0.5489880952380953,0,0,1,-0.14167416953478756,0.1446074074074073,1.0,0.3333333333333333,0.3333333333333333,0.0,0.33333333333333315,0.33333333333333315,1.333333333333333,1.333333333333333,0.0,2.0,-1.0,1.0,1,1,0,0,0.625
12.0,0.0,12.0,0.0,0.0,0.0,0.0,0.0,509.1974333999679,512.7119581999723,,right,1.218638699967414,513.545923900092,iz8,513.545923900092,,509.1974333999679,512.7119581999723,False,4.0,['r'],True,0.25,0.25,0.0,0.0,2.0,0.5118595071429148,0.0318177712615933,wait_cost,0.0,3.0,,,iz8,1,2022-04-21_11h28.55.000,threat_forest,2021.2.3,59.73929775023638,False,34.0,0.4583333333333333,0.4125,-1.3888888888888888,-1.221111111111111,1,0,0,0.197734416056051,0.0318177712615933,0.25,0.25,0.25,0.0,0.0,0.0,4.0,4.0,1.0,2.0,-1.0,4.0,0,1,0,1,0.0318177712615933
12.0,0.0,12.0,0.0,1.0,0.0,1.0,0.0,,,,right,0.8586607000324875,517.8959905998781,iz8,517.8959905998781,,509.1974333999679,512.7119581999723,False,3.0,['r'],True,0.25,0.25,0.0,0.0,2.0,0.5118595071429148,0.0633364704901298,wait_cost,0.0,2.0,516.7953530999366,,iz8,1,2022-04-21_11h28.55.000,threat_forest,2021.2.3,59.73929775023638,False,34.0,0.4583333333333333,0.4125,-1.3888888888888888,-1.221111111111111,1,0,0,-0.1523814291700741,0.0633364704901298,0.25,0.25,0.25,0.0,0.0,0.0,3.0,3.0,1.0,2.0,-1.0,3.0,0,1,0,1,0.0633364704901298
12.0,0.0,12.0,0.0,2.0,0.0,2.0,0.0,,,,left,1.510842900024727,522.9796458999626,iz8,522.9796458999626,,509.1974333999679,512.7119581999723,True,2.0,['r'],True,0.25,0.25,0.0,0.0,2.0,0.5118595071429148,0.0165064514746228,unsucc_cost,0.0,0.0,520.7787591998931,,iz8,1,2022-04-21_11h28.55.000,threat_forest,2021.2.3,59.73929775023638,True,34.0,0.4583333333333333,0.4125,-1.3888888888888888,-1.221111111111111,1,0,1,0.4126677070214105,0.0165064514746228,0.25,0.25,0.25,0.0,0.0,0.0,2.0,2.0,1.0,2.0,-1.0,2.0,0,1,0,1,0.0165064514746228
13.0,0.0,13.0,0.0,0.0,0.0,0.0,0.0,528.264404400019,531.7788976999,,right,1.0550098000094297,535.096117899986,iz8,535.096117899986,,528.264404400019,531.7788976999,False,4.0,['r'],True,0.25,0.5,0.5,2.0,2.0,0.9463946303571862,-0.0085880818517447,wait_cost,0.0,3.0,,,iz8,1,2022-04-21_11h28.55.000,threat_forest,2021.2.3,59.73929775023638,False,70.0,0.41666666666666663,0.4375,-1.0833333333333335,-1.2361111111111112,0,0,0,0.053550055993350464,-0.0085880818517447,0.25,0.25,0.5,0.5,-0.5,-0.5,3.5,3.5,1.0,2.0,-1.0,4.0,0,1,0,0,-0.0085880818517447
13.0,0.0,13.0,0.0,1.0,0.0,1.0,0.0,,,,right,0.6439195999410003,540.5295599999372,iz8,536.1792440998834,538.1792279998772,540.5295599999372,,True,3.0,['r'],False,0.3333333333333333,0.3333333333333333,0.0,0.0,2.0,0.5793801642856949,0.1048304344564472,unsucc_cost,1.0,1.0,538.1792279998772,,iz8,1,2022-04-21_11h28.55.000,threat_forest,2021.2.3,59.73929775023638,True,70.0,0.41666666666666663,0.4375,-1.0833333333333335,-1.2361111111111112,1,0,1,-0.4401814054836569,0.1048304344564472,0.3333333333333333,0.3333333333333333,0.3333333333333333,0.0,0.33333333333333315,0.33333333333333315,3.333333333333333,3.333333333333333,0.0,2.0,-1.0,3.0,0,1,0,1,0.1048304344564472
13.0,0.0,13.0,0.0,2.0,0.0,2.0,0.0,,,,left,1.1969632001128048,546.8293566000648,iz8,546.8293566000648,,541.1959734999109,543.1957739999052,True,1.0,['r'],True,0.25,0.5,0.5,2.0,2.0,0.9463946303571862,0.0910674672067901,figh_cost,0.0,0.0,543.1957739999052,,iz8,1,2022-04-21_11h28.55.000,threat_forest,2021.2.3,59.73929775023638,True,70.0,0.41666666666666663,0.4375,-1.0833333333333335,-1.2361111111111112,0,0,1,0.17978768267200634,0.0910674672067901,1.0,0.25,0.5,0.5,-0.5,-0.5,0.5,1.0,1.0,2.0,-1.0,1.0,1,1,0,0,0.625
14.0,0.0,14.0,0.0,0.0,0.0,0.0,0.0,551.2298864000477,554.729257900035,,right,1.2559233999345452,558.2966201000381,iz8,558.2966201000381,,551.2298864000477,554.729257900035,False,5.0,['r'],True,0.4,0.4,0.0,0.0,1.0,0.6126016192893442,0.049106757699623,wait_cost,0.0,4.0,,,iz8,1,2022-04-21_11h28.55.000,threat_forest,2021.2.3,59.73929775023638,False,36.0,0.41428571428571426,0.41547619047619044,-1.083673469387755,-1.0835034013605442,1,0,0,0.22787107887294492,0.049106757699623,0.4,0.4,0.4,0.0,0.20000000000000007,0.20000000000000007,5.2,5.2,1.0,1.0,-1.0,5.0,0,1,0,1,0.049106757699623
14.0,0.0,14.0,0.0,1.0,0.0,1.0,0.0,,,,left,1.4514830999542028,563.8316011999268,iz8,559.5795247999486,561.5793296999764,563.8316011999268,,False,4.0,['r'],False,0.3061224489795918,0.4285714285714285,0.2857142857142857,2.0,1.0,0.9885754083994552,0.0131354906297295,wait_cost,1.0,3.0,561.5793296999764,,iz8,1,2022-04-21_11h28.55.000,threat_forest,2021.2.3,59.73929775023638,False,36.0,0.41428571428571426,0.41547619047619044,-1.083673469387755,-1.0835034013605442,0,0,0,0.37258586125541493,0.0131354906297295,0.3061224489795918,0.3061224489795918,0.4285714285714285,0.2857142857142857,-0.5714285714285716,-0.36734693877551017,3.63265306122449,3.63265306122449,0.0,1.0,-1.0,4.0,0,1,0,0,0.0131354906297295
14.0,0.0,14.0,0.0,2.0,0.0,2.0,0.0,,,,left,0.6594704000744969,570.1297102998942,iz8,559.5795247999486,561.5793296999764,570.1297102998942,,False,3.0,['r'],False,0.3061224489795918,0.4285714285714285,0.2857142857142857,2.0,1.0,0.9885754083994552,0.0188949652252541,wait_cost,1.0,2.0,567.3127055999357,,iz8,1,2022-04-21_11h28.55.000,threat_forest,2021.2.3,59.73929775023638,False,36.0,0.41428571428571426,0.41547619047619044,-1.083673469387755,-1.0835034013605442,0,0,0,-0.4163181902057844,0.0188949652252541,0.3061224489795918,0.3061224489795918,0.4285714285714285,0.2857142857142857,-0.5714285714285716,-0.36734693877551017,2.63265306122449,2.63265306122449,0.0,1.0,-1.0,3.0,0,1,0,0,0.0188949652252541
14.0,0.0,14.0,0.0,3.0,0.0,3.0,0.0,,,,left,0.7685373001731932,576.129954099888,iz8,576.129954099888,,570.8130675000139,572.812838899903,True,2.0,['r'],True,0.4,0.4,0.0,0.0,1.0,0.6126016192893442,0.0383203665139525,succ_gain,0.0,3.0,572.812838899903,,iz8,1,2022-04-21_11h28.55.000,threat_forest,2021.2.3,59.73929775023638,True,36.0,0.41428571428571426,0.41547619047619044,-1.083673469387755,-1.0835034013605442,1,0,1,-0.26326618084666714,0.0383203665139525,0.4,0.4,0.4,0.0,0.20000000000000007,0.20000000000000007,2.2,2.2,1.0,1.0,-1.0,2.0,0,1,0,1,0.0383203665139525
14.0,0.0,14.0,0.0,4.0,0.0,4.0,0.0,,,,right,1.726691799936816,580.2638306000736,iz8,580.2638306000736,,570.8130675000139,572.812838899903,False,3.0,['r'],True,0.4,0.4,0.0,0.0,1.0,0.6126016192893442,0.1032324031653477,wait_cost,0.0,2.0,578.9297086000443,,iz8,1,2022-04-21_11h28.55.000,threat_forest,2021.2.3,59.73929775023638,False,36.0,0.41428571428571426,0.41547619047619044,-1.083673469387755,-1.0835034013605442,1,0,0,0.5462073234453082,0.1032324031653477,0.4,0.4,0.4,0.0,0.20000000000000007,0.20000000000000007,3.2,3.2,1.0,1.0,1.0,3.0,0,1,0,1,0.1032324031653477
14.0,0.0,14.0,0.0,5.0,0.0,5.0,0.0,,,,left,1.080656300066039,586.096604899969,iz8,582.0131824999116,584.0130463000387,586.096604899969,,False,2.0,['r'],False,0.3061224489795918,0.4285714285714285,0.2857142857142857,2.0,1.0,0.9885754083994552,-0.0469387755102042,wait_cost,1.0,1.0,584.0130463000387,,iz8,1,2022-04-21_11h28.55.000,threat_forest,2021.2.3,59.73929775023638,False,36.0,0.41428571428571426,0.41547619047619044,-1.083673469387755,-1.0835034013605442,0,0,0,0.0775685418165496,-0.0469387755102042,0.3061224489795918,0.3061224489795918,0.4285714285714285,0.2857142857142857,-0.5714285714285716,-0.36734693877551017,1.6326530612244898,1.6326530612244898,0.0,1.0,-1.0,2.0,0,1,0,0,-0.0469387755102042
14.0,0.0,14.0,0.0,6.0,0.0,6.0,0.0,,,,left,0.6048697999212891,592.5970733999275,iz8,592.5970733999275,,587.1967785998713,589.1963664998766,True,1.0,['r'],True,0.4,0.4,0.0,0.0,1.0,0.6126016192893442,0.4,succ_gain,0.0,2.0,589.1963664998766,,iz8,1,2022-04-21_11h28.55.000,threat_forest,2021.2.3,59.73929775023638,True,36.0,0.41428571428571426,0.41547619047619044,-1.083673469387755,-1.0835034013605442,1,0,1,-0.5027420508532603,0.4,1.0,0.4,0.4,0.0,0.20000000000000007,0.20000000000000007,1.2000000000000002,1.2000000000000002,1.0,1.0,-1.0,1.0,1,1,0,1,0.625
14.0,0.0,14.0,0.0,7.0,0.0,7.0,0.0,,,,right,0.8049581998493522,598.9305612999015,iz8,598.9305612999015,,587.1967785998713,589.1963664998766,False,2.0,['r'],True,0.4,0.4,0.0,0.0,1.0,0.6126016192893442,-0.6,wait_cost,0.0,1.0,595.2300026998855,,iz8,1,2022-04-21_11h28.55.000,threat_forest,2021.2.3,59.73929775023638,False,36.0,0.41428571428571426,0.41547619047619044,-1.083673469387755,-1.0835034013605442,1,0,0,-0.21696492856473565,-0.6,0.0,0.4,0.4,0.0,0.20000000000000007,0.20000000000000007,2.2,2.2,1.0,1.0,1.0,2.0,0,0,0,1,-0.84
15.0,0.0,15.0,0.0,0.0,0.0,0.0,0.0,604.0837820998859,607.5966878999025,,right,0.9427893001120538,610.9968514998909,iz8,610.9968514998909,,604.0837820998859,607.5966878999025,False,4.0,['r'],True,0.24,0.4,0.4,2.0,1.0,0.9801625908629508,0.0009688829723073,wait_cost,0.0,3.0,,,iz8,1,2022-04-21_11h28.55.000,threat_forest,2021.2.3,59.73929775023638,False,28.0,0.3666666666666667,0.3904761904761905,-1.3400000000000003,-1.2118367346938776,0,0,0,-0.058912457038387045,0.0009688829723073,0.24,0.24,0.4,0.4,-1.0,-0.6800000000000002,3.32,3.32,1.0,1.0,-1.0,4.0,0,1,0,0,0.0009688829723073
15.0,0.0,15.0,0.0,1.0,0.0,1.0,0.0,,,,right,1.1520467998925596,616.3135748999193,iz8,616.3135748999193,,604.0837820998859,607.5966878999025,False,3.0,['r'],True,0.24,0.4,0.4,2.0,1.0,0.9801625908629508,0.0090883802469137,wait_cost,0.0,2.0,613.9678903999738,,iz8,1,2022-04-21_11h28.55.000,threat_forest,2021.2.3,59.73929775023638,False,28.0,0.3666666666666667,0.3904761904761905,-1.3400000000000003,-1.2118367346938776,0,0,0,0.14154018635526613,0.0090883802469137,0.24,0.24,0.4,0.4,-1.0,-0.6800000000000002,2.32,2.32,1.0,1.0,-1.0,3.0,0,1,0,0,0.0090883802469137
15.0,0.0,15.0,0.0,2.0,0.0,2.0,0.0,,,,right,1.4288013000041246,622.6303469999693,iz8,622.6303469999693,,604.0837820998859,607.5966878999025,False,2.0,['r'],True,0.24,0.4,0.4,2.0,1.0,0.9801625908629508,0.0087973116049383,wait_cost,0.0,1.0,619.4968181999866,,iz8,1,2022-04-21_11h28.55.000,threat_forest,2021.2.3,59.73929775023638,False,28.0,0.3666666666666667,0.3904761904761905,-1.3400000000000003,-1.2118367346938776,0,0,0,0.3568358409969937,0.0087973116049383,0.24,0.24,0.4,0.4,-1.0,-0.6800000000000002,1.3199999999999998,1.3199999999999998,1.0,1.0,-1.0,2.0,0,1,0,0,0.0087973116049383
15.0,0.0,15.0,0.0,3.0,0.0,3.0,0.0,,,,left,0.6505638000089675,629.5137549000792,iz8,629.5137549000792,,604.0837820998859,607.5966878999025,True,1.0,['r'],True,0.24,0.4,0.4,2.0,1.0,0.9801625908629508,0.0298469688888888,unsucc_cost,0.0,0.0,626.0837254999205,,iz8,1,2022-04-21_11h28.55.000,threat_forest,2021.2.3,59.73929775023638,True,28.0,0.3666666666666667,0.3904761904761905,-1.3400000000000003,-1.2118367346938776,0,0,1,-0.429915907423935,0.0298469688888888,1.0,0.24,0.4,0.4,-1.0,-0.6800000000000002,0.31999999999999984,1.0,1.0,1.0,-1.0,1.0,1,1,0,0,0.625
16.0,0.0,16.0,0.0,0.0,0.0,0.0,0.0,634.0664580999874,637.5806376999244,,right,1.1957093998789787,640.8145063999109,iz8,634.0664580999874,637.5806376999244,640.8145063999109,,True,4.0,['r'],False,0.36,0.6,0.4,2.0,2.0,0.9801625908629508,-0.0020350304999999,figh_cost,1.0,1.0,,,iz8,1,2022-04-21_11h28.55.000,threat_forest,2021.2.3,59.73929775023638,True,67.0,0.55,0.45833333333333337,-0.4800000000000001,-0.9100000000000001,0,0,1,0.17873964931500452,-0.0020350304999999,0.36,0.36,0.6,0.4,0.19999999999999973,0.039999999999999813,4.04,4.04,0.0,2.0,-1.0,4.0,0,1,0,0,-0.0020350304999999
16.0,0.0,16.0,0.0,1.0,0.0,1.0,0.0,,,,left,0.6795500000007451,646.5478419999126,iz8,646.5478419999126,,642.0309818999376,644.0305204000324,True,1.0,['r'],True,0.5,0.5,0.0,0.0,2.0,0.6309297535714574,0.206362375,succ_gain,0.0,3.0,644.0305204000324,,iz8,1,2022-04-21_11h28.55.000,threat_forest,2021.2.3,59.73929775023638,True,67.0,0.55,0.45833333333333337,-0.4800000000000001,-0.9100000000000001,1,1,1,-0.38632446457968433,0.206362375,1.0,0.5,0.5,0.0,1.0,1.0,2.0,2.0,1.0,2.0,-1.0,1.0,1,1,1,1,0.625
16.0,0.0,16.0,0.0,2.0,0.0,2.0,0.0,,,,left,1.1597821000032127,650.5812385000754,iz8,650.5812385000754,,642.0309818999376,644.0305204000324,True,3.0,['r'],True,0.5,0.5,0.0,0.0,2.0,0.6309297535714574,0.1987499999999999,succ_gain,0.0,5.0,649.2473631000612,,iz8,1,2022-04-21_11h28.55.000,threat_forest,2021.2.3,59.73929775023638,True,67.0,0.55,0.45833333333333337,-0.4800000000000001,-0.9100000000000001,1,1,1,0.1482321426484078,0.1987499999999999,0.5,0.5,0.5,0.0,1.0,1.0,4.0,4.0,1.0,2.0,1.0,3.0,0,1,1,1,0.1987499999999999
16.0,0.0,16.0,0.0,3.0,0.0,3.0,0.0,,,,right,1.264683699933812,656.5810889001004,iz8,656.5810889001004,,642.0309818999376,644.0305204000324,False,5.0,['r'],True,0.5,0.5,0.0,0.0,2.0,0.6309297535714574,0.1069499999999999,wait_cost,0.0,4.0,653.7643110000063,,iz8,1,2022-04-21_11h28.55.000,threat_forest,2021.2.3,59.73929775023638,False,67.0,0.55,0.45833333333333337,-0.4800000000000001,-0.9100000000000001,1,1,0,0.23482205133636228,0.1069499999999999,0.5,0.5,0.5,0.0,1.0,1.0,6.0,6.0,1.0,2.0,1.0,5.0,0,1,1,1,0.1069499999999999
16.0,0.0,16.0,0.0,4.0,0.0,4.0,0.0,,,,left,0.7362087999936193,661.5979714998975,iz8,661.5979714998975,,642.0309818999376,644.0305204000324,True,4.0,['r'],True,0.5,0.5,0.0,0.0,2.0,0.6309297535714574,0.1425,succ_gain,0.0,6.0,659.8641717999708,,iz8,1,2022-04-21_11h28.55.000,threat_forest,2021.2.3,59.73929775023638,True,67.0,0.55,0.45833333333333337,-0.4800000000000001,-0.9100000000000001,1,1,1,-0.30624150484375606,0.1425,0.5,0.5,0.5,0.0,1.0,1.0,5.0,5.0,1.0,2.0,-1.0,4.0,0,1,1,1,0.1425
16.0,0.0,16.0,0.0,5.0,0.0,5.0,0.0,,,,left,0.8867288001347333,667.8312480999157,iz8,662.3645246999804,664.3642907999456,667.8312480999157,,False,6.0,['r'],False,0.36,0.6,0.4,2.0,2.0,0.9801625908629508,0.0,wait_cost,1.0,5.0,664.3642907999456,,iz8,1,2022-04-21_11h28.55.000,threat_forest,2021.2.3,59.73929775023638,False,67.0,0.55,0.45833333333333337,-0.4800000000000001,-0.9100000000000001,0,0,0,-0.12021609298973912,0.0,0.0,0.36,0.6,0.4,0.19999999999999973,0.039999999999999813,6.04,6.04,0.0,2.0,1.0,6.0,0,0,0,0,-0.84
16.0,0.0,16.0,0.0,6.0,0.0,6.0,0.0,,,,left,0.5312306000851095,672.2814366999082,iz8,662.3645246999804,664.3642907999456,672.2814366999082,,False,5.0,['r'],False,0.36,0.6,0.4,2.0,2.0,0.9801625908629508,0.0,wait_cost,1.0,4.0,670.7476917000022,,iz8,1,2022-04-21_11h28.55.000,threat_forest,2021.2.3,59.73929775023638,False,67.0,0.55,0.45833333333333337,-0.4800000000000001,-0.9100000000000001,0,0,0,-0.6325590768971429,0.0,0.0,0.36,0.6,0.4,0.19999999999999973,0.039999999999999813,5.04,5.04,0.0,2.0,-1.0,5.0,0,0,0,0,-0.84
16.0,0.0,16.0,0.0,7.0,0.0,7.0,0.0,,,,right,0.8871335999574512,677.2318724000361,iz8,677.2318724000361,,672.8314960000571,674.8310374000575,False,4.0,['r'],True,0.5,0.5,0.0,0.0,2.0,0.6309297535714574,0.0,wait_cost,0.0,3.0,674.8310374000575,,iz8,1,2022-04-21_11h28.55.000,threat_forest,2021.2.3,59.73929775023638,False,67.0,0.55,0.45833333333333337,-0.4800000000000001,-0.9100000000000001,1,1,0,-0.11975968799493941,0.0,0.0,0.5,0.5,0.0,1.0,1.0,5.0,5.0,1.0,2.0,-1.0,4.0,0,0,1,1,-0.84
17.0,0.0,17.0,0.0,0.0,0.0,0.0,0.0,682.7071553000715,686.2145430999808,,left,0.919721899786964,687.1991759000812,iz8,682.7071553000715,686.2145430999808,687.1991759000812,,False,4.0,['r'],False,0.345679012345679,0.4444444444444444,0.2222222222222222,2.0,2.0,0.9685033186841367,0.0005482667043862,wait_cost,1.0,3.0,,,iz8,1,2022-04-21_11h28.55.000,threat_forest,2021.2.3,59.73929775023638,False,52.0,0.43650793650793646,0.4932539682539683,-0.5626102292768962,-0.5213051146384482,0,0,0,-0.08368393747597451,0.0005482667043862,0.345679012345679,0.345679012345679,0.4444444444444444,0.2222222222222222,0.11111111111111105,0.16049382716049376,4.160493827160494,4.160493827160494,0.0,2.0,-1.0,4.0,0,1,0,0,0.0005482667043862
17.0,0.0,17.0,0.0,1.0,0.0,1.0,0.0,,,,left,1.168059900170192,691.8484970000573,iz8,691.8484970000573,,688.1483448999934,690.1479583000764,True,3.0,['r'],True,0.4285714285714285,0.4285714285714285,0.0,0.0,2.0,0.6216097450797565,0.1511552987655383,succ_gain,0.0,5.0,690.1479583000764,,iz8,1,2022-04-21_11h28.55.000,threat_forest,2021.2.3,59.73929775023638,True,52.0,0.43650793650793646,0.4932539682539683,-0.5626102292768962,-0.5213051146384482,1,0,1,0.15534416748332341,0.1511552987655383,0.4285714285714285,0.4285714285714285,0.4285714285714285,0.0,0.714285714285714,0.714285714285714,3.714285714285714,3.714285714285714,1.0,2.0,-1.0,3.0,0,1,0,1,0.1511552987655383
17.0,0.0,17.0,0.0,2.0,0.0,2.0,0.0,,,,right,0.8916653001215309,696.4649849999696,iz8,696.4649849999696,,688.1483448999934,690.1479583000764,False,5.0,['r'],True,0.4285714285714285,0.4285714285714285,0.0,0.0,2.0,0.6216097450797565,0.0928173353857788,wait_cost,0.0,4.0,695.0480851999018,,iz8,1,2022-04-21_11h28.55.000,threat_forest,2021.2.3,59.73929775023638,False,52.0,0.43650793650793646,0.4932539682539683,-0.5626102292768962,-0.5213051146384482,1,0,0,-0.11466444089529826,0.0928173353857788,0.4285714285714285,0.4285714285714285,0.4285714285714285,0.0,0.714285714285714,0.714285714285714,5.7142857142857135,5.7142857142857135,1.0,2.0,1.0,5.0,0,1,0,1,0.0928173353857788
17.0,0.0,17.0,0.0,3.0,0.0,3.0,0.0,,,,left,0.8610205999575555,700.3150192000903,iz8,700.3150192000903,,688.1483448999934,690.1479583000764,True,4.0,['r'],True,0.4285714285714285,0.4285714285714285,0.0,0.0,2.0,0.6216097450797565,0.0802570227908263,succ_gain,0.0,6.0,699.3814395000227,,iz8,1,2022-04-21_11h28.55.000,threat_forest,2021.2.3,59.73929775023638,True,52.0,0.43650793650793646,0.4932539682539683,-0.5626102292768962,-0.5213051146384482,1,0,1,-0.1496368492220879,0.0802570227908263,0.4285714285714285,0.4285714285714285,0.4285714285714285,0.0,0.714285714285714,0.714285714285714,4.7142857142857135,4.7142857142857135,1.0,2.0,-1.0,4.0,0,1,0,1,0.0802570227908263
17.0,0.0,17.0,0.0,4.0,0.0,4.0,0.0,,,,left,0.6488781999796629,705.7349606000353,iz8,701.1983807000797,703.1981575998943,705.7349606000353,,False,6.0,['r'],False,0.345679012345679,0.4444444444444444,0.2222222222222222,2.0,2.0,0.9685033186841367,-0.0930287575071689,wait_cost,1.0,5.0,703.1981575998943,,iz8,1,2022-04-21_11h28.55.000,threat_forest,2021.2.3,59.73929775023638,False,52.0,0.43650793650793646,0.4932539682539683,-0.5626102292768962,-0.5213051146384482,0,0,0,-0.4325102532658402,-0.0930287575071689,0.0,0.345679012345679,0.4444444444444444,0.2222222222222222,0.11111111111111105,0.16049382716049376,6.160493827160494,6.160493827160494,0.0,2.0,1.0,6.0,0,0,0,0,-0.84
17.0,0.0,17.0,0.0,5.0,0.0,5.0,0.0,,,,right,0.5670535999815911,711.781930499943,iz8,711.781930499943,,706.4151772998739,708.4147960999981,False,5.0,['r'],True,0.4285714285714285,0.4285714285714285,0.0,0.0,2.0,0.6216097450797565,0.0,wait_cost,0.0,4.0,708.4147960999981,,iz8,1,2022-04-21_11h28.55.000,threat_forest,2021.2.3,59.73929775023638,False,52.0,0.43650793650793646,0.4932539682539683,-0.5626102292768962,-0.5213051146384482,1,0,0,-0.5673014471269104,0.0,0.0,0.4285714285714285,0.4285714285714285,0.0,0.714285714285714,0.714285714285714,5.7142857142857135,5.7142857142857135,1.0,2.0,-1.0,5.0,0,0,0,1,-0.84
17.0,0.0,17.0,0.0,6.0,0.0,6.0,0.0,,,,right,0.6158863001037389,717.7818913999945,iz8,717.7818913999945,,706.4151772998739,708.4147960999981,False,4.0,['r'],True,0.4285714285714285,0.4285714285714285,0.0,0.0,2.0,0.6216097450797565,0.0,wait_cost,0.0,3.0,714.3649033999536,,iz8,1,2022-04-21_11h28.55.000,threat_forest,2021.2.3,59.73929775023638,False,52.0,0.43650793650793646,0.4932539682539683,-0.5626102292768962,-0.5213051146384482,1,0,0,-0.48469291023885785,0.0,0.0,0.4285714285714285,0.4285714285714285,0.0,0.714285714285714,0.714285714285714,4.7142857142857135,4.7142857142857135,1.0,2.0,-1.0,4.0,0,0,0,1,-0.84
17.0,0.0,17.0,0.0,7.0,0.0,7.0,0.0,,,,right,0.661105299834162,722.165619000094,iz8,722.165619000094,,706.4151772998739,708.4147960999981,False,3.0,['r'],True,0.4285714285714285,0.4285714285714285,0.0,0.0,2.0,0.6216097450797565,0.0,wait_cost,0.0,2.0,720.4152214000933,,iz8,1,2022-04-21_11h28.55.000,threat_forest,2021.2.3,59.73929775023638,False,52.0,0.43650793650793646,0.4932539682539683,-0.5626102292768962,-0.5213051146384482,1,0,0,-0.4138421479841285,0.0,0.0,0.4285714285714285,0.4285714285714285,0.0,0.714285714285714,0.714285714285714,3.714285714285714,3.714285714285714,1.0,2.0,-1.0,3.0,0,0,0,1,-0.84
0.0,0.0,0.0,0.0,0.0,0.0,0.0,0.0,18.514010700164363,22.015705400146544,,right,0.9432210999075324,22.99287600000389,iz8,18.514010700164363,22.015705400146544,22.99287600000389,,True,5.0,['p'],False,0.5,0.5,0.0,0.0,1.0,0.6309297535714574,0.0772781267414693,succ_gain,1.0,6.0,,,iz8,2,2022-04-21_11h42.20.437,threat_forest,2021.2.3,60.012266544794215,True,30.0,0.5833333333333333,0.5099206349206349,-1.25,-0.9063051146384481,1,0,1,-0.05845455945413317,0.0772781267414693,0.5,0.5,0.5,0.0,0.5,0.5,5.5,5.5,0.0,1.0,-1.0,5.0,0,1,0,1,0.0772781267414693
0.0,0.0,0.0,0.0,1.0,0.0,1.0,0.0,,,,left,0.4072920000180602,27.982439400162548,iz8,18.514010700164363,22.015705400146544,27.982439400162548,,False,6.0,['p'],False,0.5,0.5,0.0,0.0,1.0,0.6309297535714574,-0.0479600694444443,wait_cost,1.0,5.0,25.965699300169945,,iz8,2,2022-04-21_11h42.20.437,threat_forest,2021.2.3,60.012266544794215,False,30.0,0.5833333333333333,0.5099206349206349,-1.25,-0.9063051146384481,1,0,0,-0.8982249060181866,-0.0479600694444443,0.5,0.5,0.5,0.0,0.5,0.5,6.5,6.5,0.0,1.0,1.0,6.0,0,1,0,1,-0.0479600694444443
0.0,0.0,0.0,0.0,2.0,0.0,2.0,0.0,,,,left,1.4644934998359531,33.98235320020467,iz8,18.514010700164363,22.015705400146544,33.98235320020467,,False,5.0,['p'],False,0.5,0.5,0.0,0.0,1.0,0.6309297535714574,0.0967881944444444,wait_cost,1.0,4.0,30.415432000067085,,iz8,2,2022-04-21_11h42.20.437,threat_forest,2021.2.3,60.012266544794215,False,30.0,0.5833333333333333,0.5099206349206349,-1.25,-0.9063051146384481,1,0,0,0.3815094487889134,0.0967881944444444,0.5,0.5,0.5,0.0,0.5,0.5,5.5,5.5,0.0,1.0,-1.0,5.0,0,1,0,1,0.0967881944444444
0.0,0.0,0.0,0.0,3.0,0.0,3.0,0.0,,,,right,0.6948277000337839,39.69949270016514,iz8,18.514010700164363,22.015705400146544,39.69949270016514,,True,4.0,['p'],False,0.5,0.5,0.0,0.0,1.0,0.6309297535714574,0.1041666666666666,succ_gain,1.0,5.0,37.46559250005521,,iz8,2,2022-04-21_11h42.20.437,threat_forest,2021.2.3,60.012266544794215,True,30.0,0.5833333333333333,0.5099206349206349,-1.25,-0.9063051146384481,1,0,1,-0.3640913777734613,0.1041666666666666,0.5,0.5,0.5,0.0,0.5,0.5,4.5,4.5,0.0,1.0,-1.0,4.0,0,1,0,1,0.1041666666666666
0.0,0.0,0.0,0.0,4.0,0.0,4.0,0.0,,,,right,0.9311975000891834,45.91688899998553,iz8,45.91688899998553,,40.41607690020464,42.41569500020705,False,5.0,['p'],True,0.2222222222222222,0.6666666666666666,0.6666666666666666,2.0,1.0,0.77250688571426,-0.4290123456790123,wait_cost,0.0,4.0,42.41569500020705,,iz8,2,2022-04-21_11h42.20.437,threat_forest,2021.2.3,60.012266544794215,False,30.0,0.5833333333333333,0.5099206349206349,-1.25,-0.9063051146384481,0,0,0,-0.07128388662069843,-0.4290123456790123,0.0,0.2222222222222222,0.6666666666666666,0.6666666666666666,-1.0,-1.0,4.0,4.0,1.0,1.0,1.0,5.0,0,0,0,0,-0.84
0.0,0.0,0.0,0.0,5.0,0.0,5.0,0.0,,,,right,0.987974800169468,49.41593640018255,iz8,49.41593640018255,,40.41607690020464,42.41569500020705,False,4.0,['p'],True,0.2222222222222222,0.6666666666666666,0.6666666666666666,2.0,1.0,0.77250688571426,-0.4891975308641975,wait_cost,0.0,3.0,48.86575310002081,,iz8,2,2022-04-21_11h42.20.437,threat_forest,2021.2.3,60.012266544794215,False,30.0,0.5833333333333333,0.5099206349206349,-1.25,-0.9063051146384481,0,0,0,-0.01209808746089841,-0.4891975308641975,0.0,0.2222222222222222,0.6666666666666666,0.6666666666666666,-1.0,-1.0,3.0,3.0,1.0,1.0,-1.0,4.0,0,0,0,0,-0.84
0.0,0.0,0.0,0.0,6.0,0.0,6.0,0.0,,,,right,0.9826106000691652,54.9831383000128,iz8,50.4326153001748,52.43263990012929,54.9831383000128,,True,3.0,['p'],False,0.5,0.5,0.0,0.0,1.0,0.6309297535714574,-0.3194444444444444,succ_gain,1.0,4.0,52.43263990012929,,iz8,2,2022-04-21_11h42.20.437,threat_forest,2021.2.3,60.012266544794215,True,30.0,0.5833333333333333,0.5099206349206349,-1.25,-0.9063051146384481,1,0,1,-0.017542371529300917,-0.3194444444444444,0.0,0.5,0.5,0.0,0.5,0.5,3.5,3.5,0.0,1.0,-1.0,3.0,0,0,0,1,-0.84
0.0,0.0,0.0,0.0,7.0,0.0,7.0,0.0,,,,right,0.5331053000409156,58.88309979997575,iz8,58.88309979997575,,55.983171000145376,57.98255060007796,False,4.0,['p'],True,0.2222222222222222,0.6666666666666666,0.6666666666666666,2.0,1.0,0.77250688571426,0.0,wait_cost,0.0,3.0,57.98255060007796,,iz8,2,2022-04-21_11h42.20.437,threat_forest,2021.2.3,60.012266544794215,False,30.0,0.5833333333333333,0.5099206349206349,-1.25,-0.9063051146384481,0,0,0,-0.6290363132765328,0.0,0.0,0.2222222222222222,0.6666666666666666,0.6666666666666666,-1.0,-1.0,3.0,3.0,1.0,1.0,1.0,4.0,0,0,0,0,-0.84
1.0,0.0,1.0,0.0,0.0,0.0,0.0,0.0,63.51205840008333,67.01642150012776,,left,0.7615443000104278,69.01813690015115,iz8,69.01813690015115,,63.51205840008333,67.01642150012776,True,4.0,['p'],True,0.18,0.2,0.1,1.0,2.0,0.7058405977926203,-0.0041239600981238,unsucc_cost,0.0,2.0,,,iz8,2,2022-04-21_11h42.20.437,threat_forest,2021.2.3,60.012266544794215,True,41.0,0.43333333333333335,0.5083333333333333,-0.9677777777777778,-1.108888888888889,0,0,1,-0.27240693367002156,-0.0041239600981238,0.18,0.18,0.2,0.1,-0.5000000000000002,-0.3800000000000001,3.62,3.62,1.0,2.0,-1.0,4.0,0,1,0,0,-0.0041239600981238
1.0,0.0,1.0,0.0,1.0,0.0,1.0,0.0,,,,right,1.2683568000793457,74.79978900006972,iz8,69.7999081001617,71.79942540009506,74.79978900006972,,True,2.0,['p'],False,0.4444444444444445,0.6666666666666666,0.3333333333333333,1.0,2.0,0.9656336071428248,0.080594732377517,succ_gain,1.0,4.0,71.79942540009506,,iz8,2,2022-04-21_11h42.20.437,threat_forest,2021.2.3,60.012266544794215,True,41.0,0.43333333333333335,0.5083333333333333,-0.9677777777777778,-1.108888888888889,1,0,1,0.23772220450802867,0.080594732377517,0.4444444444444445,0.4444444444444445,0.6666666666666666,0.3333333333333333,0.6666666666666665,0.4444444444444444,2.4444444444444446,2.4444444444444446,0.0,2.0,-1.0,2.0,0,1,0,1,0.080594732377517
1.0,0.0,1.0,0.0,2.0,0.0,2.0,0.0,,,,right,0.5071922999341041,80.13406609999947,iz8,80.13406609999947,,76.09974270011298,78.09949810011312,False,4.0,['p'],True,0.18,0.2,0.1,1.0,2.0,0.7058405977926203,-0.0920582784697455,wait_cost,0.0,3.0,78.09949810011312,,iz8,2,2022-04-21_11h42.20.437,threat_forest,2021.2.3,60.012266544794215,False,41.0,0.43333333333333335,0.5083333333333333,-0.9677777777777778,-1.108888888888889,0,0,0,-0.6788650574922949,-0.0920582784697455,0.18,0.18,0.2,0.1,-0.5000000000000002,-0.3800000000000001,3.62,3.62,1.0,2.0,1.0,4.0,0,1,0,0,-0.0920582784697455
1.0,0.0,1.0,0.0,3.0,0.0,3.0,0.0,,,,right,1.4661307001952082,83.40015710005537,iz8,83.40015710005537,,76.09974270011298,78.09949810011312,False,3.0,['p'],True,0.18,0.2,0.1,1.0,2.0,0.7058405977926203,-0.0950796404938273,wait_cost,0.0,2.0,82.66616140003316,,iz8,2,2022-04-21_11h42.20.437,threat_forest,2021.2.3,60.012266544794215,False,41.0,0.43333333333333335,0.5083333333333333,-0.9677777777777778,-1.108888888888889,0,0,0,0.38262675378459116,-0.0950796404938273,0.18,0.18,0.2,0.1,-0.5000000000000002,-0.3800000000000001,2.62,2.62,1.0,2.0,-1.0,3.0,0,1,0,0,-0.0950796404938273
1.0,0.0,1.0,0.0,4.0,0.0,4.0,0.0,,,,right,1.047121600015089,88.2668434001971,iz8,84.88322690012865,86.88295660004951,88.2668434001971,,True,2.0,['p'],False,0.4444444444444445,0.6666666666666666,0.3333333333333333,1.0,2.0,0.9656336071428248,0.1322222222222222,fight_cost,1.0,0.0,86.88295660004951,,iz8,2,2022-04-21_11h42.20.437,threat_forest,2021.2.3,60.012266544794215,True,41.0,0.43333333333333335,0.5083333333333333,-0.9677777777777778,-1.108888888888889,1,0,1,0.04604506651518051,0.1322222222222222,0.4444444444444445,0.4444444444444445,0.6666666666666666,0.3333333333333333,0.6666666666666665,0.4444444444444444,2.4444444444444446,2.4444444444444446,0.0,2.0,-1.0,2.0,0,1,0,1,0.1322222222222222
2.0,0.0,2.0,0.0,0.0,0.0,0.0,0.0,93.97491009999068,97.483090700116,,left,1.1653728000819683,100.167941900203,iz8,100.167941900203,,93.97491009999068,97.483090700116,True,4.0,['r'],True,0.3950617283950617,0.4444444444444444,0.1111111111111111,1.0,2.0,0.8733423231021583,0.0168321275219163,succ_gain,0.0,6.0,,,iz8,2,2022-04-21_11h42.20.437,threat_forest,2021.2.3,60.012266544794215,True,51.0,0.5555555555555556,0.49444444444444446,-0.2376543209876542,-0.6027160493827161,1,0,1,0.15304103589892049,0.0168321275219163,0.3950617283950617,0.3950617283950617,0.4444444444444444,0.1111111111111111,0.4444444444444444,0.4691358024691359,4.469135802469136,4.469135802469136,1.0,2.0,-1.0,4.0,0,1,0,1,0.0168321275219163
2.0,0.0,2.0,0.0,1.0,0.0,1.0,0.0,,,,left,1.2202619998715818,106.6671327999793,iz8,101.3520043999888,103.3665542001836,106.6671327999793,,False,6.0,['r'],False,0.5555555555555556,0.6666666666666666,0.1666666666666666,1.0,2.0,0.8929352898779306,-0.0252043745840764,wait_cost,1.0,5.0,103.3665542001836,,iz8,2,2022-04-21_11h42.20.437,threat_forest,2021.2.3,60.012266544794215,False,51.0,0.5555555555555556,0.49444444444444446,-0.2376543209876542,-0.6027160493827161,1,1,0,0.19906558968192714,-0.0252043745840764,0.5555555555555556,0.5555555555555556,0.6666666666666666,0.1666666666666666,1.1666666666666667,1.0555555555555558,7.055555555555555,7.0,0.0,2.0,1.0,6.0,0,1,1,1,-0.0252043745840764
2.0,0.0,2.0,0.0,2.0,0.0,2.0,0.0,,,,left,1.1526694998610765,112.0003502999898,iz8,101.3520043999888,103.3665542001836,112.0003502999898,,False,5.0,['r'],False,0.5555555555555556,0.6666666666666666,0.1666666666666666,1.0,2.0,0.8929352898779306,0.0638481739499262,wait_cost,1.0,4.0,109.9166834000498,,iz8,2,2022-04-21_11h42.20.437,threat_forest,2021.2.3,60.012266544794215,False,51.0,0.5555555555555556,0.49444444444444446,-0.2376543209876542,-0.6027160493827161,1,1,0,0.14208055653769228,0.0638481739499262,0.5555555555555556,0.5555555555555556,0.6666666666666666,0.1666666666666666,1.1666666666666667,1.0555555555555558,6.055555555555555,6.055555555555555,0.0,2.0,-1.0,5.0,0,1,1,1,0.0638481739499262
2.0,0.0,2.0,0.0,3.0,0.0,3.0,0.0,,,,right,0.6286552001256496,116.73365930002184,iz8,101.3520043999888,103.3665542001836,116.73365930002184,,True,4.0,['r'],False,0.5555555555555556,0.6666666666666666,0.1666666666666666,1.0,2.0,0.8929352898779306,0.0922269397418213,fight_cost,1.0,1.0,115.20009570010006,,iz8,2,2022-04-21_11h42.20.437,threat_forest,2021.2.3,60.012266544794215,True,51.0,0.5555555555555556,0.49444444444444446,-0.2376543209876542,-0.6027160493827161,1,1,1,-0.4641723440839756,0.0922269397418213,0.5555555555555556,0.5555555555555556,0.6666666666666666,0.1666666666666666,1.1666666666666667,1.0555555555555558,5.055555555555555,5.055555555555555,0.0,2.0,-1.0,4.0,0,1,1,1,0.0922269397418213
2.0,0.0,2.0,0.0,4.0,0.0,4.0,0.0,,,,left,1.1891203001141548,120.96765910019168,iz8,120.96765910019168,,117.38384710019454,119.38345149997622,True,1.0,['r'],True,0.3950617283950617,0.4444444444444444,0.1111111111111111,1.0,2.0,0.8733423231021583,0.2602207959114935,succ_gain,0.0,3.0,119.38345149997622,,iz8,2,2022-04-21_11h42.20.437,threat_forest,2021.2.3,60.012266544794215,True,51.0,0.5555555555555556,0.49444444444444446,-0.2376543209876542,-0.6027160493827161,1,0,1,0.17321379014660063,0.2602207959114935,1.0,0.3950617283950617,0.4444444444444444,0.1111111111111111,0.4444444444444444,0.4691358024691359,1.4691358024691359,1.4691358024691359,1.0,2.0,-1.0,1.0,1,1,0,1,0.625
2.0,0.0,2.0,0.0,5.0,0.0,5.0,0.0,,,,right,1.4641747998539358,126.31766490009612,iz8,126.31766490009612,,117.38384710019454,119.38345149997622,False,3.0,['r'],True,0.3950617283950617,0.4444444444444444,0.1111111111111111,1.0,2.0,0.8733423231021583,0.1143499466544734,wait_cost,0.0,2.0,124.18353610020132,,iz8,2,2022-04-21_11h42.20.437,threat_forest,2021.2.3,60.012266544794215,False,51.0,0.5555555555555556,0.49444444444444446,-0.2376543209876542,-0.6027160493827161,1,0,0,0.38129180721898276,0.1143499466544734,0.3950617283950617,0.3950617283950617,0.4444444444444444,0.1111111111111111,0.4444444444444444,0.4691358024691359,3.469135802469136,3.469135802469136,1.0,2.0,1.0,3.0,0,1,0,1,0.1143499466544734
2.0,0.0,2.0,0.0,6.0,0.0,6.0,0.0,,,,left,1.0724990000016987,131.501237800112,iz8,131.501237800112,,117.38384710019454,119.38345149997622,True,2.0,['r'],True,0.3950617283950617,0.4444444444444444,0.1111111111111111,1.0,2.0,0.8733423231021583,-0.0802469135802469,unsucc_cost,0.0,0.0,129.8002923000604,,iz8,2,2022-04-21_11h42.20.437,threat_forest,2021.2.3,60.012266544794215,True,51.0,0.5555555555555556,0.49444444444444446,-0.2376543209876542,-0.6027160493827161,1,0,1,0.0699914394202518,-0.0802469135802469,0.3950617283950617,0.3950617283950617,0.4444444444444444,0.1111111111111111,0.4444444444444444,0.4691358024691359,2.469135802469136,2.469135802469136,1.0,2.0,-1.0,2.0,0,1,0,1,-0.0802469135802469
3.0,0.0,3.0,0.0,0.0,0.0,0.0,0.0,136.59182620001957,140.10042580007575,,right,0.7688708000350744,141.78418459999375,iz8,136.59182620001957,140.10042580007575,141.78418459999375,,True,4.0,['r'],False,0.375,0.5,0.25,1.0,1.0,0.9850568223215076,0.033201148802433,succ_gain,1.0,5.0,,,iz8,2,2022-04-21_11h42.20.437,threat_forest,2021.2.3,60.012266544794215,True,11.0,0.35,0.4527777777777778,-1.3425000000000002,-0.7900771604938273,0,0,1,-0.2628323339493248,0.033201148802433,0.375,0.375,0.5,0.25,-0.25,-0.125,3.875,3.875,0.0,1.0,-1.0,4.0,0,1,0,0,0.033201148802433
3.0,0.0,3.0,0.0,1.0,0.0,1.0,0.0,,,,right,1.158459500176832,145.1701175000053,iz8,145.1701175000053,,142.5842892001383,144.58381920005195,False,5.0,['r'],True,0.18,0.2,0.1,1.0,1.0,0.7058405977926203,-0.0087577279321289,wait_cost,0.0,4.0,144.58381920005195,,iz8,2,2022-04-21_11h42.20.437,threat_forest,2021.2.3,60.012266544794215,False,11.0,0.35,0.4527777777777778,-1.3425000000000002,-0.7900771604938273,0,0,0,0.14709110543315274,-0.0087577279321289,0.18,0.18,0.2,0.1,-0.7000000000000002,-0.5600000000000003,4.4399999999999995,4.4399999999999995,1.0,1.0,1.0,5.0,0,1,0,0,-0.0087577279321289
3.0,0.0,3.0,0.0,2.0,0.0,2.0,0.0,,,,right,0.820884000044316,150.7344832001254,iz8,150.7344832001254,,142.5842892001383,144.58381920005195,False,4.0,['r'],True,0.18,0.2,0.1,1.0,1.0,0.7058405977926203,-0.0038789942871094,wait_cost,0.0,3.0,148.3505931000691,,iz8,2,2022-04-21_11h42.20.437,threat_forest,2021.2.3,60.012266544794215,False,11.0,0.35,0.4527777777777778,-1.3425000000000002,-0.7900771604938273,0,0,0,-0.1973734705666564,-0.0038789942871094,0.18,0.18,0.2,0.1,-0.7000000000000002,-0.5600000000000003,3.4399999999999995,3.4399999999999995,1.0,1.0,-1.0,4.0,0,1,0,0,-0.0038789942871094
3.0,0.0,3.0,0.0,3.0,0.0,3.0,0.0,,,,right,0.4622881000395864,155.80114570003934,iz8,155.80114570003934,,142.5842892001383,144.58381920005195,False,3.0,['r'],True,0.18,0.2,0.1,1.0,1.0,0.7058405977926203,0.0248459765624998,wait_cost,0.0,2.0,153.58399579999968,,iz8,2,2022-04-21_11h42.20.437,threat_forest,2021.2.3,60.012266544794215,False,11.0,0.35,0.4527777777777778,-1.3425000000000002,-0.7900771604938273,0,0,0,-0.7715669890945402,0.0248459765624998,0.18,0.18,0.2,0.1,-0.7000000000000002,-0.5600000000000003,2.4399999999999995,2.4399999999999995,1.0,1.0,-1.0,3.0,0,1,0,0,0.0248459765624998
3.0,0.0,3.0,0.0,4.0,0.0,4.0,0.0,,,,right,0.9111775001510978,161.1676754001528,iz8,161.1676754001528,,142.5842892001383,144.58381920005195,False,2.0,['r'],True,0.18,0.2,0.1,1.0,1.0,0.7058405977926203,-0.01323675,wait_cost,0.0,1.0,158.28404190018773,,iz8,2,2022-04-21_11h42.20.437,threat_forest,2021.2.3,60.012266544794215,False,11.0,0.35,0.4527777777777778,-1.3425000000000002,-0.7900771604938273,0,0,0,-0.09301755970111385,-0.01323675,0.18,0.18,0.2,0.1,-0.7000000000000002,-0.5600000000000003,1.4399999999999997,1.4399999999999997,1.0,1.0,-1.0,2.0,0,1,0,0,-0.01323675
3.0,0.0,3.0,0.0,5.0,0.0,5.0,0.0,,,,left,0.683275599963963,167.784483600175,iz8,167.784483600175,,142.5842892001383,144.58381920005195,True,1.0,['r'],True,0.18,0.2,0.1,1.0,1.0,0.7058405977926203,0.0587249999999999,succ_gain,0.0,2.0,164.1008014001418,,iz8,2,2022-04-21_11h42.20.437,threat_forest,2021.2.3,60.012266544794215,True,11.0,0.35,0.4527777777777778,-1.3425000000000002,-0.7900771604938273,0,0,1,-0.38085698694470804,0.0587249999999999,1.0,0.18,0.2,0.1,-0.7000000000000002,-0.5600000000000003,0.4399999999999997,1.0,1.0,1.0,-1.0,1.0,1,1,0,0,0.625
3.0,0.0,3.0,0.0,6.0,0.0,6.0,0.0,,,,right,0.6997454999946058,172.401340899989,iz8,172.401340899989,,142.5842892001383,144.58381920005195,False,2.0,['r'],True,0.18,0.2,0.1,1.0,1.0,0.7058405977926203,-0.0975,wait_cost,0.0,1.0,170.4842144001741,,iz8,2,2022-04-21_11h42.20.437,threat_forest,2021.2.3,60.012266544794215,False,11.0,0.35,0.4527777777777778,-1.3425000000000002,-0.7900771604938273,0,0,0,-0.35703858148312834,-0.0975,0.18,0.18,0.2,0.1,-0.7000000000000002,-0.5600000000000003,1.4399999999999997,1.4399999999999997,1.0,1.0,1.0,2.0,0,1,0,0,-0.0975
3.0,0.0,3.0,0.0,7.0,0.0,7.0,0.0,,,,left,1.4918198001105338,177.96821640012786,iz8,173.11806690017693,175.11764250020497,177.96821640012786,,False,1.0,['r'],False,0.375,0.5,0.25,1.0,1.0,0.9850568223215076,0.375,wait_cost,1.0,0.0,175.11764250020497,,iz8,2,2022-04-21_11h42.20.437,threat_forest,2021.2.3,60.012266544794215,False,11.0,0.35,0.4527777777777778,-1.3425000000000002,-0.7900771604938273,0,0,0,0.39999671708158246,0.375,1.0,0.375,0.5,0.25,-0.25,-0.125,0.875,1.0,0.0,1.0,-1.0,1.0,1,1,0,0,0.625
4.0,0.0,4.0,0.0,0.0,0.0,0.0,0.0,184.2950756000355,187.80114680016413,,right,1.6444165001157671,190.33556540007703,iz8,190.33556540007703,,184.2950756000355,187.80114680016413,False,4.0,['r'],True,0.2857142857142857,0.2857142857142857,0.0,0.0,2.0,0.5445684476282007,0.0227016800734137,wait_cost,0.0,3.0,,,iz8,2,2022-04-21_11h42.20.437,threat_forest,2021.2.3,60.012266544794215,False,55.0,0.2928571428571428,0.3214285714285714,-1.0485714285714285,-1.1955357142857144,1,0,0,0.4973856101166201,0.0227016800734137,0.2857142857142857,0.2857142857142857,0.2857142857142857,0.0,0.1428571428571428,0.1428571428571428,4.142857142857142,4.142857142857142,1.0,2.0,-1.0,4.0,0,1,0,1,0.0227016800734137
4.0,0.0,4.0,0.0,1.0,0.0,1.0,0.0,,,,right,1.875227800104767,194.6865394001361,iz8,192.0014839000069,194.00125090009533,194.6865394001361,,True,3.0,['r'],False,0.24,0.3,0.2,2.0,2.0,0.9003120349047065,0.0453145987444508,succ_gain,1.0,5.0,194.00125090009533,,iz8,2,2022-04-21_11h42.20.437,threat_forest,2021.2.3,60.012266544794215,True,55.0,0.2928571428571428,0.3214285714285714,-1.0485714285714285,-1.1955357142857144,0,0,1,0.6287301454318591,0.0453145987444508,0.24,0.24,0.3,0.2,-0.3999999999999999,-0.24,2.76,2.76,0.0,2.0,-1.0,3.0,0,1,0,0,0.0453145987444508
4.0,0.0,4.0,0.0,2.0,0.0,2.0,0.0,,,,right,0.8736285998020321,202.1018656999804,iz8,202.1018656999804,,196.5849339000415,198.58468129998076,False,5.0,['r'],True,0.2857142857142857,0.2857142857142857,0.0,0.0,2.0,0.5445684476282007,0.0689652861783781,wait_cost,0.0,4.0,198.58468129998076,,iz8,2,2022-04-21_11h42.20.437,threat_forest,2021.2.3,60.012266544794215,False,55.0,0.2928571428571428,0.3214285714285714,-1.0485714285714285,-1.1955357142857144,1,0,0,-0.1350999366587423,0.0689652861783781,0.2857142857142857,0.2857142857142857,0.2857142857142857,0.0,0.1428571428571428,0.1428571428571428,5.142857142857142,5.142857142857142,1.0,2.0,1.0,5.0,0,1,0,1,0.0689652861783781
4.0,0.0,4.0,0.0,3.0,0.0,3.0,0.0,,,,right,1.2114062001928687,208.5018812001217,iz8,208.5018812001217,,196.5849339000415,198.58468129998076,False,4.0,['r'],True,0.2857142857142857,0.2857142857142857,0.0,0.0,2.0,0.5445684476282007,0.0512979591836735,wait_cost,0.0,3.0,205.00151960016228,,iz8,2,2022-04-21_11h42.20.437,threat_forest,2021.2.3,60.012266544794215,False,55.0,0.2928571428571428,0.3214285714285714,-1.0485714285714285,-1.1955357142857144,1,0,0,0.19178183375606012,0.0512979591836735,0.2857142857142857,0.2857142857142857,0.2857142857142857,0.0,0.1428571428571428,0.1428571428571428,4.142857142857142,4.142857142857142,1.0,2.0,-1.0,4.0,0,1,0,1,0.0512979591836735
4.0,0.0,4.0,0.0,4.0,0.0,4.0,0.0,,,,left,1.362870799843222,215.00338140013628,iz8,209.7351023000665,211.73488570004704,215.00338140013628,,False,3.0,['r'],False,0.24,0.3,0.2,2.0,2.0,0.9003120349047065,0.1129142857142858,wait_cost,1.0,2.0,211.73488570004704,,iz8,2,2022-04-21_11h42.20.437,threat_forest,2021.2.3,60.012266544794215,False,55.0,0.2928571428571428,0.3214285714285714,-1.0485714285714285,-1.1955357142857144,0,0,0,0.3095933572039977,0.1129142857142858,0.24,0.24,0.3,0.2,-0.3999999999999999,-0.24,2.76,2.76,0.0,2.0,-1.0,3.0,0,1,0,0,0.1129142857142858
4.0,0.0,4.0,0.0,5.0,0.0,5.0,0.0,,,,right,0.8139253000263125,219.55206210003237,iz8,209.7351023000665,211.73488570004704,219.55206210003237,,True,2.0,['r'],False,0.24,0.3,0.2,2.0,2.0,0.9003120349047065,-0.0228571428571429,unsucc_cost,1.0,0.0,218.38497090013695,,iz8,2,2022-04-21_11h42.20.437,threat_forest,2021.2.3,60.012266544794215,True,55.0,0.2928571428571428,0.3214285714285714,-1.0485714285714285,-1.1955357142857144,0,0,1,-0.20588668620007408,-0.0228571428571429,0.24,0.24,0.3,0.2,-0.3999999999999999,-0.24,1.76,1.76,0.0,2.0,-1.0,2.0,0,1,0,0,-0.0228571428571429
5.0,0.0,5.0,0.0,0.0,0.0,0.0,0.0,226.14306470006704,229.65177670004775,,left,1.4566474000457674,231.25239949999377,iz8,226.14306470006704,229.65177670004775,231.25239949999377,,False,5.0,['p'],False,0.25,0.5,0.5,1.0,2.0,0.9463946303571862,-0.0007067709743359,wait_cost,1.0,4.0,,,iz8,2,2022-04-21_11h42.20.437,threat_forest,2021.2.3,60.012266544794215,False,8.0,0.35,0.3214285714285714,-1.5300000000000002,-1.2892857142857144,0,0,0,0.37613749383871486,-0.0007067709743359,0.25,0.25,0.5,0.5,-0.5,-0.5,4.5,4.5,0.0,2.0,-1.0,5.0,0,1,0,0,-0.0007067709743359
5.0,0.0,5.0,0.0,1.0,0.0,1.0,0.0,,,,right,0.9272147000301628,236.86882950016297,iz8,226.14306470006704,229.65177670004775,236.86882950016297,,True,4.0,['p'],False,0.25,0.5,0.5,1.0,2.0,0.9463946303571862,0.039918694078125,fight_cost,1.0,1.0,234.73522919998504,,iz8,2,2022-04-21_11h42.20.437,threat_forest,2021.2.3,60.012266544794215,True,8.0,0.35,0.3214285714285714,-1.5300000000000002,-1.2892857142857144,0,0,1,-0.07557013286509885,0.039918694078125,0.25,0.25,0.5,0.5,-0.5,-0.5,3.5,3.5,0.0,2.0,-1.0,4.0,0,1,0,0,0.039918694078125
5.0,0.0,5.0,0.0,2.0,0.0,2.0,0.0,,,,right,0.6553184001240879,240.50216130004264,iz8,226.14306470006704,229.65177670004775,240.50216130004264,,True,1.0,['p'],False,0.25,0.5,0.5,1.0,2.0,0.9463946303571862,0.0615851914062499,fight_cost,1.0,0.0,239.8185382001102,,iz8,2,2022-04-21_11h42.20.437,threat_forest,2021.2.3,60.012266544794215,True,8.0,0.35,0.3214285714285714,-1.5300000000000002,-1.2892857142857144,0,0,1,-0.42263405439897056,0.0615851914062499,1.0,0.25,0.5,0.5,-0.5,-0.5,0.5,1.0,0.0,2.0,-1.0,1.0,1,1,0,0,0.625
6.0,0.0,6.0,0.0,0.0,0.0,0.0,0.0,244.5392574002035,248.0520987000782,,right,0.9253873999696224,249.3189970999956,iz8,249.3189970999956,,244.5392574002035,248.0520987000782,False,4.0,['r'],True,0.4081632653061224,0.5714285714285714,0.2857142857142857,2.0,1.0,0.9885754083994552,0.0257810571799274,wait_cost,0.0,3.0,,,iz8,2,2022-04-21_11h42.20.437,threat_forest,2021.2.3,60.012266544794215,False,27.0,0.5357142857142857,0.44285714285714284,-0.7806122448979592,-1.1553061224489798,1,0,0,-0.07754281836849647,0.0257810571799274,0.4081632653061224,0.4081632653061224,0.5714285714285714,0.2857142857142857,-0.1428571428571428,-0.061224489795918435,3.9387755102040813,3.9387755102040813,1.0,1.0,-1.0,4.0,0,1,0,1,0.0257810571799274
6.0,0.0,6.0,0.0,1.0,0.0,1.0,0.0,,,,right,1.3334220999386162,255.4693706000689,iz8,255.4693706000689,,244.5392574002035,248.0520987000782,False,3.0,['r'],True,0.4081632653061224,0.5714285714285714,0.2857142857142857,2.0,1.0,0.9885754083994552,0.0362058160775727,wait_cost,0.0,2.0,252.26881929999217,,iz8,2,2022-04-21_11h42.20.437,threat_forest,2021.2.3,60.012266544794215,False,27.0,0.5357142857142857,0.44285714285714284,-0.7806122448979592,-1.1553061224489798,1,0,0,0.28774864518972915,0.0362058160775727,0.4081632653061224,0.4081632653061224,0.5714285714285714,0.2857142857142857,-0.1428571428571428,-0.061224489795918435,2.9387755102040813,2.9387755102040813,1.0,1.0,-1.0,3.0,0,1,0,1,0.0362058160775727
6.0,0.0,6.0,0.0,2.0,0.0,2.0,0.0,,,,right,1.1694041001610458,261.75268650008366,iz8,261.75268650008366,,244.5392574002035,248.0520987000782,False,2.0,['r'],True,0.4081632653061224,0.5714285714285714,0.2857142857142857,2.0,1.0,0.9885754083994552,0.0317505844141454,wait_cost,0.0,1.0,258.8355807000771,,iz8,2,2022-04-21_11h42.20.437,threat_forest,2021.2.3,60.012266544794215,False,27.0,0.5357142857142857,0.44285714285714284,-0.7806122448979592,-1.1553061224489798,1,0,0,0.1564943029624926,0.0317505844141454,0.4081632653061224,0.4081632653061224,0.5714285714285714,0.2857142857142857,-0.1428571428571428,-0.061224489795918435,1.9387755102040816,1.9387755102040816,1.0,1.0,-1.0,2.0,0,1,0,1,0.0317505844141454
6.0,0.0,6.0,0.0,3.0,0.0,3.0,0.0,,,,left,1.129770299885422,268.2527001001872,iz8,268.2527001001872,,244.5392574002035,248.0520987000782,True,1.0,['r'],True,0.4081632653061224,0.5714285714285714,0.2857142857142857,2.0,1.0,0.9885754083994552,0.1180805612370661,succ_gain,0.0,2.0,264.9523548001889,,iz8,2,2022-04-21_11h42.20.437,threat_forest,2021.2.3,60.012266544794215,True,27.0,0.5357142857142857,0.44285714285714284,-0.7806122448979592,-1.1553061224489798,1,0,1,0.12201433762352082,0.1180805612370661,1.0,0.4081632653061224,0.5714285714285714,0.2857142857142857,-0.1428571428571428,-0.061224489795918435,0.9387755102040816,1.0,1.0,1.0,-1.0,1.0,1,1,0,1,0.625
6.0,0.0,6.0,0.0,4.0,0.0,4.0,0.0,,,,right,1.47291969996877,273.85268320003524,iz8,273.85268320003524,,244.5392574002035,248.0520987000782,False,2.0,['r'],True,0.4081632653061224,0.5714285714285714,0.2857142857142857,2.0,1.0,0.9885754083994552,0.0434271115776589,wait_cost,0.0,1.0,271.4024501000531,,iz8,2,2022-04-21_11h42.20.437,threat_forest,2021.2.3,60.012266544794215,False,27.0,0.5357142857142857,0.44285714285714284,-0.7806122448979592,-1.1553061224489798,1,0,0,0.38724662137725335,0.0434271115776589,0.4081632653061224,0.4081632653061224,0.5714285714285714,0.2857142857142857,-0.1428571428571428,-0.061224489795918435,1.9387755102040816,1.9387755102040816,1.0,1.0,1.0,2.0,0,1,0,1,0.0434271115776589
6.0,0.0,6.0,0.0,5.0,0.0,5.0,0.0,,,,right,0.8480328000150621,280.30292030004784,iz8,275.35269820014946,277.35245660017245,280.30292030004784,,True,1.0,['r'],False,0.5,0.5,0.0,0.0,1.0,0.6309297535714574,0.2385204081632652,succ_gain,1.0,2.0,277.35245660017245,,iz8,2,2022-04-21_11h42.20.437,threat_forest,2021.2.3,60.012266544794215,True,27.0,0.5357142857142857,0.44285714285714284,-0.7806122448979592,-1.1553061224489798,1,1,1,-0.16483596467521247,0.2385204081632652,1.0,0.5,0.5,0.0,0.5,0.5,1.5,1.5,0.0,1.0,-1.0,1.0,1,1,1,1,0.625
6.0,0.0,6.0,0.0,6.0,0.0,6.0,0.0,,,,left,1.7138116999994963,286.4195012000855,iz8,275.35269820014946,277.35245660017245,286.4195012000855,,False,2.0,['r'],False,0.5,0.5,0.0,0.0,1.0,0.6309297535714574,0.0459183673469387,wait_cost,1.0,1.0,283.16929330001585,,iz8,2,2022-04-21_11h42.20.437,threat_forest,2021.2.3,60.012266544794215,False,27.0,0.5357142857142857,0.44285714285714284,-0.7806122448979592,-1.1553061224489798,1,1,0,0.5387199541635821,0.0459183673469387,0.5,0.5,0.5,0.0,0.5,0.5,2.5,2.5,0.0,1.0,1.0,2.0,0,1,1,1,0.0459183673469387
6.0,0.0,6.0,0.0,7.0,0.0,7.0,0.0,,,,right,0.7620212000329047,291.96970390016213,iz8,275.35269820014946,277.35245660017245,291.96970390016213,,True,1.0,['r'],False,0.5,0.5,0.0,0.0,1.0,0.6309297535714574,0.5,succ_gain,1.0,2.0,290.1526626001578,,iz8,2,2022-04-21_11h42.20.437,threat_forest,2021.2.3,60.012266544794215,True,27.0,0.5357142857142857,0.44285714285714284,-0.7806122448979592,-1.1553061224489798,1,1,1,-0.27178090211701156,0.5,1.0,0.5,0.5,0.0,0.5,0.5,1.5,1.5,0.0,1.0,-1.0,1.0,1,1,1,1,0.625
7.0,0.0,7.0,0.0,0.0,0.0,0.0,0.0,297.6125413000118,301.10360840009525,,right,1.0779533998575062,304.85552950017154,iz8,304.85552950017154,,297.6125413000118,301.10360840009525,False,5.0,['r'],True,0.16,0.2,0.2,2.0,2.0,0.8198746470064713,-0.011066432,wait_cost,0.0,4.0,,,iz8,2,2022-04-21_11h42.20.437,threat_forest,2021.2.3,60.012266544794215,False,65.0,0.30000000000000004,0.41785714285714287,-1.5000000000000002,-1.1403061224489797,0,0,0,0.07506424321987953,-0.011066432,0.16,0.16,0.2,0.2,-0.8000000000000003,-0.5600000000000003,4.4399999999999995,4.4399999999999995,1.0,2.0,1.0,5.0,0,1,0,0,-0.011066432
7.0,0.0,7.0,0.0,1.0,0.0,1.0,0.0,,,,right,1.757234999909997,308.71986240008846,iz8,305.95321780000813,307.9529472000431,308.71986240008846,,True,4.0,['r'],False,0.24,0.4,0.4,2.0,2.0,0.9801625908629508,0.0357311999999999,unsucc_cost,1.0,2.0,307.9529472000431,,iz8,2,2022-04-21_11h42.20.437,threat_forest,2021.2.3,60.012266544794215,True,65.0,0.30000000000000004,0.41785714285714287,-1.5000000000000002,-1.1403061224489797,0,0,1,0.5637415509213526,0.0357311999999999,0.24,0.24,0.4,0.4,-0.6000000000000001,-0.44000000000000017,3.5599999999999996,3.5599999999999996,0.0,2.0,-1.0,4.0,0,1,0,0,0.0357311999999999
7.0,0.0,7.0,0.0,2.0,0.0,2.0,0.0,,,,left,1.486605399986729,315.0201571001671,iz8,305.95321780000813,307.9529472000431,315.0201571001671,,False,2.0,['r'],False,0.24,0.4,0.4,2.0,2.0,0.9801625908629508,0.0187199999999999,wait_cost,1.0,1.0,312.50311960000545,,iz8,2,2022-04-21_11h42.20.437,threat_forest,2021.2.3,60.012266544794215,False,65.0,0.30000000000000004,0.41785714285714287,-1.5000000000000002,-1.1403061224489797,0,0,0,0.39649526574341737,0.0187199999999999,0.24,0.24,0.4,0.4,-0.6000000000000001,-0.44000000000000017,1.5599999999999998,1.5599999999999998,0.0,2.0,-1.0,2.0,0,1,0,0,0.0187199999999999
7.0,0.0,7.0,0.0,3.0,0.0,3.0,0.0,,,,right,0.4800526001490652,321.25353490002453,iz8,305.95321780000813,307.9529472000431,321.25353490002453,,True,1.0,['r'],False,0.24,0.4,0.4,2.0,2.0,0.9801625908629508,0.072,succ_gain,1.0,3.0,318.53646320011467,,iz8,2,2022-04-21_11h42.20.437,threat_forest,2021.2.3,60.012266544794215,True,65.0,0.30000000000000004,0.41785714285714287,-1.5000000000000002,-1.1403061224489797,0,0,1,-0.7338595974401635,0.072,1.0,0.24,0.4,0.4,-0.6000000000000001,-0.44000000000000017,0.5599999999999998,1.0,0.0,2.0,-1.0,1.0,1,1,0,0,0.625
7.0,0.0,7.0,0.0,4.0,0.0,4.0,0.0,,,,right,0.9170214999467134,326.00350670004264,iz8,305.95321780000813,307.9529472000431,326.00350670004264,,True,3.0,['r'],False,0.24,0.4,0.4,2.0,2.0,0.9801625908629508,0.092,fight_cost,1.0,0.0,323.7531338001136,,iz8,2,2022-04-21_11h42.20.437,threat_forest,2021.2.3,60.012266544794215,True,65.0,0.30000000000000004,0.41785714285714287,-1.5000000000000002,-1.1403061224489797,0,0,1,-0.0866243610390049,0.092,0.24,0.24,0.4,0.4,-0.6000000000000001,-0.44000000000000017,2.5599999999999996,2.5599999999999996,0.0,2.0,1.0,3.0,0,1,0,0,0.092
8.0,0.0,8.0,0.0,0.0,0.0,0.0,0.0,330.0281872001942,333.53666840004735,,right,0.9515670000109822,335.1207179001067,iz8,335.1207179001067,,330.0281872001942,333.53666840004735,False,4.0,['p'],True,0.2448979591836734,0.2857142857142857,0.1428571428571428,1.0,1.0,0.8400769154957735,0.0043475630520346,wait_cost,0.0,3.0,,,iz8,2,2022-04-21_11h42.20.437,threat_forest,2021.2.3,60.012266544794215,False,69.0,0.39285714285714285,0.3464285714285714,-1.2665816326530612,-1.3832908163265307,0,0,0,-0.049645179579421966,0.0043475630520346,0.2448979591836734,0.2448979591836734,0.2857142857142857,0.1428571428571428,-0.5714285714285712,-0.40816326530612246,3.5918367346938775,3.5918367346938775,1.0,1.0,-1.0,4.0,0,1,0,0,0.0043475630520346
8.0,0.0,8.0,0.0,1.0,0.0,1.0,0.0,,,,right,0.7136793998070061,341.2039162002038,iz8,336.1036903001368,338.1034391000867,341.2039162002038,,True,3.0,['p'],False,0.375,0.5,0.25,1.0,1.0,0.9850568223215076,0.0375814591545523,unsucc_cost,1.0,1.0,338.1034391000867,,iz8,2,2022-04-21_11h42.20.437,threat_forest,2021.2.3,60.012266544794215,True,69.0,0.39285714285714285,0.3464285714285714,-1.2665816326530612,-1.3832908163265307,1,1,1,-0.33732143736030795,0.0375814591545523,0.375,0.375,0.5,0.25,-0.25,-0.125,2.875,2.875,0.0,1.0,-1.0,3.0,0,1,1,1,0.0375814591545523
8.0,0.0,8.0,0.0,2.0,0.0,2.0,0.0,,,,left,1.6438368998933583,347.5204682999756,iz8,347.5204682999756,,341.9372843001038,343.936825199984,True,1.0,['p'],True,0.2448979591836734,0.2857142857142857,0.1428571428571428,1.0,1.0,0.8400769154957735,0.0303844568016045,unsucc_cost,0.0,0.0,343.936825199984,,iz8,2,2022-04-21_11h42.20.437,threat_forest,2021.2.3,60.012266544794215,True,69.0,0.39285714285714285,0.3464285714285714,-1.2665816326530612,-1.3832908163265307,0,0,1,0.4970330824018097,0.0303844568016045,1.0,0.2448979591836734,0.2857142857142857,0.1428571428571428,-0.5714285714285712,-0.40816326530612246,0.5918367346938775,1.0,1.0,1.0,-1.0,1.0,1,1,0,0,0.625
