miniblock.thisRepN,miniblock.thisTrialN,miniblock.thisN,miniblock.thisIndex,day.thisRepN,day.thisTrialN,day.thisN,day.thisIndex,forest.started,fixation_forest.started,fixation_forest.stopped,key_resp.keys,key_resp.rt,key_resp.started,Subject_ID,weather_left.started,weather_left.stopped,weather_right.started,weather_right.stopped,foraging T/F,in_LP,p/r heuristic,good_weather.T/F,p_succ_correct,p_succ_uncorrected,r_threat,n_oponents,gain_if_succ,weather_entropy,OP_value_difference,action_outcome,forest_side_L=0_R=1,out_LP,fixation_day.started,fixation_day.stopped,participant,session,date,expName,psychopyVersion,frameRate,foraging T/F NaNs,fora_NR,forest_mean_p,mvt_cutoff_p,forest_mean_ev,mvt_cutoff_ev,mvt_policy_eg,mvt_policy_p,fora_response,logRT,optimal policy values,multi-heuristic policy,** $\mathit{p}$ success,* $\mathit{p}$ gain,* $\mathit{r}$ predator,expected gain naive,expected gain correct,expected state no bounds,expected state with bounds,weather type,gain magnitude,win stay lose shift,continuous energy state,** binary energy state,** wait when safe,$\mathit{p}$ success based MVT,marginal value,$\mathit{OP}$ values + cap
0.0,0.0,0.0,0.0,0.0,0.0,0.0,0.0,30.109013699984644,33.62221729999874,,left,0.7637242000200786,36.68513199998415,xs3,36.68513199998415,,30.109013699984644,33.62221729999874,True,5.0,['p'],True,0.375,0.5,0.25,1.0,1.0,0.9850568223215076,0.0361323788439721,unsucc_cost,0.0,3.0,,,xs3,1,2023-03-31_15h28.58.026,threat_forest,2021.2.3,59.9660951699188,True,69.0,0.39285714285714285,0.39285714285714285,-1.2665816326530612,-1.2665816326530612,1,0,1.0,-0.2695485497280196,0.0361323788439721,0.375,0.375,0.5,0.25,-0.25,-0.125,4.875,4.875,1.0,1.0,,5.0,0,1,0,1,0.0361323788439721
0.0,0.0,0.0,0.0,1.0,0.0,1.0,0.0,,,,left,1.4330033999867735,40.74915879999753,xs3,40.74915879999753,,30.109013699984644,33.62221729999874,True,3.0,['p'],True,0.375,0.5,0.25,1.0,1.0,0.9850568223215076,0.0375814591545523,succ_gain,0.0,4.0,39.483484399999725,,xs3,1,2023-03-31_15h28.58.026,threat_forest,2021.2.3,59.9660951699188,True,69.0,0.39285714285714285,0.39285714285714285,-1.2665816326530612,-1.2665816326530612,1,0,1.0,0.3597725214787913,0.0375814591545523,0.375,0.375,0.5,0.25,-0.25,-0.125,2.875,2.875,1.0,1.0,-1.0,3.0,0,1,0,1,0.0375814591545523
0.0,0.0,0.0,0.0,2.0,0.0,2.0,0.0,,,,left,1.3772725999879183,45.428493199986406,xs3,45.428493199986406,,30.109013699984644,33.62221729999874,True,4.0,['p'],True,0.375,0.5,0.25,1.0,1.0,0.9850568223215076,0.0477022567879512,unsucc_cost,0.0,2.0,44.22894830000587,,xs3,1,2023-03-31_15h28.58.026,threat_forest,2021.2.3,59.9660951699188,True,69.0,0.39285714285714285,0.39285714285714285,-1.2665816326530612,-1.2665816326530612,1,0,1.0,0.3201051667389902,0.0477022567879512,0.375,0.375,0.5,0.25,-0.25,-0.125,3.875,3.875,1.0,1.0,1.0,4.0,0,1,0,1,0.0477022567879512
0.0,0.0,0.0,0.0,3.0,0.0,3.0,0.0,,,,left,1.267280000000028,52.62173759998405,xs3,52.62173759998405,,30.109013699984644,33.62221729999874,True,2.0,['p'],True,0.375,0.5,0.25,1.0,1.0,0.9850568223215076,0.0358404932494761,succ_gain,0.0,3.0,48.84122699999716,,xs3,1,2023-03-31_15h28.58.026,threat_forest,2021.2.3,59.9660951699188,True,69.0,0.39285714285714285,0.39285714285714285,-1.2665816326530612,-1.2665816326530612,1,0,1.0,0.23687287139848023,0.0358404932494761,0.375,0.375,0.5,0.25,-0.25,-0.125,1.875,1.875,1.0,1.0,-1.0,2.0,0,1,0,1,0.0358404932494761
0.0,0.0,0.0,0.0,4.0,0.0,4.0,0.0,,,,left,1.5465366000134964,59.59859989999677,xs3,59.59859989999677,,30.109013699984644,33.62221729999874,True,3.0,['p'],True,0.375,0.5,0.25,1.0,1.0,0.9850568223215076,0.0723316171972615,succ_gain,0.0,4.0,55.93455790000735,,xs3,1,2023-03-31_15h28.58.026,threat_forest,2021.2.3,59.9660951699188,True,69.0,0.39285714285714285,0.39285714285714285,-1.2665816326530612,-1.2665816326530612,1,0,1.0,0.43601797921502655,0.0723316171972615,0.375,0.375,0.5,0.25,-0.25,-0.125,2.875,2.875,1.0,1.0,1.0,3.0,0,1,0,1,0.0723316171972615
0.0,0.0,0.0,0.0,5.0,0.0,5.0,0.0,,,,left,1.248949500004528,65.78142919999664,xs3,61.16338819998782,63.17783979998785,65.78142919999664,,False,4.0,['p'],False,0.2448979591836734,0.2857142857142857,0.1428571428571428,1.0,1.0,0.8400769154957735,-0.5011453561016244,wait_cost,1.0,3.0,63.17783979998785,,xs3,1,2023-03-31_15h28.58.026,threat_forest,2021.2.3,59.9660951699188,False,69.0,0.39285714285714285,0.39285714285714285,-1.2665816326530612,-1.2665816326530612,0,0,0.0,0.2223027979837801,-0.5011453561016244,0.0,0.2448979591836734,0.2857142857142857,0.1428571428571428,-0.5714285714285712,-0.40816326530612246,3.5918367346938775,3.5918367346938775,0.0,1.0,1.0,4.0,0,0,0,0,-0.84
0.0,0.0,0.0,0.0,6.0,0.0,6.0,0.0,,,,left,1.6521265000046697,71.00430189998588,xs3,61.16338819998782,63.17783979998785,71.00430189998588,,False,3.0,['p'],False,0.2448979591836734,0.2857142857142857,0.1428571428571428,1.0,1.0,0.8400769154957735,-0.5653373594335693,wait_cost,1.0,2.0,69.07241249998333,,xs3,1,2023-03-31_15h28.58.026,threat_forest,2021.2.3,59.9660951699188,False,69.0,0.39285714285714285,0.39285714285714285,-1.2665816326530612,-1.2665816326530612,0,0,0.0,0.5020632460198641,-0.5653373594335693,0.0,0.2448979591836734,0.2857142857142857,0.1428571428571428,-0.5714285714285712,-0.40816326530612246,2.5918367346938775,2.5918367346938775,0.0,1.0,-1.0,3.0,0,0,0,0,-0.84
0.0,0.0,0.0,0.0,7.0,0.0,7.0,0.0,,,,right,1.2868376999977045,76.18269620000501,xs3,61.16338819998782,63.17783979998785,76.18269620000501,,True,2.0,['p'],False,0.2448979591836734,0.2857142857142857,0.1428571428571428,1.0,1.0,0.8400769154957735,-0.7551020408163265,succ_gain,1.0,3.0,74.70037469998351,,xs3,1,2023-03-31_15h28.58.026,threat_forest,2021.2.3,59.9660951699188,True,69.0,0.39285714285714285,0.39285714285714285,-1.2665816326530612,-1.2665816326530612,0,0,1.0,0.2521878134339137,-0.7551020408163265,0.0,0.2448979591836734,0.2857142857142857,0.1428571428571428,-0.5714285714285712,-0.40816326530612246,1.5918367346938775,1.5918367346938775,0.0,1.0,-1.0,2.0,0,0,0,0,-0.84
1.0,0.0,1.0,0.0,0.0,0.0,0.0,0.0,80.87400779998279,84.37475669998094,,left,1.2609518000099342,87.05630500000552,xs3,80.87400779998279,84.37475669998094,87.05630500000552,,False,5.0,['r'],False,0.3333333333333333,0.3333333333333333,0.0,0.0,1.0,0.5793801642856949,0.037608671236214,wait_cost,1.0,4.0,,,xs3,1,2023-03-31_15h28.58.026,threat_forest,2021.2.3,59.9660951699188,False,28.0,0.3666666666666667,0.37976190476190474,-1.3400000000000003,-1.3032908163265309,1,0,0.0,0.23186683262808117,0.037608671236214,0.3333333333333333,0.3333333333333333,0.3333333333333333,0.0,-2.220446049250313e-16,-2.220446049250313e-16,5.0,5.0,0.0,1.0,1.0,5.0,0,1,0,1,0.037608671236214
1.0,0.0,1.0,0.0,1.0,0.0,1.0,0.0,,,,right,1.5260167000233196,92.20260869999764,xs3,92.20260869999764,,88.33798749998095,90.35243609998724,False,4.0,['r'],True,0.24,0.4,0.4,2.0,1.0,0.9801625908629508,0.0034755885168724,wait_cost,0.0,3.0,90.35243609998724,,xs3,1,2023-03-31_15h28.58.026,threat_forest,2021.2.3,59.9660951699188,False,28.0,0.3666666666666667,0.37976190476190474,-1.3400000000000003,-1.3032908163265309,0,0,0.0,0.42266087646117784,0.0034755885168724,0.24,0.24,0.4,0.4,-1.0,-0.6800000000000002,3.32,3.32,1.0,1.0,-1.0,4.0,0,1,0,0,0.0034755885168724
1.0,0.0,1.0,0.0,2.0,0.0,2.0,0.0,,,,right,0.9688017999869772,99.42816300000412,xs3,93.74964329999057,95.76421979998122,99.42816300000412,,True,3.0,['r'],False,0.3333333333333333,0.3333333333333333,0.0,0.0,1.0,0.5793801642856949,0.0487072941563785,unsucc_cost,1.0,1.0,95.76421979998122,,xs3,1,2023-03-31_15h28.58.026,threat_forest,2021.2.3,59.9660951699188,True,28.0,0.3666666666666667,0.37976190476190474,-1.3400000000000003,-1.3032908163265309,1,0,1.0,-0.03169522878980173,0.0487072941563785,0.3333333333333333,0.3333333333333333,0.3333333333333333,0.0,-2.220446049250313e-16,-2.220446049250313e-16,3.0,3.0,0.0,1.0,-1.0,3.0,0,1,0,1,0.0487072941563785
1.0,0.0,1.0,0.0,3.0,0.0,3.0,0.0,,,,left,0.9310636000009254,105.70518329998596,xs3,105.70518329998596,,100.42675959999906,102.44162649998908,True,1.0,['r'],True,0.24,0.4,0.4,2.0,1.0,0.9801625908629508,0.0298469688888888,figh_cost,0.0,0.0,102.44162649998908,,xs3,1,2023-03-31_15h28.58.026,threat_forest,2021.2.3,59.9660951699188,True,28.0,0.3666666666666667,0.37976190476190474,-1.3400000000000003,-1.3032908163265309,0,0,1.0,-0.07142769039610067,0.0298469688888888,1.0,0.24,0.4,0.4,-1.0,-0.6800000000000002,0.31999999999999984,1.0,1.0,1.0,-1.0,1.0,1,1,0,0,0.625
2.0,0.0,2.0,0.0,0.0,0.0,0.0,0.0,112.01006000000052,115.51231489999918,,right,1.0173381000058723,117.5788828000077,xs3,112.01006000000052,115.51231489999918,117.5788828000077,,True,5.0,['r'],False,0.2040816326530612,0.2857142857142857,0.2857142857142857,2.0,1.0,0.9335459102197724,-0.0016634484816004,unsucc_cost,1.0,3.0,,,xs3,1,2023-03-31_15h28.58.026,threat_forest,2021.2.3,59.9660951699188,True,32.0,0.26785714285714285,0.31726190476190474,-1.461734693877551,-1.4008673469387758,0,0,1.0,0.017189510201058945,-0.0016634484816004,0.2040816326530612,0.2040816326530612,0.2857142857142857,0.2857142857142857,-1.0,-0.6734693877551021,4.326530612244898,4.326530612244898,0.0,1.0,-1.0,5.0,0,1,0,0,-0.0016634484816004
2.0,0.0,2.0,0.0,1.0,0.0,1.0,0.0,,,,left,1.3030831000069156,123.9214312999975,xs3,112.01006000000052,115.51231489999918,123.9214312999975,,False,3.0,['r'],False,0.2040816326530612,0.2857142857142857,0.2857142857142857,2.0,1.0,0.9335459102197724,0.006782822473906,wait_cost,1.0,2.0,120.64076899999054,,xs3,1,2023-03-31_15h28.58.026,threat_forest,2021.2.3,59.9660951699188,False,32.0,0.26785714285714285,0.31726190476190474,-1.461734693877551,-1.4008673469387758,0,0,0.0,0.264733072016184,0.006782822473906,0.2040816326530612,0.2040816326530612,0.2857142857142857,0.2857142857142857,-1.0,-0.6734693877551021,2.326530612244898,2.326530612244898,0.0,1.0,-1.0,3.0,0,1,0,0,0.006782822473906
2.0,0.0,2.0,0.0,2.0,0.0,2.0,0.0,,,,right,2.0106186000048183,128.75026189998607,xs3,128.75026189998607,,125.25366610000492,127.26797670000816,False,2.0,['r'],True,0.25,0.25,0.0,0.0,1.0,0.5118595071429148,0.0121283074313569,wait_cost,0.0,1.0,127.26797670000816,,xs3,1,2023-03-31_15h28.58.026,threat_forest,2021.2.3,59.9660951699188,False,32.0,0.26785714285714285,0.31726190476190474,-1.461734693877551,-1.4008673469387758,1,0,0.0,0.6984424359186489,0.0121283074313569,0.25,0.25,0.25,0.0,-0.25,-0.25,1.75,1.75,1.0,1.0,-1.0,2.0,0,1,0,1,0.0121283074313569
2.0,0.0,2.0,0.0,3.0,0.0,3.0,0.0,,,,right,1.7758412999974098,133.9288564999879,xs3,130.78160489999573,132.79609499999788,133.9288564999879,,True,1.0,['r'],False,0.2040816326530612,0.2857142857142857,0.2857142857142857,2.0,1.0,0.9335459102197724,0.0171485178705648,unsucc_cost,1.0,0.0,132.79609499999788,,xs3,1,2023-03-31_15h28.58.026,threat_forest,2021.2.3,59.9660951699188,True,32.0,0.26785714285714285,0.31726190476190474,-1.461734693877551,-1.4008673469387758,0,0,1.0,0.574274282467738,0.0171485178705648,1.0,0.2040816326530612,0.2857142857142857,0.2857142857142857,-1.0,-0.6734693877551021,0.3265306122448979,1.0,0.0,1.0,-1.0,1.0,1,1,0,0,0.625
3.0,0.0,3.0,0.0,0.0,0.0,0.0,0.0,140.2672740999842,143.75756779999938,,left,1.2550734000105876,146.6335068999906,xs3,146.6335068999906,,140.2672740999842,143.75756779999938,True,5.0,['p'],True,0.32,0.4,0.2,1.0,2.0,0.9455672104350704,0.02103847866381,unsucc_cost,0.0,3.0,,,xs3,1,2023-03-31_15h28.58.026,threat_forest,2021.2.3,59.9660951699188,True,12.0,0.3111111111111111,0.28948412698412695,-1.1204938271604938,-1.2911142605190224,1,1,1.0,0.2271940569377173,0.02103847866381,0.32,0.32,0.4,0.2,0.0,0.07999999999999996,5.08,5.08,1.0,2.0,-1.0,5.0,0,1,1,1,0.02103847866381
3.0,0.0,3.0,0.0,1.0,0.0,1.0,0.0,,,,left,1.4006242000032216,151.49557309999363,xs3,151.49557309999363,,140.2672740999842,143.75756779999938,True,3.0,['p'],True,0.32,0.4,0.2,1.0,2.0,0.9455672104350704,0.0685767383231606,figh_cost,0.0,0.0,149.93006349998177,,xs3,1,2023-03-31_15h28.58.026,threat_forest,2021.2.3,59.9660951699188,True,12.0,0.3111111111111111,0.28948412698412695,-1.1204938271604938,-1.2911142605190224,1,1,1.0,0.3369179944016082,0.0685767383231606,0.32,0.32,0.4,0.2,0.0,0.07999999999999996,3.08,3.08,1.0,2.0,-1.0,3.0,0,1,1,1,0.0685767383231606
4.0,0.0,4.0,0.0,0.0,0.0,0.0,0.0,158.34138080000412,161.8522701000038,,right,1.113448399992194,163.8845376999816,xs3,158.34138080000412,161.8522701000038,163.8845376999816,,True,4.0,['r'],False,0.5,0.5,0.0,0.0,1.0,0.6309297535714574,0.0993054550861626,succ_gain,1.0,5.0,,,xs3,1,2023-03-31_15h28.58.026,threat_forest,2021.2.3,59.9660951699188,True,30.0,0.5833333333333333,0.4472222222222222,-1.25,-1.1852469135802468,1,1,1.0,0.10746186626631825,0.0993054550861626,0.5,0.5,0.5,0.0,0.5,0.5,4.5,4.5,0.0,1.0,-1.0,4.0,0,1,1,1,0.0993054550861626
4.0,0.0,4.0,0.0,1.0,0.0,1.0,0.0,,,,left,1.7811121999984607,169.97857499998645,xs3,158.34138080000412,161.8522701000038,169.97857499998645,,False,5.0,['r'],False,0.5,0.5,0.0,0.0,1.0,0.6309297535714574,0.120817124271262,wait_cost,1.0,4.0,167.03079379998962,,xs3,1,2023-03-31_15h28.58.026,threat_forest,2021.2.3,59.9660951699188,False,30.0,0.5833333333333333,0.4472222222222222,-1.25,-1.1852469135802468,1,1,0.0,0.5772380006379029,0.120817124271262,0.5,0.5,0.5,0.0,0.5,0.5,5.5,5.5,0.0,1.0,1.0,5.0,0,1,1,1,0.120817124271262
4.0,0.0,4.0,0.0,2.0,0.0,2.0,0.0,,,,right,1.240221999993082,177.03845799999544,xs3,158.34138080000412,161.8522701000038,177.03845799999544,,True,4.0,['r'],False,0.5,0.5,0.0,0.0,1.0,0.6309297535714574,0.1427228009259259,unsucc_cost,1.0,2.0,173.7911032999982,,xs3,1,2023-03-31_15h28.58.026,threat_forest,2021.2.3,59.9660951699188,True,30.0,0.5833333333333333,0.4472222222222222,-1.25,-1.1852469135802468,1,1,1.0,0.21529039584506976,0.1427228009259259,0.5,0.5,0.5,0.0,0.5,0.5,4.5,4.5,0.0,1.0,-1.0,4.0,0,1,1,1,0.1427228009259259
4.0,0.0,4.0,0.0,3.0,0.0,3.0,0.0,,,,left,2.5435341999982484,183.0331792999932,xs3,158.34138080000412,161.8522701000038,183.0331792999932,,False,2.0,['r'],False,0.5,0.5,0.0,0.0,1.0,0.6309297535714574,0.0965952932098765,wait_cost,1.0,1.0,180.3183207999973,,xs3,1,2023-03-31_15h28.58.026,threat_forest,2021.2.3,59.9660951699188,False,30.0,0.5833333333333333,0.4472222222222222,-1.25,-1.1852469135802468,1,1,0.0,0.9335545312285196,0.0965952932098765,0.5,0.5,0.5,0.0,0.5,0.5,2.5,2.5,0.0,1.0,-1.0,2.0,0,1,1,1,0.0965952932098765
4.0,0.0,4.0,0.0,4.0,0.0,4.0,0.0,,,,left,0.8910144999972545,190.1760389999836,xs3,190.1760389999836,,185.5970793000015,187.6115135999862,True,1.0,['r'],True,0.2222222222222222,0.6666666666666666,0.6666666666666666,2.0,1.0,0.77250688571426,0.095679012345679,figh_cost,0.0,0.0,187.6115135999862,,xs3,1,2023-03-31_15h28.58.026,threat_forest,2021.2.3,59.9660951699188,True,30.0,0.5833333333333333,0.4472222222222222,-1.25,-1.1852469135802468,0,0,1.0,-0.11539457779721958,0.095679012345679,1.0,0.2222222222222222,0.6666666666666666,0.6666666666666666,-1.0,-1.0,0.0,1.0,1.0,1.0,-1.0,1.0,1,1,0,0,0.625
5.0,0.0,5.0,0.0,0.0,0.0,0.0,0.0,196.84402389999013,200.34962729999097,,left,1.1968740000156686,202.64825549998204,xs3,202.64825549998204,,196.84402389999013,200.34962729999097,True,4.0,['r'],True,0.4,0.4,0.0,0.0,1.0,0.6126016192893442,0.0450341371089131,succ_gain,0.0,5.0,,,xs3,1,2023-03-31_15h28.58.026,threat_forest,2021.2.3,59.9660951699188,True,36.0,0.41428571428571426,0.49880952380952376,-1.083673469387755,-1.1668367346938775,1,0,1.0,0.1797131578904776,0.0450341371089131,0.4,0.4,0.4,0.0,0.20000000000000007,0.20000000000000007,4.2,4.2,1.0,1.0,-1.0,4.0,0,1,0,1,0.0450341371089131
5.0,0.0,5.0,0.0,1.0,0.0,1.0,0.0,,,,right,1.3609020999865606,206.3944319000002,xs3,206.3944319000002,,196.84402389999013,200.34962729999097,False,5.0,['r'],True,0.4,0.4,0.0,0.0,1.0,0.6126016192893442,0.0748356280301181,wait_cost,0.0,4.0,205.87784749999992,,xs3,1,2023-03-31_15h28.58.026,threat_forest,2021.2.3,59.9660951699188,False,36.0,0.41428571428571426,0.49880952380952376,-1.083673469387755,-1.1668367346938775,1,0,0.0,0.3081477886695492,0.0748356280301181,0.4,0.4,0.4,0.0,0.20000000000000007,0.20000000000000007,5.2,5.2,1.0,1.0,1.0,5.0,0,1,0,1,0.0748356280301181
5.0,0.0,5.0,0.0,2.0,0.0,2.0,0.0,,,,right,1.0228606000018772,213.10661479999544,xs3,207.7764101999928,209.79077880000116,213.10661479999544,,True,4.0,['r'],False,0.3061224489795918,0.4285714285714285,0.2857142857142857,2.0,1.0,0.9885754083994552,-0.0011690836695219,figh_cost,1.0,1.0,209.79077880000116,,xs3,1,2023-03-31_15h28.58.026,threat_forest,2021.2.3,59.9660951699188,True,36.0,0.41428571428571426,0.49880952380952376,-1.083673469387755,-1.1668367346938775,0,0,1.0,0.02260321180163251,-0.0011690836695219,0.3061224489795918,0.3061224489795918,0.4285714285714285,0.2857142857142857,-0.5714285714285716,-0.36734693877551017,3.63265306122449,3.63265306122449,0.0,1.0,-1.0,4.0,0,1,0,0,-0.0011690836695219
5.0,0.0,5.0,0.0,3.0,0.0,3.0,0.0,,,,right,1.6487247000040952,217.9169859999965,xs3,207.7764101999928,209.79077880000116,217.9169859999965,,True,1.0,['r'],False,0.3061224489795918,0.4285714285714285,0.2857142857142857,2.0,1.0,0.9885754083994552,0.057394018457879,figh_cost,1.0,0.0,216.168268599984,,xs3,1,2023-03-31_15h28.58.026,threat_forest,2021.2.3,59.9660951699188,True,36.0,0.41428571428571426,0.49880952380952376,-1.083673469387755,-1.1668367346938775,0,0,1.0,0.5000020799758343,0.057394018457879,1.0,0.3061224489795918,0.4285714285714285,0.2857142857142857,-0.5714285714285716,-0.36734693877551017,0.6326530612244898,1.0,0.0,1.0,-1.0,1.0,1,1,0,0,0.625
6.0,0.0,6.0,0.0,0.0,0.0,0.0,0.0,224.51700769999297,228.02374529998636,,right,0.928640700003598,230.67200550000416,xs3,224.51700769999297,228.02374529998636,230.67200550000416,,True,5.0,['r'],False,0.3333333333333333,0.3333333333333333,0.0,0.0,1.0,0.5793801642856949,0.0360091124884982,succ_gain,1.0,6.0,,,xs3,1,2023-03-31_15h28.58.026,threat_forest,2021.2.3,59.9660951699188,True,66.0,0.5,0.45714285714285713,-1.5,-1.2918367346938775,1,0,1.0,-0.07403337493228902,0.0360091124884982,0.3333333333333333,0.3333333333333333,0.3333333333333333,0.0,-2.220446049250313e-16,-2.220446049250313e-16,5.0,5.0,0.0,1.0,-1.0,5.0,0,1,0,1,0.0360091124884982
6.0,0.0,6.0,0.0,1.0,0.0,1.0,0.0,,,,right,1.2473847000219394,235.40066499999372,xs3,224.51700769999297,228.02374529998636,235.40066499999372,,True,6.0,['r'],False,0.3333333333333333,0.3333333333333333,0.0,0.0,1.0,0.5793801642856949,-0.0916661903673221,succ_gain,1.0,6.0,233.6352488999837,,xs3,1,2023-03-31_15h28.58.026,threat_forest,2021.2.3,59.9660951699188,True,66.0,0.5,0.45714285714285713,-1.5,-1.2918367346938775,1,0,1.0,0.22104911953998593,-0.0916661903673221,0.3333333333333333,0.3333333333333333,0.3333333333333333,0.0,-2.220446049250313e-16,-2.220446049250313e-16,6.0,6.0,0.0,1.0,1.0,6.0,0,1,0,1,-0.0916661903673221
6.0,0.0,6.0,0.0,2.0,0.0,2.0,0.0,,,,left,1.7214196000131778,239.62977909998156,xs3,239.62977909998156,,236.66606119999776,238.68037299998105,True,6.0,['r'],True,0.2222222222222222,0.6666666666666666,0.6666666666666666,2.0,1.0,0.77250688571426,-0.145666628562719,figh_cost,0.0,3.0,238.68037299998105,,xs3,1,2023-03-31_15h28.58.026,threat_forest,2021.2.3,59.9660951699188,True,66.0,0.5,0.45714285714285713,-1.5,-1.2918367346938775,0,0,1.0,0.5431492992571681,-0.145666628562719,0.2222222222222222,0.2222222222222222,0.6666666666666666,0.6666666666666666,-1.0,-1.0,5.0,5.0,1.0,1.0,-1.0,6.0,0,1,0,0,-0.145666628562719
6.0,0.0,6.0,0.0,3.0,0.0,3.0,0.0,,,,left,1.580850600003032,246.0743191000074,xs3,246.0743191000074,,236.66606119999776,238.68037299998105,True,3.0,['r'],True,0.2222222222222222,0.6666666666666666,0.6666666666666666,2.0,1.0,0.77250688571426,0.0004286694101509,figh_cost,0.0,0.0,243.39268379998973,,xs3,1,2023-03-31_15h28.58.026,threat_forest,2021.2.3,59.9660951699188,True,66.0,0.5,0.45714285714285713,-1.5,-1.2918367346938775,0,0,1.0,0.4579630566104154,0.0004286694101509,0.2222222222222222,0.2222222222222222,0.6666666666666666,0.6666666666666666,-1.0,-1.0,2.0,2.0,1.0,1.0,-1.0,3.0,0,1,0,0,0.0004286694101509
7.0,0.0,7.0,0.0,0.0,0.0,0.0,0.0,250.54056279998625,254.04950540000573,,left,1.139618299988797,254.9493281999894,xs3,254.9493281999894,,250.54056279998625,254.04950540000573,True,4.0,['r'],True,0.25,0.25,0.0,0.0,2.0,0.5118595071429148,0.0318177712615933,unsucc_cost,0.0,2.0,,,xs3,1,2023-03-31_15h28.58.026,threat_forest,2021.2.3,59.9660951699188,True,34.0,0.4583333333333333,0.47916666666666663,-1.3888888888888888,-1.4444444444444444,1,0,1.0,0.13069338176891132,0.0318177712615933,0.25,0.25,0.25,0.0,0.0,0.0,4.0,4.0,1.0,2.0,-1.0,4.0,0,1,0,1,0.0318177712615933
7.0,0.0,7.0,0.0,1.0,0.0,1.0,0.0,,,,right,1.902696999983164,259.22859749998315,xs3,259.22859749998315,,250.54056279998625,254.04950540000573,False,2.0,['r'],True,0.25,0.25,0.0,0.0,2.0,0.5118595071429148,0.0110650198467983,wait_cost,0.0,1.0,258.1289460999833,,xs3,1,2023-03-31_15h28.58.026,threat_forest,2021.2.3,59.9660951699188,False,34.0,0.4583333333333333,0.47916666666666663,-1.3888888888888888,-1.4444444444444444,1,0,0.0,0.6432723533473413,0.0110650198467983,0.25,0.25,0.25,0.0,0.0,0.0,2.0,2.0,1.0,2.0,-1.0,2.0,0,1,0,1,0.0110650198467983
7.0,0.0,7.0,0.0,2.0,0.0,2.0,0.0,,,,right,1.7816502999921795,266.47179300000425,xs3,261.15984000000753,263.1743067000061,266.47179300000425,,True,1.0,['r'],False,0.2222222222222222,0.6666666666666666,0.6666666666666666,2.0,2.0,0.77250688571426,0.0614298893318472,succ_gain,1.0,3.0,263.1743067000061,,xs3,1,2023-03-31_15h28.58.026,threat_forest,2021.2.3,59.9660951699188,True,34.0,0.4583333333333333,0.47916666666666663,-1.3888888888888888,-1.4444444444444444,0,0,1.0,0.5775400696070311,0.0614298893318472,1.0,0.2222222222222222,0.6666666666666666,0.6666666666666666,-0.3333333333333335,-0.7777777777777779,0.2222222222222221,1.0,0.0,2.0,-1.0,1.0,1,1,0,0,0.625
7.0,0.0,7.0,0.0,3.0,0.0,3.0,0.0,,,,right,1.268509399989853,271.53337739998824,xs3,261.15984000000753,263.1743067000061,271.53337739998824,,True,3.0,['r'],False,0.2222222222222222,0.6666666666666666,0.6666666666666666,2.0,2.0,0.77250688571426,-0.0119720817139155,figh_cost,1.0,0.0,270.3009044000064,,xs3,1,2023-03-31_15h28.58.026,threat_forest,2021.2.3,59.9660951699188,True,34.0,0.4583333333333333,0.47916666666666663,-1.3888888888888888,-1.4444444444444444,0,0,1.0,0.237842510348902,-0.0119720817139155,0.2222222222222222,0.2222222222222222,0.6666666666666666,0.6666666666666666,-0.3333333333333335,-0.7777777777777779,2.2222222222222223,2.2222222222222223,0.0,2.0,1.0,3.0,0,1,0,0,-0.0119720817139155
8.0,0.0,8.0,0.0,0.0,0.0,0.0,0.0,278.3743762999948,281.87342839999474,,right,1.4199809999845456,284.7382857000048,xs3,284.7382857000048,,278.3743762999948,281.87342839999474,False,4.0,['r'],True,0.5,0.5,0.0,0.0,2.0,0.6309297535714574,0.096737473125,wait_cost,0.0,3.0,,,xs3,1,2023-03-31_15h28.58.026,threat_forest,2021.2.3,59.9660951699188,False,18.0,0.55,0.5041666666666667,-0.4800000000000001,-0.9344444444444444,1,0,0.0,0.35064349123107896,0.096737473125,0.5,0.5,0.5,0.0,1.0,1.0,5.0,5.0,1.0,2.0,-1.0,4.0,0,1,0,1,0.096737473125
8.0,0.0,8.0,0.0,1.0,0.0,1.0,0.0,,,,right,1.1716436999849975,291.799439800001,xs3,286.1864172999922,288.2008006999968,291.799439800001,,True,3.0,['r'],False,0.36,0.6,0.4,2.0,2.0,0.9801625908629508,0.02233521,figh_cost,1.0,0.0,288.2008006999968,,xs3,1,2023-03-31_15h28.58.026,threat_forest,2021.2.3,59.9660951699188,True,18.0,0.55,0.5041666666666667,-0.4800000000000001,-0.9344444444444444,0,0,1.0,0.15840763468262778,0.02233521,0.36,0.36,0.6,0.4,0.19999999999999973,0.039999999999999813,3.04,3.04,0.0,2.0,-1.0,3.0,0,1,0,0,0.02233521
9.0,0.0,9.0,0.0,0.0,0.0,0.0,0.0,297.03301519999513,300.539294599992,,left,1.4506599999731409,303.4055110999907,xs3,297.03301519999513,300.539294599992,303.4055110999907,,False,4.0,['r'],False,0.2040816326530612,0.2857142857142857,0.2857142857142857,2.0,2.0,0.9335459102197724,-0.0038600655291852,wait_cost,1.0,3.0,,,xs3,1,2023-03-31_15h28.58.026,threat_forest,2021.2.3,59.9660951699188,False,17.0,0.26785714285714285,0.4089285714285714,-1.2346938775510203,-0.8573469387755102,0,0,0.0,0.37201862526822166,-0.0038600655291852,0.2040816326530612,0.2040816326530612,0.2857142857142857,0.2857142857142857,-0.7142857142857144,-0.46938775510204067,3.5306122448979593,3.5306122448979593,0.0,2.0,-1.0,4.0,0,1,0,0,-0.0038600655291852
9.0,0.0,9.0,0.0,1.0,0.0,1.0,0.0,,,,right,2.5309650000126567,310.2805820000067,xs3,297.03301519999513,300.539294599992,310.2805820000067,,True,3.0,['r'],False,0.2040816326530612,0.2857142857142857,0.2857142857142857,2.0,2.0,0.9335459102197724,0.028184703228122,unsucc_cost,1.0,1.0,306.90003789999173,,xs3,1,2023-03-31_15h28.58.026,threat_forest,2021.2.3,59.9660951699188,True,17.0,0.26785714285714285,0.4089285714285714,-1.2346938775510203,-0.8573469387755102,0,0,1.0,0.9286006529460986,0.028184703228122,0.2040816326530612,0.2040816326530612,0.2857142857142857,0.2857142857142857,-0.7142857142857144,-0.46938775510204067,2.5306122448979593,2.5306122448979593,0.0,2.0,-1.0,3.0,0,1,0,0,0.028184703228122
9.0,0.0,9.0,0.0,2.0,0.0,2.0,0.0,,,,left,2.500200699985726,316.8247861999844,xs3,316.8247861999844,,312.8281952999823,314.84259129999555,True,1.0,['r'],True,0.25,0.25,0.0,0.0,2.0,0.5118595071429148,0.0699967163129748,unsucc_cost,0.0,0.0,314.84259129999555,,xs3,1,2023-03-31_15h28.58.026,threat_forest,2021.2.3,59.9660951699188,True,17.0,0.26785714285714285,0.4089285714285714,-1.2346938775510203,-0.8573469387755102,0,0,1.0,0.9163710086461792,0.0699967163129748,1.0,0.25,0.25,0.0,0.0,0.0,1.0,1.0,1.0,2.0,-1.0,1.0,1,1,0,0,0.625
10.0,0.0,10.0,0.0,0.0,0.0,0.0,0.0,323.3790786000027,326.8813507999876,,right,1.2220148000051267,329.9495763999876,xs3,329.9495763999876,,323.3790786000027,326.8813507999876,False,5.0,['p'],True,0.18,0.2,0.1,1.0,2.0,0.7058405977926203,-0.0324991432968132,wait_cost,0.0,4.0,,,xs3,1,2023-03-31_15h28.58.026,threat_forest,2021.2.3,59.9660951699188,False,41.0,0.43333333333333335,0.35059523809523807,-0.9677777777777778,-1.1012358276643992,0,0,0.0,0.20050097197322014,-0.0324991432968132,0.18,0.18,0.2,0.1,-0.5000000000000002,-0.3800000000000001,4.62,4.62,1.0,2.0,-1.0,5.0,0,1,0,0,-0.0324991432968132
10.0,0.0,10.0,0.0,1.0,0.0,1.0,0.0,,,,right,1.0585502999892924,335.6235467999941,xs3,331.1943950999994,333.2087293000077,335.6235467999941,,True,4.0,['p'],False,0.4444444444444445,0.6666666666666666,0.3333333333333333,1.0,2.0,0.9656336071428248,0.1193916674424065,succ_gain,1.0,6.0,333.2087293000077,,xs3,1,2023-03-31_15h28.58.026,threat_forest,2021.2.3,59.9660951699188,True,41.0,0.43333333333333335,0.35059523809523807,-0.9677777777777778,-1.1012358276643992,1,1,1.0,0.056900330529203076,0.1193916674424065,0.4444444444444445,0.4444444444444445,0.6666666666666666,0.3333333333333333,0.6666666666666665,0.4444444444444444,4.444444444444445,4.444444444444445,0.0,2.0,-1.0,4.0,0,1,1,1,0.1193916674424065
10.0,0.0,10.0,0.0,2.0,0.0,2.0,0.0,,,,right,1.352372399996966,340.9356332999887,xs3,331.1943950999994,333.2087293000077,340.9356332999887,,True,6.0,['p'],False,0.4444444444444445,0.6666666666666666,0.3333333333333333,1.0,2.0,0.9656336071428248,0.087414925936087,succ_gain,1.0,6.0,338.7202461999841,,xs3,1,2023-03-31_15h28.58.026,threat_forest,2021.2.3,59.9660951699188,True,41.0,0.43333333333333335,0.35059523809523807,-0.9677777777777778,-1.1012358276643992,1,1,1.0,0.3018603834778356,0.087414925936087,0.4444444444444445,0.4444444444444445,0.6666666666666666,0.3333333333333333,0.6666666666666665,0.4444444444444444,6.444444444444445,6.444444444444445,0.0,2.0,1.0,6.0,0,1,1,1,0.087414925936087
10.0,0.0,10.0,0.0,3.0,0.0,3.0,0.0,,,,right,1.694044700008817,345.0480498999823,xs3,331.1943950999994,333.2087293000077,345.0480498999823,,True,6.0,['p'],False,0.4444444444444445,0.6666666666666666,0.3333333333333333,1.0,2.0,0.9656336071428248,-0.2784271604938272,unsucc_cost,1.0,4.0,344.3316923000093,,xs3,1,2023-03-31_15h28.58.026,threat_forest,2021.2.3,59.9660951699188,True,41.0,0.43333333333333335,0.35059523809523807,-0.9677777777777778,-1.1012358276643992,1,1,1.0,0.5271189831360445,-0.2784271604938272,0.0,0.4444444444444445,0.6666666666666666,0.3333333333333333,0.6666666666666665,0.4444444444444444,6.444444444444445,6.444444444444445,0.0,2.0,-1.0,6.0,0,0,1,1,-0.84
10.0,0.0,10.0,0.0,4.0,0.0,4.0,0.0,,,,right,1.543681499984814,350.82946219999576,xs3,350.82946219999576,,346.76312270000926,348.77759509999305,False,4.0,['p'],True,0.18,0.2,0.1,1.0,2.0,0.7058405977926203,0.0243086419753085,wait_cost,0.0,3.0,348.77759509999305,,xs3,1,2023-03-31_15h28.58.026,threat_forest,2021.2.3,59.9660951699188,False,41.0,0.43333333333333335,0.35059523809523807,-0.9677777777777778,-1.1012358276643992,0,0,0.0,0.43417014793019004,0.0243086419753085,0.18,0.18,0.2,0.1,-0.5000000000000002,-0.3800000000000001,3.62,3.62,1.0,2.0,-1.0,4.0,0,1,0,0,0.0243086419753085
10.0,0.0,10.0,0.0,5.0,0.0,5.0,0.0,,,,right,1.928562899993267,355.47193400000106,xs3,355.47193400000106,,346.76312270000926,348.77759509999305,False,3.0,['p'],True,0.18,0.2,0.1,1.0,2.0,0.7058405977926203,0.0264666666666665,wait_cost,0.0,2.0,354.40569719998166,,xs3,1,2023-03-31_15h28.58.026,threat_forest,2021.2.3,59.9660951699188,False,41.0,0.43333333333333335,0.35059523809523807,-0.9677777777777778,-1.1012358276643992,0,0,0.0,0.6567751141535789,0.0264666666666665,0.18,0.18,0.2,0.1,-0.5000000000000002,-0.3800000000000001,2.62,2.62,1.0,2.0,-1.0,3.0,0,1,0,0,0.0264666666666665
10.0,0.0,10.0,0.0,6.0,0.0,6.0,0.0,,,,right,2.0613256999931764,361.99908350000624,xs3,361.99908350000624,,346.76312270000926,348.77759509999305,False,2.0,['p'],True,0.18,0.2,0.1,1.0,2.0,0.7058405977926203,-0.1322222222222222,wait_cost,0.0,1.0,359.43434079998406,,xs3,1,2023-03-31_15h28.58.026,threat_forest,2021.2.3,59.9660951699188,False,41.0,0.43333333333333335,0.35059523809523807,-0.9677777777777778,-1.1012358276643992,0,0,0.0,0.7233493195020578,-0.1322222222222222,0.18,0.18,0.2,0.1,-0.5000000000000002,-0.3800000000000001,1.6199999999999999,1.6199999999999999,1.0,2.0,-1.0,2.0,0,1,0,0,-0.1322222222222222
10.0,0.0,10.0,0.0,7.0,0.0,7.0,0.0,,,,right,1.117797699989751,366.9111906999897,xs3,364.0804116000072,366.0947012999968,366.9111906999897,,True,1.0,['p'],False,0.4444444444444445,0.6666666666666666,0.3333333333333333,1.0,2.0,0.9656336071428248,0.4444444444444444,succ_gain,1.0,3.0,366.0947012999968,,xs3,1,2023-03-31_15h28.58.026,threat_forest,2021.2.3,59.9660951699188,True,41.0,0.43333333333333335,0.35059523809523807,-0.9677777777777778,-1.1012358276643992,1,1,1.0,0.11136041022900617,0.4444444444444444,1.0,0.4444444444444445,0.6666666666666666,0.3333333333333333,0.6666666666666665,0.4444444444444444,1.4444444444444444,1.4444444444444444,0.0,2.0,-1.0,1.0,1,1,1,1,0.625
11.0,0.0,11.0,0.0,0.0,0.0,0.0,0.0,373.55335390000255,377.0573833999806,,right,1.3601756000134628,380.1652805999911,xs3,380.1652805999911,,373.55335390000255,377.0573833999806,False,4.0,['p'],True,0.2777777777777778,0.3333333333333333,0.1666666666666666,1.0,2.0,0.8929352898779304,0.0216341378184502,wait_cost,0.0,3.0,,,xs3,1,2023-03-31_15h28.58.026,threat_forest,2021.2.3,59.9660951699188,False,37.0,0.26666666666666666,0.35,-1.1277777777777778,-1.0477777777777777,0,0,0.0,0.3076138090699514,0.0216341378184502,0.2777777777777778,0.2777777777777778,0.3333333333333333,0.1666666666666666,-0.16666666666666652,-0.05555555555555558,3.9444444444444446,3.9444444444444446,1.0,2.0,1.0,4.0,0,1,0,0,0.0216341378184502
11.0,0.0,11.0,0.0,1.0,0.0,1.0,0.0,,,,left,1.2854043999977876,386.50968889999785,xs3,386.50968889999785,,373.55335390000255,377.0573833999806,True,3.0,['p'],True,0.2777777777777778,0.3333333333333333,0.1666666666666666,1.0,2.0,0.8929352898779304,0.0598929245085531,succ_gain,0.0,5.0,383.5616776999959,,xs3,1,2023-03-31_15h28.58.026,threat_forest,2021.2.3,59.9660951699188,True,37.0,0.26666666666666666,0.35,-1.1277777777777778,-1.0477777777777777,0,0,1.0,0.2510733770064389,0.0598929245085531,0.2777777777777778,0.2777777777777778,0.3333333333333333,0.1666666666666666,-0.16666666666666652,-0.05555555555555558,2.9444444444444446,2.9444444444444446,1.0,2.0,-1.0,3.0,0,1,0,0,0.0598929245085531
11.0,0.0,11.0,0.0,2.0,0.0,2.0,0.0,,,,right,1.2609236999996938,393.5864435999829,xs3,393.5864435999829,,373.55335390000255,377.0573833999806,False,5.0,['p'],True,0.2777777777777778,0.3333333333333333,0.1666666666666666,1.0,2.0,0.8929352898779304,0.0426090492641704,wait_cost,0.0,4.0,389.8392634000047,,xs3,1,2023-03-31_15h28.58.026,threat_forest,2021.2.3,59.9660951699188,False,37.0,0.26666666666666666,0.35,-1.1277777777777778,-1.0477777777777777,0,0,0.0,0.23184454761818157,0.0426090492641704,0.2777777777777778,0.2777777777777778,0.3333333333333333,0.1666666666666666,-0.16666666666666652,-0.05555555555555558,4.944444444444445,4.944444444444445,1.0,2.0,1.0,5.0,0,1,0,0,0.0426090492641704
11.0,0.0,11.0,0.0,3.0,0.0,3.0,0.0,,,,left,2.527191400004085,397.8514914999832,xs3,394.86828460000106,396.8827056000009,397.8514914999832,,False,4.0,['p'],False,0.2,0.2,0.0,0.0,2.0,0.4554859150035951,0.0058641975308642,wait_cost,1.0,3.0,396.8827056000009,,xs3,1,2023-03-31_15h28.58.026,threat_forest,2021.2.3,59.9660951699188,False,37.0,0.26666666666666666,0.35,-1.1277777777777778,-1.0477777777777777,0,0,0.0,0.9271085675259395,0.0058641975308642,0.2,0.2,0.2,0.0,-0.20000000000000018,-0.20000000000000018,3.8,3.8,0.0,2.0,-1.0,4.0,0,1,0,0,0.0058641975308642
11.0,0.0,11.0,0.0,4.0,0.0,4.0,0.0,,,,right,1.1521771000116132,405.9745352999889,xs3,394.86828460000106,396.8827056000009,405.9745352999889,,True,3.0,['p'],False,0.2,0.2,0.0,0.0,2.0,0.4554859150035951,0.1327777777777776,unsucc_cost,1.0,1.0,402.4108586999937,,xs3,1,2023-03-31_15h28.58.026,threat_forest,2021.2.3,59.9660951699188,True,37.0,0.26666666666666666,0.35,-1.1277777777777778,-1.0477777777777777,0,0,1.0,0.14165328310701658,0.1327777777777776,0.2,0.2,0.2,0.0,-0.20000000000000018,-0.20000000000000018,2.8,2.8,0.0,2.0,-1.0,3.0,0,1,0,0,0.1327777777777776
11.0,0.0,11.0,0.0,5.0,0.0,5.0,0.0,,,,left,2.1815426999819465,412.2519716999959,xs3,412.2519716999959,,407.15677609998966,409.1711743999913,True,1.0,['p'],True,0.2777777777777778,0.3333333333333333,0.1666666666666666,1.0,2.0,0.8929352898779304,0.2777777777777777,unsucc_cost,0.0,0.0,409.1711743999913,,xs3,1,2023-03-31_15h28.58.026,threat_forest,2021.2.3,59.9660951699188,True,37.0,0.26666666666666666,0.35,-1.1277777777777778,-1.0477777777777777,0,0,1.0,0.780032287069519,0.2777777777777777,1.0,0.2777777777777778,0.3333333333333333,0.1666666666666666,-0.16666666666666652,-0.05555555555555558,0.9444444444444444,1.0,1.0,2.0,-1.0,1.0,1,1,0,0,0.625
12.0,0.0,12.0,0.0,0.0,0.0,0.0,0.0,417.3942802000092,420.8919844999909,,right,1.1100883999897633,421.8430118999968,xs3,417.3942802000092,420.8919844999909,421.8430118999968,,True,5.0,['r'],False,0.2857142857142857,0.2857142857142857,0.0,0.0,2.0,0.5445684476282007,0.0313986794861317,unsucc_cost,1.0,3.0,,,xs3,1,2023-03-31_15h28.58.026,threat_forest,2021.2.3,59.9660951699188,True,55.0,0.2928571428571428,0.27976190476190477,-1.0485714285714285,-1.0881746031746031,1,1,1.0,0.10443965178359313,0.0313986794861317,0.2857142857142857,0.2857142857142857,0.2857142857142857,0.0,0.1428571428571428,0.1428571428571428,5.142857142857142,5.142857142857142,0.0,2.0,-1.0,5.0,0,1,1,1,0.0313986794861317
12.0,0.0,12.0,0.0,1.0,0.0,1.0,0.0,,,,right,0.9515488999895751,427.2925076999818,xs3,427.2925076999818,,422.9753062000091,424.9896374999953,False,3.0,['r'],True,0.24,0.3,0.2,2.0,2.0,0.9003120349047065,0.0453145987444508,wait_cost,0.0,2.0,424.9896374999953,,xs3,1,2023-03-31_15h28.58.026,threat_forest,2021.2.3,59.9660951699188,False,55.0,0.2928571428571428,0.27976190476190477,-1.0485714285714285,-1.0881746031746031,0,0,0.0,-0.04966420103934204,0.0453145987444508,0.24,0.24,0.3,0.2,-0.3999999999999999,-0.24,2.76,2.76,1.0,2.0,-1.0,3.0,0,1,0,0,0.0453145987444508
12.0,0.0,12.0,0.0,2.0,0.0,2.0,0.0,,,,left,1.8673443000006955,431.38411250000354,xs3,431.38411250000354,,422.9753062000091,424.9896374999953,True,2.0,['r'],True,0.24,0.3,0.2,2.0,2.0,0.9003120349047065,-0.0036804664723032,unsucc_cost,0.0,0.0,430.2847739999997,,xs3,1,2023-03-31_15h28.58.026,threat_forest,2021.2.3,59.9660951699188,True,55.0,0.2928571428571428,0.27976190476190477,-1.0485714285714285,-1.0881746031746031,0,0,1.0,0.6245172610554689,-0.0036804664723032,0.24,0.24,0.3,0.2,-0.3999999999999999,-0.24,1.76,1.76,1.0,2.0,-1.0,2.0,0,1,0,0,-0.0036804664723032
13.0,0.0,13.0,0.0,0.0,0.0,0.0,0.0,436.27089069999056,439.7759136999957,,left,1.8352475999854505,442.792758399999,xs3,436.27089069999056,439.7759136999957,442.792758399999,,False,4.0,['r'],False,0.28125,0.375,0.25,2.0,2.0,0.9634951148421658,-0.0007636143604934,wait_cost,1.0,3.0,,,xs3,1,2023-03-31_15h28.58.026,threat_forest,2021.2.3,59.9660951699188,False,40.0,0.35416666666666663,0.3235119047619047,-0.8958333333333335,-0.972202380952381,0,0,0.0,0.6071794042762274,-0.0007636143604934,0.28125,0.28125,0.375,0.25,-0.25,-0.125,3.875,3.875,0.0,2.0,-1.0,4.0,0,1,0,0,-0.0007636143604934
13.0,0.0,13.0,0.0,1.0,0.0,1.0,0.0,,,,right,1.955960300023435,448.0186224000063,xs3,436.27089069999056,439.7759136999957,448.0186224000063,,True,3.0,['r'],False,0.28125,0.375,0.25,2.0,2.0,0.9634951148421658,0.0525198115612938,figh_cost,1.0,0.0,446.66943690000335,,xs3,1,2023-03-31_15h28.58.026,threat_forest,2021.2.3,59.9660951699188,True,40.0,0.35416666666666663,0.3235119047619047,-0.8958333333333335,-0.972202380952381,0,0,1.0,0.6708812748951123,0.0525198115612938,0.28125,0.28125,0.375,0.25,-0.25,-0.125,2.875,2.875,0.0,2.0,-1.0,3.0,0,1,0,0,0.0525198115612938
14.0,0.0,14.0,0.0,0.0,0.0,0.0,0.0,455.269621799991,458.774760100001,,right,0.7993481000012252,461.4397227999871,xs3,455.269621799991,458.774760100001,461.4397227999871,,True,4.0,['p'],False,0.4444444444444445,0.6666666666666666,0.3333333333333333,1.0,1.0,0.9656336071428248,0.0517531804924914,succ_gain,1.0,5.0,,,xs3,1,2023-03-31_15h28.58.026,threat_forest,2021.2.3,59.9660951699188,True,57.0,0.4583333333333333,0.40625,-1.34375,-1.1197916666666667,1,1,1.0,-0.22395875850378483,0.0517531804924914,0.4444444444444445,0.4444444444444445,0.6666666666666666,0.3333333333333333,0.0,0.0,4.0,4.0,0.0,1.0,-1.0,4.0,0,1,1,1,0.0517531804924914
14.0,0.0,14.0,0.0,1.0,0.0,1.0,0.0,,,,right,0.9525556999724358,466.7677274000016,xs3,455.269621799991,458.774760100001,466.7677274000016,,True,5.0,['p'],False,0.4444444444444445,0.6666666666666666,0.3333333333333333,1.0,1.0,0.9656336071428248,0.0736213037887426,figh_cost,1.0,2.0,464.2863103999989,,xs3,1,2023-03-31_15h28.58.026,threat_forest,2021.2.3,59.9660951699188,True,57.0,0.4583333333333333,0.40625,-1.34375,-1.1197916666666667,1,1,1.0,-0.04860669602968285,0.0736213037887426,0.4444444444444445,0.4444444444444445,0.6666666666666666,0.3333333333333333,0.0,0.0,5.0,5.0,0.0,1.0,1.0,5.0,0,1,1,1,0.0736213037887426
14.0,0.0,14.0,0.0,2.0,0.0,2.0,0.0,,,,left,2.178189600002952,471.33270020000055,xs3,471.33270020000055,,467.7503122999915,469.7645494999888,True,2.0,['p'],True,0.1875,0.25,0.25,2.0,1.0,0.895754137500101,-0.0114500663971287,unsucc_cost,0.0,0.0,469.7645494999888,,xs3,1,2023-03-31_15h28.58.026,threat_forest,2021.2.3,59.9660951699188,True,57.0,0.4583333333333333,0.40625,-1.34375,-1.1197916666666667,0,0,1.0,0.7784940730648865,-0.0114500663971287,0.1875,0.1875,0.25,0.25,-1.0,-0.6875,1.3125,1.3125,1.0,1.0,-1.0,2.0,0,1,0,0,-0.0114500663971287
15.0,0.0,15.0,0.0,0.0,0.0,0.0,0.0,476.6849984999863,480.1881541000039,,right,1.3725690999999642,481.0565067999996,xs3,476.6849984999863,480.1881541000039,481.0565067999996,,True,5.0,['r'],False,0.4081632653061224,0.5714285714285714,0.2857142857142857,2.0,2.0,0.9885754083994552,-0.0170150236195817,succ_gain,1.0,6.0,,,xs3,1,2023-03-31_15h28.58.026,threat_forest,2021.2.3,59.9660951699188,True,64.0,0.5357142857142857,0.49702380952380953,-0.326530612244898,-0.8351403061224489,1,0,1.0,0.31668423921798977,-0.0170150236195817,0.4081632653061224,0.4081632653061224,0.5714285714285714,0.2857142857142857,0.4285714285714285,0.346938775510204,5.346938775510204,5.346938775510204,0.0,2.0,-1.0,5.0,0,1,0,1,-0.0170150236195817
15.0,0.0,15.0,0.0,1.0,0.0,1.0,0.0,,,,right,1.20689339999808,485.4020941999916,xs3,485.4020941999916,,482.45300579999457,484.46744429998216,False,6.0,['r'],True,0.5,0.5,0.0,0.0,2.0,0.6309297535714574,-0.0173681026789934,wait_cost,0.0,5.0,484.46744429998216,,xs3,1,2023-03-31_15h28.58.026,threat_forest,2021.2.3,59.9660951699188,False,64.0,0.5357142857142857,0.49702380952380953,-0.326530612244898,-0.8351403061224489,1,1,0.0,0.18804962006936757,-0.0173681026789934,0.5,0.5,0.5,0.0,1.0,1.0,7.0,7.0,1.0,2.0,1.0,6.0,0,1,1,1,-0.0173681026789934
15.0,0.0,15.0,0.0,2.0,0.0,2.0,0.0,,,,left,0.8077352000109386,492.2604789999896,xs3,492.2604789999896,,482.45300579999457,484.46744429998216,True,5.0,['r'],True,0.5,0.5,0.0,0.0,2.0,0.6309297535714574,0.0975307235914345,unsucc_cost,0.0,3.0,488.6468767999904,,xs3,1,2023-03-31_15h28.58.026,threat_forest,2021.2.3,59.9660951699188,True,64.0,0.5357142857142857,0.49702380952380953,-0.326530612244898,-0.8351403061224489,1,1,1.0,-0.21352099693261997,0.0975307235914345,0.5,0.5,0.5,0.0,1.0,1.0,6.0,6.0,1.0,2.0,-1.0,5.0,0,1,1,1,0.0975307235914345
15.0,0.0,15.0,0.0,3.0,0.0,3.0,0.0,,,,right,1.0795712000108324,497.1409636999888,xs3,493.09313379999367,495.1075539999874,497.1409636999888,,True,3.0,['r'],False,0.4081632653061224,0.5714285714285714,0.2857142857142857,2.0,2.0,0.9885754083994552,0.0196828699073915,succ_gain,1.0,5.0,495.1075539999874,,xs3,1,2023-03-31_15h28.58.026,threat_forest,2021.2.3,59.9660951699188,True,64.0,0.5357142857142857,0.49702380952380953,-0.326530612244898,-0.8351403061224489,1,0,1.0,0.07656392526905191,0.0196828699073915,0.4081632653061224,0.4081632653061224,0.5714285714285714,0.2857142857142857,0.4285714285714285,0.346938775510204,3.3469387755102042,3.3469387755102042,0.0,2.0,-1.0,3.0,0,1,0,1,0.0196828699073915
15.0,0.0,15.0,0.0,4.0,0.0,4.0,0.0,,,,right,1.218959400022868,503.8996472999861,xs3,503.8996472999861,,498.2383169999812,500.2526164999872,False,5.0,['r'],True,0.5,0.5,0.0,0.0,2.0,0.6309297535714574,-0.1814478342357351,wait_cost,0.0,4.0,500.2526164999872,,xs3,1,2023-03-31_15h28.58.026,threat_forest,2021.2.3,59.9660951699188,False,64.0,0.5357142857142857,0.49702380952380953,-0.326530612244898,-0.8351403061224489,1,1,0.0,0.19799754397472286,-0.1814478342357351,0.0,0.5,0.5,0.0,1.0,1.0,6.0,6.0,1.0,2.0,1.0,5.0,0,0,1,1,-0.84
15.0,0.0,15.0,0.0,5.0,0.0,5.0,0.0,,,,left,2.096697699977085,510.7279052000085,xs3,505.14839600000414,507.1627671000024,510.7279052000085,,False,4.0,['r'],False,0.4081632653061224,0.5714285714285714,0.2857142857142857,2.0,2.0,0.9885754083994552,-0.3160662224073303,wait_cost,1.0,3.0,507.1627671000024,,xs3,1,2023-03-31_15h28.58.026,threat_forest,2021.2.3,59.9660951699188,False,64.0,0.5357142857142857,0.49702380952380953,-0.326530612244898,-0.8351403061224489,1,0,0.0,0.7403635831956327,-0.3160662224073303,0.0,0.4081632653061224,0.5714285714285714,0.2857142857142857,0.4285714285714285,0.346938775510204,4.346938775510204,4.346938775510204,0.0,2.0,-1.0,4.0,0,0,0,1,-0.84
15.0,0.0,15.0,0.0,6.0,0.0,6.0,0.0,,,,right,2.0560120999871287,516.3048431999923,xs3,516.3048431999923,,512.841227900004,514.855713099998,False,3.0,['r'],True,0.5,0.5,0.0,0.0,2.0,0.6309297535714574,-0.2729591836734694,wait_cost,0.0,2.0,514.855713099998,,xs3,1,2023-03-31_15h28.58.026,threat_forest,2021.2.3,59.9660951699188,False,64.0,0.5357142857142857,0.49702380952380953,-0.326530612244898,-0.8351403061224489,1,1,0.0,0.7207682327833483,-0.2729591836734694,0.0,0.5,0.5,0.0,1.0,1.0,4.0,4.0,1.0,2.0,-1.0,3.0,0,0,1,1,-0.84
15.0,0.0,15.0,0.0,7.0,0.0,7.0,0.0,,,,right,0.6884511999960523,522.4156235999835,xs3,522.4156235999835,,512.841227900004,514.855713099998,False,2.0,['r'],True,0.5,0.5,0.0,0.0,2.0,0.6309297535714574,-0.5,wait_cost,0.0,1.0,520.400453099981,,xs3,1,2023-03-31_15h28.58.026,threat_forest,2021.2.3,59.9660951699188,False,64.0,0.5357142857142857,0.49702380952380953,-0.326530612244898,-0.8351403061224489,1,1,0.0,-0.3733108420530361,-0.5,0.0,0.5,0.5,0.0,1.0,1.0,3.0,3.0,1.0,2.0,-1.0,2.0,0,0,1,1,-0.84
16.0,0.0,16.0,0.0,0.0,0.0,0.0,0.0,528.4060738999979,531.8998322999978,,left,1.461409499985166,533.1390265999944,xs3,528.4060738999979,531.8998322999978,533.1390265999944,,False,4.0,['r'],False,0.4285714285714285,0.4285714285714285,0.0,0.0,2.0,0.6216097450797565,0.0515952580137115,wait_cost,1.0,3.0,,,xs3,1,2023-03-31_15h28.58.026,threat_forest,2021.2.3,59.9660951699188,False,52.0,0.43650793650793646,0.48611111111111105,-0.5626102292768962,-0.4445704207608971,1,0,0.0,0.37940138095954873,0.0515952580137115,0.4285714285714285,0.4285714285714285,0.4285714285714285,0.0,0.714285714285714,0.714285714285714,4.7142857142857135,4.7142857142857135,0.0,2.0,-1.0,4.0,0,1,0,1,0.0515952580137115
16.0,0.0,16.0,0.0,1.0,0.0,1.0,0.0,,,,left,0.9397070000122768,539.5859655999811,xs3,539.5859655999811,,534.6208771999809,536.6352642999846,True,3.0,['r'],True,0.345679012345679,0.4444444444444444,0.2222222222222222,2.0,2.0,0.9685033186841367,0.0688188688757238,unsucc_cost,0.0,1.0,536.6352642999846,,xs3,1,2023-03-31_15h28.58.026,threat_forest,2021.2.3,59.9660951699188,True,52.0,0.43650793650793646,0.48611111111111105,-0.5626102292768962,-0.4445704207608971,0,0,1.0,-0.06218715442188791,0.0688188688757238,0.345679012345679,0.345679012345679,0.4444444444444444,0.2222222222222222,0.11111111111111105,0.16049382716049376,3.1604938271604937,3.1604938271604937,1.0,2.0,-1.0,3.0,0,1,0,0,0.0688188688757238
16.0,0.0,16.0,0.0,2.0,0.0,2.0,0.0,,,,right,2.014984200010076,545.9770120999892,xs3,545.9770120999892,,534.6208771999809,536.6352642999846,False,1.0,['r'],True,0.345679012345679,0.4444444444444444,0.2222222222222222,2.0,2.0,0.9685033186841367,0.1728580921228106,wait_cost,0.0,0.0,542.5630630999804,,xs3,1,2023-03-31_15h28.58.026,threat_forest,2021.2.3,59.9660951699188,False,52.0,0.43650793650793646,0.48611111111111105,-0.5626102292768962,-0.4445704207608971,0,0,0.0,0.7006113541818376,0.1728580921228106,1.0,0.345679012345679,0.4444444444444444,0.2222222222222222,0.11111111111111105,0.16049382716049376,1.1604938271604937,1.1604938271604937,1.0,2.0,-1.0,1.0,1,1,0,0,0.625
17.0,0.0,17.0,0.0,0.0,0.0,0.0,0.0,550.7134116000088,554.2188296999957,,left,1.2342844999802765,556.8672232999816,xs3,556.8672232999816,,550.7134116000088,554.2188296999957,True,4.0,['p'],True,0.2448979591836734,0.2857142857142857,0.1428571428571428,1.0,2.0,0.8400769154957735,0.0036753268254111,unsucc_cost,0.0,2.0,,,xs3,1,2023-03-31_15h28.58.026,threat_forest,2021.2.3,59.9660951699188,True,42.0,0.39285714285714285,0.41468253968253965,-0.9566326530612245,-0.7596214411690603,0,0,1.0,0.21049144994789099,0.0036753268254111,0.2448979591836734,0.2448979591836734,0.2857142857142857,0.1428571428571428,-0.2857142857142856,-0.16326530612244894,3.836734693877551,3.836734693877551,1.0,2.0,-1.0,4.0,0,1,0,0,0.0036753268254111
17.0,0.0,17.0,0.0,1.0,0.0,1.0,0.0,,,,right,1.6033965999959037,561.2959869999904,xs3,561.2959869999904,,550.7134116000088,554.2188296999957,False,2.0,['p'],True,0.2448979591836734,0.2857142857142857,0.1428571428571428,1.0,2.0,0.8400769154957735,-0.0140542306037918,wait_cost,0.0,1.0,560.1466265000054,,xs3,1,2023-03-31_15h28.58.026,threat_forest,2021.2.3,59.9660951699188,False,42.0,0.39285714285714285,0.41468253968253965,-0.9566326530612245,-0.7596214411690603,0,0,0.0,0.47212425412796083,-0.0140542306037918,0.2448979591836734,0.2448979591836734,0.2857142857142857,0.1428571428571428,-0.2857142857142856,-0.16326530612244894,1.836734693877551,1.836734693877551,1.0,2.0,-1.0,2.0,0,1,0,0,-0.0140542306037918
17.0,0.0,17.0,0.0,2.0,0.0,2.0,0.0,,,,left,1.8205481999902984,567.073845899984,xs3,567.073845899984,,550.7134116000088,554.2188296999957,True,1.0,['p'],True,0.2448979591836734,0.2857142857142857,0.1428571428571428,1.0,2.0,0.8400769154957735,0.0944428399033169,figh_cost,0.0,0.0,564.9425038000045,,xs3,1,2023-03-31_15h28.58.026,threat_forest,2021.2.3,59.9660951699188,True,42.0,0.39285714285714285,0.41468253968253965,-0.9566326530612245,-0.7596214411690603,0,0,1.0,0.599137664520323,0.0944428399033169,1.0,0.2448979591836734,0.2857142857142857,0.1428571428571428,-0.2857142857142856,-0.16326530612244894,0.8367346938775511,1.0,1.0,2.0,-1.0,1.0,1,1,0,0,0.625
0.0,0.0,0.0,0.0,0.0,0.0,0.0,0.0,25.707862900017066,29.217594899993856,,right,1.4266306000063196,32.09441930000321,xs3,32.09441930000321,,25.707862900017066,29.217594899993856,False,5.0,['p'],True,0.3333333333333333,0.3333333333333333,0.0,0.0,1.0,0.5793801642856949,0.0363479425877699,wait_cost,0.0,4.0,,,xs3,2,2023-03-31_15h43.22.540,threat_forest,2021.2.3,59.91694313573705,False,43.0,0.41666666666666663,0.40476190476190477,-1.375,-1.1658163265306123,1,0,0.0,0.35531544023663963,0.0363479425877699,0.3333333333333333,0.3333333333333333,0.3333333333333333,0.0,-2.220446049250313e-16,-2.220446049250313e-16,5.0,5.0,1.0,1.0,-1.0,5.0,0,1,0,1,0.0363479425877699
0.0,0.0,0.0,0.0,1.0,0.0,1.0,0.0,,,,left,1.5311212000087835,38.87793360001524,xs3,33.547232500015525,35.56166050001048,38.87793360001524,,False,4.0,['p'],False,0.25,0.5,0.5,2.0,1.0,0.9463946303571862,0.004766142417374,wait_cost,1.0,3.0,35.56166050001048,,xs3,2,2023-03-31_15h43.22.540,threat_forest,2021.2.3,59.91694313573705,False,43.0,0.41666666666666663,0.40476190476190477,-1.375,-1.1658163265306123,0,0,0.0,0.4260002774931175,0.004766142417374,0.25,0.25,0.5,0.5,-1.0,-0.75,3.25,3.25,0.0,1.0,-1.0,4.0,0,1,0,0,0.004766142417374
0.0,0.0,0.0,0.0,2.0,0.0,2.0,0.0,,,,left,1.3818167999852449,45.83565429999726,xs3,45.83565429999726,,40.4440494000155,42.45520759999636,True,3.0,['p'],True,0.3333333333333333,0.3333333333333333,0.0,0.0,1.0,0.5793801642856949,0.0478897408693415,succ_gain,0.0,4.0,42.45520759999636,,xs3,2,2023-03-31_15h43.22.540,threat_forest,2021.2.3,59.91694313573705,True,43.0,0.41666666666666663,0.40476190476190477,-1.375,-1.1658163265306123,1,0,1.0,0.3233991550426821,0.0478897408693415,0.3333333333333333,0.3333333333333333,0.3333333333333333,0.0,-2.220446049250313e-16,-2.220446049250313e-16,3.0,3.0,1.0,1.0,-1.0,3.0,0,1,0,1,0.0478897408693415
0.0,0.0,0.0,0.0,3.0,0.0,3.0,0.0,,,,left,1.5748257999948692,52.331024300016,xs3,47.234302700002445,49.24884849999216,52.331024300016,,False,4.0,['p'],False,0.25,0.5,0.5,2.0,1.0,0.9463946303571862,-0.026710792824074,wait_cost,1.0,3.0,49.24884849999216,,xs3,2,2023-03-31_15h43.22.540,threat_forest,2021.2.3,59.91694313573705,False,43.0,0.41666666666666663,0.40476190476190477,-1.375,-1.1658163265306123,0,0,0.0,0.454144662982753,-0.026710792824074,0.25,0.25,0.5,0.5,-1.0,-0.75,3.25,3.25,0.0,1.0,1.0,4.0,0,1,0,0,-0.026710792824074
0.0,0.0,0.0,0.0,4.0,0.0,4.0,0.0,,,,right,1.9780974999885077,58.89027110001189,xs3,58.89027110001189,,53.92816870001843,55.94258560001617,False,3.0,['p'],True,0.3333333333333333,0.3333333333333333,0.0,0.0,1.0,0.5793801642856949,0.0815972222222221,wait_cost,0.0,2.0,55.94258560001617,,xs3,2,2023-03-31_15h43.22.540,threat_forest,2021.2.3,59.91694313573705,False,43.0,0.41666666666666663,0.40476190476190477,-1.375,-1.1658163265306123,1,0,0.0,0.6821355241942473,0.0815972222222221,0.3333333333333333,0.3333333333333333,0.3333333333333333,0.0,-2.220446049250313e-16,-2.220446049250313e-16,3.0,3.0,1.0,1.0,-1.0,3.0,0,1,0,1,0.0815972222222221
0.0,0.0,0.0,0.0,5.0,0.0,5.0,0.0,,,,right,0.943980100011686,66.2334710000141,xs3,60.88825680001173,62.90276250001625,66.2334710000141,,True,2.0,['p'],False,0.25,0.5,0.5,2.0,1.0,0.9463946303571862,-0.0416666666666666,fight_cost,1.0,0.0,62.90276250001625,,xs3,2,2023-03-31_15h43.22.540,threat_forest,2021.2.3,59.91694313573705,True,43.0,0.41666666666666663,0.40476190476190477,-1.375,-1.1658163265306123,0,0,1.0,-0.05765019355492851,-0.0416666666666666,0.25,0.25,0.5,0.5,-1.0,-0.75,1.25,1.25,0.0,1.0,-1.0,2.0,0,1,0,0,-0.0416666666666666
1.0,0.0,1.0,0.0,0.0,0.0,0.0,0.0,71.21099789999425,74.72510000001057,,right,1.2048286000208464,76.37624690000666,xs3,76.37624690000666,,71.21099789999425,74.72510000001057,False,4.0,['r'],True,0.2,0.2,0.0,0.0,1.0,0.4554859150035951,0.0014125395763594,wait_cost,0.0,3.0,,,xs3,2,2023-03-31_15h43.22.540,threat_forest,2021.2.3,59.91694313573705,False,39.0,0.43333333333333335,0.425,-1.2000000000000002,-1.2875,0,0,0.0,0.18633731617885763,0.0014125395763594,0.2,0.2,0.2,0.0,-0.40000000000000013,-0.40000000000000013,3.5999999999999996,3.5999999999999996,1.0,1.0,-1.0,4.0,0,1,0,0,0.0014125395763594
1.0,0.0,1.0,0.0,1.0,0.0,1.0,0.0,,,,left,0.9616695000149776,80.17039230000228,xs3,80.17039230000228,,71.21099789999425,74.72510000001057,True,3.0,['r'],True,0.2,0.2,0.0,0.0,1.0,0.4554859150035951,0.0149555685108976,unsucc_cost,0.0,1.0,79.62048820001655,,xs3,2,2023-03-31_15h43.22.540,threat_forest,2021.2.3,59.91694313573705,True,39.0,0.43333333333333335,0.425,-1.2000000000000002,-1.2875,0,0,1.0,-0.039084442422982285,0.0149555685108976,0.2,0.2,0.2,0.0,-0.40000000000000013,-0.40000000000000013,2.5999999999999996,2.5999999999999996,1.0,1.0,-1.0,3.0,0,1,0,0,0.0149555685108976
1.0,0.0,1.0,0.0,2.0,0.0,2.0,0.0,,,,right,1.2854126000020187,84.79934290001984,xs3,81.15273729999899,83.1670945000078,84.79934290001984,,True,1.0,['r'],False,0.4444444444444445,0.6666666666666666,0.3333333333333333,1.0,1.0,0.9656336071428248,0.0696819590509576,unsucc_cost,1.0,0.0,83.1670945000078,,xs3,2,2023-03-31_15h43.22.540,threat_forest,2021.2.3,59.91694313573705,True,39.0,0.43333333333333335,0.425,-1.2000000000000002,-1.2875,1,1,1.0,0.25107975630471735,0.0696819590509576,1.0,0.4444444444444445,0.6666666666666666,0.3333333333333333,0.0,0.0,1.0,1.0,0.0,1.0,-1.0,1.0,1,1,1,1,0.625
2.0,0.0,2.0,0.0,0.0,0.0,0.0,0.0,89.47510300000431,92.97488990001148,,right,0.9390236999897752,96.3624051999941,xs3,89.47510300000431,92.97488990001148,96.3624051999941,,True,4.0,['p'],False,0.2592592592592592,0.3333333333333333,0.2222222222222222,2.0,2.0,0.9327883776363324,0.0060894858457368,unsucc_cost,1.0,2.0,,,xs3,2,2023-03-31_15h43.22.540,threat_forest,2021.2.3,59.91694313573705,True,31.0,0.41666666666666663,0.425,-0.9675925925925928,-1.0837962962962964,0,0,1.0,-0.06291456048666325,0.0060894858457368,0.2592592592592592,0.2592592592592592,0.3333333333333333,0.2222222222222222,-0.3333333333333335,-0.18518518518518556,3.8148148148148144,3.8148148148148144,0.0,2.0,-1.0,4.0,0,1,0,0,0.0060894858457368
2.0,0.0,2.0,0.0,1.0,0.0,1.0,0.0,,,,left,1.8435064000077543,101.8666734000144,xs3,101.8666734000144,,97.32125800001086,99.33542040002068,True,2.0,['p'],True,0.375,0.5,0.25,1.0,2.0,0.9850568223215076,0.0391823915591187,succ_gain,0.0,4.0,99.33542040002068,,xs3,2,2023-03-31_15h43.22.540,threat_forest,2021.2.3,59.91694313573705,True,31.0,0.41666666666666663,0.425,-0.9675925925925928,-1.0837962962962964,1,0,1.0,0.6116694103474161,0.0391823915591187,0.375,0.375,0.5,0.25,0.25,0.25,2.25,2.25,1.0,2.0,-1.0,2.0,0,1,0,1,0.0391823915591187
2.0,0.0,2.0,0.0,2.0,0.0,2.0,0.0,,,,right,1.4912216999800876,109.02664280001773,xs3,109.02664280001773,,97.32125800001086,99.33542040002068,False,4.0,['p'],True,0.375,0.5,0.25,1.0,2.0,0.9850568223215076,0.0892770475823541,wait_cost,0.0,3.0,105.74621430001572,,xs3,2,2023-03-31_15h43.22.540,threat_forest,2021.2.3,59.91694313573705,False,31.0,0.41666666666666663,0.425,-0.9675925925925928,-1.0837962962962964,1,0,0.0,0.3995957168685833,0.0892770475823541,0.375,0.375,0.5,0.25,0.25,0.25,4.25,4.25,1.0,2.0,1.0,4.0,0,1,0,1,0.0892770475823541
2.0,0.0,2.0,0.0,3.0,0.0,3.0,0.0,,,,left,2.0376881000120197,115.48726280001574,xs3,115.48726280001574,,97.32125800001086,99.33542040002068,True,3.0,['p'],True,0.375,0.5,0.25,1.0,2.0,0.9850568223215076,0.0834985543198565,fight_cost,0.0,0.0,112.55635530001018,,xs3,2,2023-03-31_15h43.22.540,threat_forest,2021.2.3,59.91694313573705,True,31.0,0.41666666666666663,0.425,-0.9675925925925928,-1.0837962962962964,1,0,1.0,0.711815880896046,0.0834985543198565,0.375,0.375,0.5,0.25,0.25,0.25,3.25,3.25,1.0,2.0,-1.0,3.0,0,1,0,1,0.0834985543198565
3.0,0.0,3.0,0.0,0.0,0.0,0.0,0.0,123.07338859999436,126.57818680000491,,left,1.2375525000097696,127.82807390001835,xs3,123.07338859999436,126.57818680000491,127.82807390001835,,False,5.0,['p'],False,0.2,0.2,0.0,0.0,2.0,0.4554859150035951,-0.008629770690918,wait_cost,1.0,4.0,,,xs3,2,2023-03-31_15h43.22.540,threat_forest,2021.2.3,59.91694313573705,False,45.0,0.35,0.3833333333333333,-0.9750000000000001,-0.9712962962962964,0,0,0.0,0.2131356388111441,-0.008629770690918,0.2,0.2,0.2,0.0,-0.20000000000000018,-0.20000000000000018,4.8,4.8,0.0,2.0,-1.0,5.0,0,1,0,0,-0.008629770690918
3.0,0.0,3.0,0.0,1.0,0.0,1.0,0.0,,,,right,1.954422300012084,132.4228143999935,xs3,132.4228143999935,,129.0913384000014,131.1056854000199,False,4.0,['p'],True,0.375,0.5,0.25,1.0,2.0,0.9850568223215076,0.0734104812622071,wait_cost,0.0,3.0,131.1056854000199,,xs3,2,2023-03-31_15h43.22.540,threat_forest,2021.2.3,59.91694313573705,False,45.0,0.35,0.3833333333333333,-0.9750000000000001,-0.9712962962962964,1,0,0.0,0.6700946510539344,0.0734104812622071,0.375,0.375,0.5,0.25,0.25,0.25,4.25,4.25,1.0,2.0,-1.0,4.0,0,1,0,1,0.0734104812622071
3.0,0.0,3.0,0.0,2.0,0.0,2.0,0.0,,,,right,1.5952716000028886,139.51479640000616,xs3,139.51479640000616,,129.0913384000014,131.1056854000199,False,3.0,['p'],True,0.375,0.5,0.25,1.0,2.0,0.9850568223215076,0.11035595703125,wait_cost,0.0,2.0,136.41744700001436,,xs3,2,2023-03-31_15h43.22.540,threat_forest,2021.2.3,59.91694313573705,False,45.0,0.35,0.3833333333333333,-0.9750000000000001,-0.9712962962962964,1,0,0.0,0.4670440038739235,0.11035595703125,0.375,0.375,0.5,0.25,0.25,0.25,3.25,3.25,1.0,2.0,-1.0,3.0,0,1,0,1,0.11035595703125
3.0,0.0,3.0,0.0,3.0,0.0,3.0,0.0,,,,right,1.9550045999931167,146.84127150001586,xs3,146.84127150001586,,129.0913384000014,131.1056854000199,False,2.0,['p'],True,0.375,0.5,0.25,1.0,2.0,0.9850568223215076,0.0630507812499999,wait_cost,0.0,1.0,143.14449100001366,,xs3,2,2023-03-31_15h43.22.540,threat_forest,2021.2.3,59.91694313573705,False,45.0,0.35,0.3833333333333333,-0.9750000000000001,-0.9712962962962964,1,0,0.0,0.6703925463722166,0.0630507812499999,0.375,0.375,0.5,0.25,0.25,0.25,2.25,2.25,1.0,2.0,-1.0,2.0,0,1,0,1,0.0630507812499999
3.0,0.0,3.0,0.0,4.0,0.0,4.0,0.0,,,,left,0.7861139999877196,153.5849126999965,xs3,153.5849126999965,,129.0913384000014,131.1056854000199,True,1.0,['p'],True,0.375,0.5,0.25,1.0,2.0,0.9850568223215076,0.17115234375,fight_cost,0.0,0.0,150.83721810000134,,xs3,2,2023-03-31_15h43.22.540,threat_forest,2021.2.3,59.91694313573705,True,45.0,0.35,0.3833333333333333,-0.9750000000000001,-0.9712962962962964,1,0,1.0,-0.24065345891763143,0.17115234375,1.0,0.375,0.5,0.25,0.25,0.25,1.25,1.25,1.0,2.0,-1.0,1.0,1,1,0,1,0.625
4.0,0.0,4.0,0.0,0.0,0.0,0.0,0.0,157.84195560001535,161.34663720001117,,left,1.5199259000073653,164.61092770000687,xs3,157.84195560001535,161.34663720001117,164.61092770000687,,False,4.0,['r'],False,0.24,0.3,0.2,2.0,1.0,0.9003120349047065,0.0028177647265513,wait_cost,1.0,3.0,,,xs3,2,2023-03-31_15h43.22.540,threat_forest,2021.2.3,59.91694313573705,False,9.0,0.4,0.375,-1.3025,-1.13875,0,0,0.0,0.41866158367471096,0.0028177647265513,0.24,0.24,0.3,0.2,-0.7,-0.48,3.52,3.52,0.0,1.0,-1.0,4.0,0,1,0,0,0.0028177647265513
4.0,0.0,4.0,0.0,1.0,0.0,1.0,0.0,,,,left,1.325737000006484,170.1364836000139,xs3,157.84195560001535,161.34663720001117,170.1364836000139,,False,3.0,['r'],False,0.24,0.3,0.2,2.0,1.0,0.9003120349047065,0.0143436775355859,wait_cost,1.0,2.0,168.17117089999374,,xs3,2,2023-03-31_15h43.22.540,threat_forest,2021.2.3,59.91694313573705,False,9.0,0.4,0.375,-1.3025,-1.13875,0,0,0.0,0.2819685312215977,0.0143436775355859,0.24,0.24,0.3,0.2,-0.7,-0.48,2.52,2.52,0.0,1.0,-1.0,3.0,0,1,0,0,0.0143436775355859
4.0,0.0,4.0,0.0,2.0,0.0,2.0,0.0,,,,left,0.9598786999995356,175.499622000003,xs3,175.499622000003,,171.48506310000084,173.4993797999923,True,2.0,['r'],True,0.375,0.5,0.25,1.0,1.0,0.9850568223215076,0.0323046653466796,succ_gain,0.0,3.0,173.4993797999923,,xs3,2,2023-03-31_15h43.22.540,threat_forest,2021.2.3,59.91694313573705,True,9.0,0.4,0.375,-1.3025,-1.13875,1,0,1.0,-0.04094835667076585,0.0323046653466796,0.375,0.375,0.5,0.25,-0.25,-0.125,1.875,1.875,1.0,1.0,-1.0,2.0,0,1,0,1,0.0323046653466796
4.0,0.0,4.0,0.0,3.0,0.0,3.0,0.0,,,,left,2.145860899996478,180.7120893000101,xs3,176.48026300000492,178.49478080001427,180.7120893000101,,False,3.0,['r'],False,0.24,0.3,0.2,2.0,1.0,0.9003120349047065,0.037756659375,wait_cost,1.0,2.0,178.49478080001427,,xs3,2,2023-03-31_15h43.22.540,threat_forest,2021.2.3,59.91694313573705,False,9.0,0.4,0.375,-1.3025,-1.13875,0,0,0.0,0.7635408238395285,0.037756659375,0.24,0.24,0.3,0.2,-0.7,-0.48,2.52,2.52,0.0,1.0,1.0,3.0,0,1,0,0,0.037756659375
4.0,0.0,4.0,0.0,4.0,0.0,4.0,0.0,,,,left,1.292039099993417,185.65522149999745,xs3,176.48026300000492,178.49478080001427,185.65522149999745,,False,2.0,['r'],False,0.24,0.3,0.2,2.0,1.0,0.9003120349047065,0.0033671249999999,wait_cost,1.0,1.0,184.8889089000004,,xs3,2,2023-03-31_15h43.22.540,threat_forest,2021.2.3,59.91694313573705,False,9.0,0.4,0.375,-1.3025,-1.13875,0,0,0.0,0.25622166805528973,0.0033671249999999,0.24,0.24,0.3,0.2,-0.7,-0.48,1.52,1.52,0.0,1.0,-1.0,2.0,0,1,0,0,0.0033671249999999
4.0,0.0,4.0,0.0,5.0,0.0,5.0,0.0,,,,right,0.6567926999996416,191.9159196999972,xs3,176.48026300000492,178.49478080001427,191.9159196999972,,True,1.0,['r'],False,0.24,0.3,0.2,2.0,1.0,0.9003120349047065,0.0818999999999999,unsucc_cost,1.0,0.0,188.985038600018,,xs3,2,2023-03-31_15h43.22.540,threat_forest,2021.2.3,59.91694313573705,True,9.0,0.4,0.375,-1.3025,-1.13875,0,0,1.0,-0.42038683540074956,0.0818999999999999,1.0,0.24,0.3,0.2,-0.7,-0.48,0.52,1.0,0.0,1.0,-1.0,1.0,1,1,0,0,0.625
5.0,0.0,5.0,0.0,0.0,0.0,0.0,0.0,195.7339342000196,199.2420838999969,,left,1.2218404000159353,200.10823230000096,xs3,200.10823230000096,,195.7339342000196,199.2420838999969,True,4.0,['p'],True,0.25,0.5,0.5,2.0,2.0,0.9463946303571862,-0.0085880818517447,succ_gain,0.0,6.0,,,xs3,2,2023-03-31_15h43.22.540,threat_forest,2021.2.3,59.91694313573705,True,70.0,0.41666666666666663,0.4083333333333333,-1.0833333333333335,-1.1929166666666666,0,0,1.0,0.20035824666814805,-0.0085880818517447,0.25,0.25,0.5,0.5,-0.5,-0.5,3.5,3.5,1.0,2.0,-1.0,4.0,0,1,0,0,-0.0085880818517447
5.0,0.0,5.0,0.0,1.0,0.0,1.0,0.0,,,,left,0.9504461000033188,204.35420729999896,xs3,201.35955680001643,203.37145330000203,204.35420729999896,,False,6.0,['p'],False,0.3333333333333333,0.3333333333333333,0.0,0.0,2.0,0.5793801642856949,-0.0609929591049383,wait_cost,1.0,5.0,203.37145330000203,,xs3,2,2023-03-31_15h43.22.540,threat_forest,2021.2.3,59.91694313573705,False,70.0,0.41666666666666663,0.4083333333333333,-1.0833333333333335,-1.1929166666666666,1,0,0.0,-0.05082382565438165,-0.0609929591049383,0.3333333333333333,0.3333333333333333,0.3333333333333333,0.0,0.33333333333333315,0.33333333333333315,6.333333333333333,6.333333333333333,0.0,2.0,1.0,6.0,0,1,0,1,-0.0609929591049383
5.0,0.0,5.0,0.0,2.0,0.0,2.0,0.0,,,,right,1.6901331999979448,210.66638500001864,xs3,210.66638500001864,,205.33662859999455,207.3512013000145,False,5.0,['p'],True,0.25,0.5,0.5,2.0,2.0,0.9463946303571862,-0.068383487654321,wait_cost,0.0,4.0,207.3512013000145,,xs3,2,2023-03-31_15h43.22.540,threat_forest,2021.2.3,59.91694313573705,False,70.0,0.41666666666666663,0.4083333333333333,-1.0833333333333335,-1.1929166666666666,0,0,0.0,0.524807342395951,-0.068383487654321,0.25,0.25,0.5,0.5,-0.5,-0.5,4.5,4.5,1.0,2.0,-1.0,5.0,0,1,0,0,-0.068383487654321
5.0,0.0,5.0,0.0,3.0,0.0,3.0,0.0,,,,right,1.5720732000190765,215.5272152000107,xs3,215.5272152000107,,205.33662859999455,207.3512013000145,False,4.0,['p'],True,0.25,0.5,0.5,2.0,2.0,0.9463946303571862,-0.0351924189814815,wait_cost,0.0,3.0,214.3945756000176,,xs3,2,2023-03-31_15h43.22.540,threat_forest,2021.2.3,59.91694313573705,False,70.0,0.41666666666666663,0.4083333333333333,-1.0833333333333335,-1.1929166666666666,0,0,0.0,0.45239525782053497,-0.0351924189814815,0.25,0.25,0.5,0.5,-0.5,-0.5,3.5,3.5,1.0,2.0,-1.0,4.0,0,1,0,0,-0.0351924189814815
5.0,0.0,5.0,0.0,4.0,0.0,4.0,0.0,,,,right,1.8971745999879204,220.9224699000188,xs3,220.9224699000188,,205.33662859999455,207.3512013000145,False,3.0,['p'],True,0.25,0.5,0.5,2.0,2.0,0.9463946303571862,0.0104166666666666,wait_cost,0.0,2.0,219.14006390000577,,xs3,2,2023-03-31_15h43.22.540,threat_forest,2021.2.3,59.91694313573705,False,70.0,0.41666666666666663,0.4083333333333333,-1.0833333333333335,-1.1929166666666666,0,0,0.0,0.640365726774341,0.0104166666666666,0.25,0.25,0.5,0.5,-0.5,-0.5,2.5,2.5,1.0,2.0,-1.0,3.0,0,1,0,0,0.0104166666666666
5.0,0.0,5.0,0.0,5.0,0.0,5.0,0.0,,,,left,1.6424088000203485,228.2489845000091,xs3,228.2489845000091,,205.33662859999455,207.3512013000145,True,2.0,['p'],True,0.25,0.5,0.5,2.0,2.0,0.9463946303571862,-0.0416666666666666,unsucc_cost,0.0,0.0,224.85146659999737,,xs3,2,2023-03-31_15h43.22.540,threat_forest,2021.2.3,59.91694313573705,True,70.0,0.41666666666666663,0.4083333333333333,-1.0833333333333335,-1.1929166666666666,0,0,1.0,0.4961639447332865,-0.0416666666666666,0.25,0.25,0.5,0.5,-0.5,-0.5,1.5,1.5,1.0,2.0,-1.0,2.0,0,1,0,0,-0.0416666666666666
6.0,0.0,6.0,0.0,0.0,0.0,0.0,0.0,235.36870409999392,238.8739254999964,,right,1.1833278999838512,242.3686941000051,xs3,235.36870409999392,238.8739254999964,242.3686941000051,,True,5.0,['r'],False,0.48,0.6,0.2,1.0,1.0,0.9455672104350704,0.0603064788559827,succ_gain,1.0,6.0,,,xs3,2,2023-03-31_15h43.22.540,threat_forest,2021.2.3,59.91694313573705,True,4.0,0.4666666666666667,0.44166666666666665,-0.9911111111111113,-1.0372222222222223,1,1,1.0,0.16833072324573087,0.0603064788559827,0.48,0.48,0.6,0.2,0.19999999999999984,0.23999999999999977,5.24,5.24,0.0,1.0,-1.0,5.0,0,1,1,1,0.0603064788559827
6.0,0.0,6.0,0.0,1.0,0.0,1.0,0.0,,,,right,0.9198995000042488,247.08441219999804,xs3,247.08441219999804,,243.58420569999728,245.59869000001345,False,6.0,['r'],True,0.2962962962962963,0.3333333333333333,0.1111111111111111,1.0,1.0,0.8325252476189534,-0.1377614848417467,wait_cost,0.0,5.0,245.59869000001345,,xs3,2,2023-03-31_15h43.22.540,threat_forest,2021.2.3,59.91694313573705,False,4.0,0.4666666666666667,0.44166666666666665,-0.9911111111111113,-1.0372222222222223,0,0,0.0,-0.08349085403189543,-0.1377614848417467,0.2962962962962963,0.2962962962962963,0.3333333333333333,0.1111111111111111,-0.3333333333333335,-0.22222222222222232,5.777777777777778,5.777777777777778,1.0,1.0,1.0,6.0,0,1,0,0,-0.1377614848417467
6.0,0.0,6.0,0.0,2.0,0.0,2.0,0.0,,,,right,2.3013057000061963,251.0940849000181,xs3,251.0940849000181,,243.58420569999728,245.59869000001345,False,5.0,['r'],True,0.2962962962962963,0.3333333333333333,0.1111111111111111,1.0,1.0,0.8325252476189534,-0.0290437119105894,wait_cost,0.0,4.0,250.0445630000031,,xs3,2,2023-03-31_15h43.22.540,threat_forest,2021.2.3,59.91694313573705,False,4.0,0.4666666666666667,0.44166666666666665,-0.9911111111111113,-1.0372222222222223,0,0,0.0,0.833476657511753,-0.0290437119105894,0.2962962962962963,0.2962962962962963,0.3333333333333333,0.1111111111111111,-0.3333333333333335,-0.22222222222222232,4.777777777777778,4.777777777777778,1.0,1.0,-1.0,5.0,0,1,0,0,-0.0290437119105894
6.0,0.0,6.0,0.0,3.0,0.0,3.0,0.0,,,,right,0.9922138999972958,259.1207254000183,xs3,253.4252109999943,255.43955830001505,259.1207254000183,,True,4.0,['r'],False,0.48,0.6,0.2,1.0,1.0,0.9455672104350704,0.1000718415363511,fight_cost,1.0,1.0,255.43955830001505,,xs3,2,2023-03-31_15h43.22.540,threat_forest,2021.2.3,59.91694313573705,True,4.0,0.4666666666666667,0.44166666666666665,-0.9911111111111113,-1.0372222222222223,1,1,1.0,-0.007816569943718755,0.1000718415363511,0.48,0.48,0.6,0.2,0.19999999999999984,0.23999999999999977,4.24,4.24,0.0,1.0,-1.0,4.0,0,1,1,1,0.1000718415363511
6.0,0.0,6.0,0.0,4.0,0.0,4.0,0.0,,,,right,1.627952099981485,264.8643224000116,xs3,253.4252109999943,255.43955830001505,264.8643224000116,,True,1.0,['r'],False,0.48,0.6,0.2,1.0,1.0,0.9455672104350704,0.2083555555555555,unsucc_cost,1.0,0.0,262.1499539999932,,xs3,2,2023-03-31_15h43.22.540,threat_forest,2021.2.3,59.91694313573705,True,4.0,0.4666666666666667,0.44166666666666665,-0.9911111111111113,-1.0372222222222223,1,1,1.0,0.4873228445316994,0.2083555555555555,1.0,0.48,0.6,0.2,0.19999999999999984,0.23999999999999977,1.2399999999999998,1.2399999999999998,0.0,1.0,-1.0,1.0,1,1,1,1,0.625
7.0,0.0,7.0,0.0,0.0,0.0,0.0,0.0,269.6174806000199,273.12287520000245,,right,1.349694999982603,276.4870380000212,xs3,276.4870380000212,,269.6174806000199,273.12287520000245,False,5.0,['r'],True,0.4,0.4,0.0,0.0,1.0,0.6126016192893442,0.0454165613168723,wait_cost,0.0,4.0,,,xs3,2,2023-03-31_15h43.22.540,threat_forest,2021.2.3,59.91694313573705,False,7.0,0.45,0.45833333333333337,-1.0666666666666667,-1.028888888888889,1,0,0.0,0.2998786409864159,0.0454165613168723,0.4,0.4,0.4,0.0,0.20000000000000007,0.20000000000000007,5.2,5.2,1.0,1.0,-1.0,5.0,0,1,0,1,0.0454165613168723
7.0,0.0,7.0,0.0,1.0,0.0,1.0,0.0,,,,left,1.600889900000766,281.3180510000093,xs3,277.8688664000074,279.88335030002054,281.3180510000093,,False,4.0,['r'],False,0.3333333333333333,0.5,0.3333333333333333,2.0,1.0,1.0,0.0180980452674897,wait_cost,1.0,3.0,279.88335030002054,,xs3,2,2023-03-31_15h43.22.540,threat_forest,2021.2.3,59.91694313573705,False,7.0,0.45,0.45833333333333337,-1.0666666666666667,-1.028888888888889,0,0,0.0,0.4705596621312737,0.0180980452674897,0.3333333333333333,0.3333333333333333,0.5,0.3333333333333333,-0.5,-0.3333333333333335,3.6666666666666665,3.6666666666666665,0.0,1.0,-1.0,4.0,0,1,0,0,0.0180980452674897
7.0,0.0,7.0,0.0,2.0,0.0,2.0,0.0,,,,left,1.1174807000206783,287.22676620000857,xs3,287.22676620000857,,282.9474718999991,284.96192210001755,True,3.0,['r'],True,0.4,0.4,0.0,0.0,1.0,0.6126016192893442,0.0771534567901235,unsucc_cost,0.0,1.0,284.96192210001755,,xs3,2,2023-03-31_15h43.22.540,threat_forest,2021.2.3,59.91694313573705,True,7.0,0.45,0.45833333333333337,-1.0666666666666667,-1.028888888888889,1,0,1.0,0.11107677668143882,0.0771534567901235,0.4,0.4,0.4,0.0,0.20000000000000007,0.20000000000000007,3.2,3.2,1.0,1.0,-1.0,3.0,0,1,0,1,0.0771534567901235
7.0,0.0,7.0,0.0,3.0,0.0,3.0,0.0,,,,left,1.322212800005218,292.0389436999976,xs3,288.3756149999972,290.39269619999686,292.0389436999976,,False,1.0,['r'],False,0.3333333333333333,0.5,0.3333333333333333,2.0,1.0,1.0,0.0657283950617283,wait_cost,1.0,0.0,290.39269619999686,,xs3,2,2023-03-31_15h43.22.540,threat_forest,2021.2.3,59.91694313573705,False,7.0,0.45,0.45833333333333337,-1.0666666666666667,-1.028888888888889,0,0,0.0,0.27930669670940017,0.0657283950617283,1.0,0.3333333333333333,0.5,0.3333333333333333,-0.5,-0.3333333333333335,0.6666666666666665,1.0,0.0,1.0,-1.0,1.0,1,1,0,0,0.625
8.0,0.0,8.0,0.0,0.0,0.0,0.0,0.0,298.21064500001376,301.7128073000058,,right,1.6506715999857988,302.6169914000202,xs3,302.6169914000202,,298.21064500001376,301.7128073000058,False,4.0,['p'],True,0.16,0.2,0.2,2.0,2.0,0.8198746470064713,0.0025632255999997,wait_cost,0.0,3.0,,,xs3,2,2023-03-31_15h43.22.540,threat_forest,2021.2.3,59.91694313573705,False,65.0,0.30000000000000004,0.375,-1.5000000000000002,-1.2833333333333334,0,0,0.0,0.5011822353925537,0.0025632255999997,0.16,0.16,0.2,0.2,-0.8000000000000003,-0.5600000000000003,3.4399999999999995,3.4399999999999995,1.0,2.0,-1.0,4.0,0,1,0,0,0.0025632255999997
8.0,0.0,8.0,0.0,1.0,0.0,1.0,0.0,,,,left,2.1281600999936927,307.425662499998,xs3,304.2943841000088,306.30864870001096,307.425662499998,,False,3.0,['p'],False,0.24,0.4,0.4,2.0,2.0,0.9801625908629508,0.0302303999999999,wait_cost,1.0,2.0,306.30864870001096,,xs3,2,2023-03-31_15h43.22.540,threat_forest,2021.2.3,59.91694313573705,False,65.0,0.30000000000000004,0.375,-1.5000000000000002,-1.2833333333333334,0,0,0.0,0.7552578036088324,0.0302303999999999,0.24,0.24,0.4,0.4,-0.6000000000000001,-0.44000000000000017,2.5599999999999996,2.5599999999999996,0.0,2.0,-1.0,3.0,0,1,0,0,0.0302303999999999
8.0,0.0,8.0,0.0,2.0,0.0,2.0,0.0,,,,right,1.4658151999756228,312.5364105000044,xs3,304.2943841000088,306.30864870001096,312.5364105000044,,True,2.0,['p'],False,0.24,0.4,0.4,2.0,2.0,0.9801625908629508,0.0187199999999999,fight_cost,1.0,0.0,311.5704121000017,,xs3,2,2023-03-31_15h43.22.540,threat_forest,2021.2.3,59.91694313573705,True,65.0,0.30000000000000004,0.375,-1.5000000000000002,-1.2833333333333334,0,0,1.0,0.3824115382031681,0.0187199999999999,0.24,0.24,0.4,0.4,-0.6000000000000001,-0.44000000000000017,1.5599999999999998,1.5599999999999998,0.0,2.0,-1.0,2.0,0,1,0,0,0.0187199999999999
9.0,0.0,9.0,0.0,0.0,0.0,0.0,0.0,319.7881802000047,323.29272440000204,,right,1.565626700001303,326.44020490002003,xs3,326.44020490002003,,319.7881802000047,323.29272440000204,False,5.0,['p'],True,0.4,0.4,0.0,0.0,2.0,0.6126016192893442,0.0501704926254868,wait_cost,0.0,4.0,,,xs3,2,2023-03-31_15h43.22.540,threat_forest,2021.2.3,59.91694313573705,False,33.0,0.41428571428571426,0.35714285714285715,-0.7306122448979593,-1.1153061224489798,1,1,0.0,0.4482861911196787,0.0501704926254868,0.4,0.4,0.4,0.0,0.6000000000000001,0.6000000000000001,5.6,5.6,1.0,2.0,-1.0,5.0,0,1,1,1,0.0501704926254868
9.0,0.0,9.0,0.0,1.0,0.0,1.0,0.0,,,,left,1.103016700013541,331.63566150001134,xs3,331.63566150001134,,319.7881802000047,323.29272440000204,True,4.0,['p'],True,0.4,0.4,0.0,0.0,2.0,0.6126016192893442,0.0773262829540863,unsucc_cost,0.0,2.0,330.05307059999905,,xs3,2,2023-03-31_15h43.22.540,threat_forest,2021.2.3,59.91694313573705,True,33.0,0.41428571428571426,0.35714285714285715,-0.7306122448979593,-1.1153061224489798,1,1,1.0,0.09804888069486369,0.0773262829540863,0.4,0.4,0.4,0.0,0.6000000000000001,0.6000000000000001,4.6,4.6,1.0,2.0,-1.0,4.0,0,1,1,1,0.0773262829540863
9.0,0.0,9.0,0.0,2.0,0.0,2.0,0.0,,,,left,1.154371699987678,337.6487008999975,xs3,332.7675910000107,334.7819760999992,337.6487008999975,,False,2.0,['p'],False,0.3061224489795918,0.4285714285714285,0.2857142857142857,2.0,2.0,0.9885754083994552,-0.0104027488546438,wait_cost,1.0,1.0,334.7819760999992,,xs3,2,2023-03-31_15h43.22.540,threat_forest,2021.2.3,59.91694313573705,False,33.0,0.41428571428571426,0.35714285714285715,-0.7306122448979593,-1.1153061224489798,1,0,0.0,0.14355621326683995,-0.0104027488546438,0.3061224489795918,0.3061224489795918,0.4285714285714285,0.2857142857142857,-0.14285714285714324,-0.06122448979591866,1.9387755102040813,1.9387755102040813,0.0,2.0,-1.0,2.0,0,1,0,1,-0.0104027488546438
9.0,0.0,9.0,0.0,3.0,0.0,3.0,0.0,,,,right,0.9546213000139688,343.7582055999956,xs3,332.7675910000107,334.7819760999992,343.7582055999956,,True,1.0,['p'],False,0.3061224489795918,0.4285714285714285,0.2857142857142857,2.0,2.0,0.9885754083994552,0.1625610927419696,succ_gain,1.0,3.0,340.8429926999961,,xs3,2,2023-03-31_15h43.22.540,threat_forest,2021.2.3,59.91694313573705,True,33.0,0.41428571428571426,0.35714285714285715,-0.7306122448979593,-1.1153061224489798,1,0,1.0,-0.04644056163395443,0.1625610927419696,1.0,0.3061224489795918,0.4285714285714285,0.2857142857142857,-0.14285714285714324,-0.06122448979591866,0.9387755102040813,1.0,0.0,2.0,-1.0,1.0,1,1,0,1,0.625
9.0,0.0,9.0,0.0,4.0,0.0,4.0,0.0,,,,left,2.6001234000141267,348.4862453000096,xs3,332.7675910000107,334.7819760999992,348.4862453000096,,False,3.0,['p'],False,0.3061224489795918,0.4285714285714285,0.2857142857142857,2.0,2.0,0.9885754083994552,0.0736984589754268,wait_cost,1.0,2.0,346.7542356000049,,xs3,2,2023-03-31_15h43.22.540,threat_forest,2021.2.3,59.91694313573705,False,33.0,0.41428571428571426,0.35714285714285715,-0.7306122448979593,-1.1153061224489798,1,0,0.0,0.9555589054450678,0.0736984589754268,0.3061224489795918,0.3061224489795918,0.4285714285714285,0.2857142857142857,-0.14285714285714324,-0.06122448979591866,2.9387755102040813,2.9387755102040813,0.0,2.0,1.0,3.0,0,1,0,1,0.0736984589754268
9.0,0.0,9.0,0.0,5.0,0.0,5.0,0.0,,,,left,2.224820400006138,356.46196010001586,xs3,356.46196010001586,,351.1170630000124,353.13147740002023,True,2.0,['p'],True,0.4,0.4,0.0,0.0,2.0,0.6126016192893442,0.046938775510204,succ_gain,0.0,4.0,353.13147740002023,,xs3,2,2023-03-31_15h43.22.540,threat_forest,2021.2.3,59.91694313573705,True,33.0,0.41428571428571426,0.35714285714285715,-0.7306122448979593,-1.1153061224489798,1,1,1.0,0.7996761932618768,0.046938775510204,0.4,0.4,0.4,0.0,0.6000000000000001,0.6000000000000001,2.6,2.6,1.0,2.0,-1.0,2.0,0,1,1,1,0.046938775510204
9.0,0.0,9.0,0.0,6.0,0.0,6.0,0.0,,,,left,0.5400774000154343,362.1617565000197,xs3,358.70989779999945,360.7243664000125,362.1617565000197,,False,4.0,['p'],False,0.3061224489795918,0.4285714285714285,0.2857142857142857,2.0,2.0,0.9885754083994552,-0.1848396501457725,wait_cost,1.0,3.0,360.7243664000125,,xs3,2,2023-03-31_15h43.22.540,threat_forest,2021.2.3,59.91694313573705,False,33.0,0.41428571428571426,0.35714285714285715,-0.7306122448979593,-1.1153061224489798,1,0,0.0,-0.6160428163331466,-0.1848396501457725,0.0,0.3061224489795918,0.4285714285714285,0.2857142857142857,-0.14285714285714324,-0.06122448979591866,3.9387755102040813,3.9387755102040813,0.0,2.0,1.0,4.0,0,0,0,1,-0.84
9.0,0.0,9.0,0.0,7.0,0.0,7.0,0.0,,,,left,0.4989702999882865,367.7182652000047,xs3,358.70989779999945,360.7243664000125,367.7182652000047,,False,3.0,['p'],False,0.3061224489795918,0.4285714285714285,0.2857142857142857,2.0,2.0,0.9885754083994552,-0.2857142857142857,wait_cost,1.0,2.0,364.7372981999943,,xs3,2,2023-03-31_15h43.22.540,threat_forest,2021.2.3,59.91694313573705,False,33.0,0.41428571428571426,0.35714285714285715,-0.7306122448979593,-1.1153061224489798,1,0,0.0,-0.6952087040634981,-0.2857142857142857,0.0,0.3061224489795918,0.4285714285714285,0.2857142857142857,-0.14285714285714324,-0.06122448979591866,2.9387755102040813,2.9387755102040813,0.0,2.0,-1.0,3.0,0,0,0,1,-0.84
10.0,0.0,10.0,0.0,0.0,0.0,0.0,0.0,371.5473812000128,375.0526186999923,,right,1.4593611000163946,376.9114722000086,xs3,371.5473812000128,375.0526186999923,376.9114722000086,,True,5.0,['r'],False,0.625,0.625,0.0,0.0,2.0,0.6021808102656677,0.0512514556375116,succ_gain,1.0,6.0,,,xs3,2,2023-03-31_15h43.22.540,threat_forest,2021.2.3,59.91694313573705,True,60.0,0.6458333333333333,0.5300595238095238,0.17592592592592587,-0.27734315948601673,1,1,1.0,0.377998737215732,0.0512514556375116,0.625,0.625,0.625,0.0,1.5,1.5,6.5,6.5,0.0,2.0,-1.0,5.0,0,1,1,1,0.0512514556375116
10.0,0.0,10.0,0.0,1.0,0.0,1.0,0.0,,,,left,1.303363100014394,383.81999930000165,xs3,371.5473812000128,375.0526186999923,383.81999930000165,,False,6.0,['r'],False,0.625,0.625,0.0,0.0,2.0,0.6021808102656677,0.0055837052896026,wait_cost,1.0,5.0,380.405983500008,,xs3,2,2023-03-31_15h43.22.540,threat_forest,2021.2.3,59.91694313573705,False,60.0,0.6458333333333333,0.5300595238095238,0.17592592592592587,-0.27734315948601673,1,1,0.0,0.26494792395408556,0.0055837052896026,0.625,0.625,0.625,0.0,1.5,1.5,7.5,7.0,0.0,2.0,1.0,6.0,0,1,1,1,0.0055837052896026
10.0,0.0,10.0,0.0,2.0,0.0,2.0,0.0,,,,left,1.8997982000000773,389.7515084000188,xs3,389.7515084000188,,385.1520076000015,387.1663528000063,True,5.0,['r'],True,0.5185185185185185,0.6666666666666666,0.2222222222222222,2.0,2.0,0.9327883776363328,-0.0020736371183338,fight_cost,0.0,2.0,387.1663528000063,,xs3,2,2023-03-31_15h43.22.540,threat_forest,2021.2.3,59.91694313573705,True,60.0,0.6458333333333333,0.5300595238095238,0.17592592592592587,-0.27734315948601673,1,0,1.0,0.6417476700053824,-0.0020736371183338,0.5185185185185185,0.5185185185185185,0.6666666666666666,0.2222222222222222,0.9999999999999999,0.8518518518518517,5.851851851851852,5.851851851851852,1.0,2.0,-1.0,5.0,0,1,0,1,-0.0020736371183338
10.0,0.0,10.0,0.0,3.0,0.0,3.0,0.0,,,,right,1.79461439998704,395.5768958000117,xs3,391.67920559999766,393.6935655999987,395.5768958000117,,True,2.0,['r'],False,0.625,0.625,0.0,0.0,2.0,0.6021808102656677,0.0850764152838109,succ_gain,1.0,4.0,393.6935655999987,,xs3,2,2023-03-31_15h43.22.540,threat_forest,2021.2.3,59.91694313573705,True,60.0,0.6458333333333333,0.5300595238095238,0.17592592592592587,-0.27734315948601673,1,1,1.0,0.5847901799146227,0.0850764152838109,0.625,0.625,0.625,0.0,1.5,1.5,3.5,3.5,0.0,2.0,-1.0,2.0,0,1,1,1,0.0850764152838109
10.0,0.0,10.0,0.0,4.0,0.0,4.0,0.0,,,,right,2.230724099994404,402.6062632999965,xs3,402.6062632999965,,397.3904915000021,399.404966800008,False,4.0,['r'],True,0.5185185185185185,0.6666666666666666,0.2222222222222222,2.0,2.0,0.9327883776363328,0.0476305298353909,wait_cost,0.0,3.0,399.404966800008,,xs3,2,2023-03-31_15h43.22.540,threat_forest,2021.2.3,59.91694313573705,False,60.0,0.6458333333333333,0.5300595238095238,0.17592592592592587,-0.27734315948601673,1,0,0.0,0.8023262412832957,0.0476305298353909,0.5185185185185185,0.5185185185185185,0.6666666666666666,0.2222222222222222,0.9999999999999999,0.8518518518518517,4.851851851851852,4.851851851851852,1.0,2.0,1.0,4.0,0,1,0,1,0.0476305298353909
10.0,0.0,10.0,0.0,5.0,0.0,5.0,0.0,,,,right,1.454036700015422,409.1129048000148,xs3,409.1129048000148,,397.3904915000021,399.404966800008,False,3.0,['r'],True,0.5185185185185185,0.6666666666666666,0.2222222222222222,2.0,2.0,0.9327883776363328,0.0683727709190671,wait_cost,0.0,2.0,406.88115190001554,,xs3,2,2023-03-31_15h43.22.540,threat_forest,2021.2.3,59.91694313573705,False,60.0,0.6458333333333333,0.5300595238095238,0.17592592592592587,-0.27734315948601673,1,0,0.0,0.3743436195186607,0.0683727709190671,0.5185185185185185,0.5185185185185185,0.6666666666666666,0.2222222222222222,0.9999999999999999,0.8518518518518517,3.8518518518518516,3.8518518518518516,1.0,2.0,-1.0,3.0,0,1,0,1,0.0683727709190671
10.0,0.0,10.0,0.0,6.0,0.0,6.0,0.0,,,,left,2.70425169999362,416.006434800016,xs3,416.006434800016,,397.3904915000021,399.404966800008,True,2.0,['r'],True,0.5185185185185185,0.6666666666666666,0.2222222222222222,2.0,2.0,0.9327883776363328,-0.0532407407407407,unsucc_cost,0.0,0.0,412.6093115000112,,xs3,2,2023-03-31_15h43.22.540,threat_forest,2021.2.3,59.91694313573705,True,60.0,0.6458333333333333,0.5300595238095238,0.17592592592592587,-0.27734315948601673,1,0,1.0,0.9948252381658087,-0.0532407407407407,0.5185185185185185,0.5185185185185185,0.6666666666666666,0.2222222222222222,0.9999999999999999,0.8518518518518517,2.8518518518518516,2.8518518518518516,1.0,2.0,-1.0,2.0,0,1,0,1,-0.0532407407407407
11.0,0.0,11.0,0.0,0.0,0.0,0.0,0.0,422.487076999998,425.99682010000106,,right,1.4350039999990258,429.6938774000155,xs3,429.6938774000155,,422.487076999998,425.99682010000106,False,5.0,['r'],True,0.2222222222222222,0.6666666666666666,0.6666666666666666,2.0,2.0,0.77250688571426,-0.082351114778616,wait_cost,0.0,4.0,,,xs3,2,2023-03-31_15h43.22.540,threat_forest,2021.2.3,59.91694313573705,False,49.0,0.5833333333333333,0.6145833333333333,-0.888888888888889,-0.3564814814814815,0,0,0.0,0.36116763666346663,-0.082351114778616,0.2222222222222222,0.2222222222222222,0.6666666666666666,0.6666666666666666,-0.3333333333333335,-0.7777777777777779,4.222222222222222,4.222222222222222,1.0,2.0,-1.0,5.0,0,1,0,0,-0.082351114778616
11.0,0.0,11.0,0.0,1.0,0.0,1.0,0.0,,,,right,1.2923889000085182,436.1042299999972,xs3,431.1588926000113,433.173334799998,436.1042299999972,,True,4.0,['r'],False,0.5,0.5,0.0,0.0,2.0,0.6309297535714574,0.154272762345679,unsucc_cost,1.0,2.0,433.173334799998,,xs3,2,2023-03-31_15h43.22.540,threat_forest,2021.2.3,59.91694313573705,True,49.0,0.5833333333333333,0.6145833333333333,-0.888888888888889,-0.3564814814814815,1,0,1.0,0.2564923662656767,0.154272762345679,0.5,0.5,0.5,0.0,1.0,1.0,5.0,5.0,0.0,2.0,-1.0,4.0,0,1,0,1,0.154272762345679
11.0,0.0,11.0,0.0,2.0,0.0,2.0,0.0,,,,right,1.1907670000218786,442.8645822000108,xs3,442.8645822000108,,437.4199321000197,439.43426159999217,False,2.0,['r'],True,0.2222222222222222,0.6666666666666666,0.6666666666666666,2.0,2.0,0.77250688571426,-0.0594135802469135,wait_cost,0.0,1.0,439.43426159999217,,xs3,2,2023-03-31_15h43.22.540,threat_forest,2021.2.3,59.91694313573705,False,49.0,0.5833333333333333,0.6145833333333333,-0.888888888888889,-0.3564814814814815,0,0,0.0,0.17459763733165018,-0.0594135802469135,0.2222222222222222,0.2222222222222222,0.6666666666666666,0.6666666666666666,-0.3333333333333335,-0.7777777777777779,1.222222222222222,1.222222222222222,1.0,2.0,-1.0,2.0,0,1,0,0,-0.0594135802469135
11.0,0.0,11.0,0.0,3.0,0.0,3.0,0.0,,,,left,1.8517606999957932,449.8580966000154,xs3,449.8580966000154,,437.4199321000197,439.43426159999217,True,1.0,['r'],True,0.2222222222222222,0.6666666666666666,0.6666666666666666,2.0,2.0,0.77250688571426,0.1234567901234567,fight_cost,0.0,0.0,446.0946535000112,,xs3,2,2023-03-31_15h43.22.540,threat_forest,2021.2.3,59.91694313573705,True,49.0,0.5833333333333333,0.6145833333333333,-0.888888888888889,-0.3564814814814815,0,0,1.0,0.6161369162101028,0.1234567901234567,1.0,0.2222222222222222,0.6666666666666666,0.6666666666666666,-0.3333333333333335,-0.7777777777777779,0.2222222222222221,1.0,1.0,2.0,-1.0,1.0,1,1,0,0,0.625
12.0,0.0,12.0,0.0,0.0,0.0,0.0,0.0,456.3332217000134,459.8317403999972,,right,1.0946795000054408,462.52959510000073,xs3,456.3332217000134,459.8317403999972,462.52959510000073,,True,4.0,['r'],False,0.32,0.4,0.2,1.0,1.0,0.9455672104350704,0.0193852844836012,unsucc_cost,1.0,2.0,,,xs3,2,2023-03-31_15h43.22.540,threat_forest,2021.2.3,59.91694313573705,True,61.0,0.325,0.4541666666666666,-1.354375,-1.1216319444444445,0,0,1.0,0.0904616263662397,0.0193852844836012,0.32,0.32,0.4,0.2,-0.3999999999999999,-0.24,3.76,3.76,0.0,1.0,-1.0,4.0,0,1,0,0,0.0193852844836012
12.0,0.0,12.0,0.0,1.0,0.0,1.0,0.0,,,,right,0.750262899993686,468.0410617000016,xs3,456.3332217000134,459.8317403999972,468.0410617000016,,True,2.0,['r'],False,0.32,0.4,0.2,1.0,1.0,0.9455672104350704,0.0117110723015676,unsucc_cost,1.0,0.0,465.65966380000464,,xs3,2,2023-03-31_15h43.22.540,threat_forest,2021.2.3,59.91694313573705,True,61.0,0.325,0.4541666666666666,-1.354375,-1.1216319444444445,0,0,1.0,-0.2873316005493189,0.0117110723015676,0.32,0.32,0.4,0.2,-0.3999999999999999,-0.24,1.76,1.76,0.0,1.0,-1.0,2.0,0,1,0,0,0.0117110723015676
13.0,0.0,13.0,0.0,0.0,0.0,0.0,0.0,471.550270000007,475.05405760000576,,right,0.9934039000072517,477.53293440002017,xs3,471.550270000007,475.05405760000576,477.53293440002017,,True,5.0,['r'],False,0.4444444444444445,0.6666666666666666,0.3333333333333333,1.0,2.0,0.9656336071428248,0.0253949986159629,fight_cost,1.0,2.0,,,xs3,2,2023-03-31_15h43.22.540,threat_forest,2021.2.3,59.91694313573705,True,15.0,0.4833333333333333,0.4041666666666667,-0.8977777777777778,-1.126076388888889,1,1,1.0,-0.006617950398280803,0.0253949986159629,0.4444444444444445,0.4444444444444445,0.6666666666666666,0.3333333333333333,0.6666666666666665,0.4444444444444444,5.444444444444445,5.444444444444445,0.0,2.0,-1.0,5.0,0,1,1,1,0.0253949986159629
13.0,0.0,13.0,0.0,1.0,0.0,1.0,0.0,,,,right,0.983308800001396,484.0764103000111,xs3,471.550270000007,475.05405760000576,484.0764103000111,,True,2.0,['r'],False,0.4444444444444445,0.6666666666666666,0.3333333333333333,1.0,2.0,0.9656336071428248,0.0688626821412724,succ_gain,1.0,4.0,480.56232369999634,,xs3,2,2023-03-31_15h43.22.540,threat_forest,2021.2.3,59.91694313573705,True,15.0,0.4833333333333333,0.4041666666666667,-0.8977777777777778,-1.126076388888889,1,1,1.0,-0.016832067778739218,0.0688626821412724,0.4444444444444445,0.4444444444444445,0.6666666666666666,0.3333333333333333,0.6666666666666665,0.4444444444444444,2.4444444444444446,2.4444444444444446,0.0,2.0,-1.0,2.0,0,1,1,1,0.0688626821412724
13.0,0.0,13.0,0.0,2.0,0.0,2.0,0.0,,,,right,1.2680317000194918,489.4423321000068,xs3,489.4423321000068,,485.0917915000173,487.1062990000064,False,4.0,['r'],True,0.24,0.3,0.2,2.0,2.0,0.9003120349047065,-0.0457004540527358,wait_cost,0.0,3.0,487.1062990000064,,xs3,2,2023-03-31_15h43.22.540,threat_forest,2021.2.3,59.91694313573705,False,15.0,0.4833333333333333,0.4041666666666667,-0.8977777777777778,-1.126076388888889,0,0,0.0,0.23746585571791112,-0.0457004540527358,0.24,0.24,0.3,0.2,-0.3999999999999999,-0.24,3.76,3.76,1.0,2.0,1.0,4.0,0,1,0,0,-0.0457004540527358
13.0,0.0,13.0,0.0,3.0,0.0,3.0,0.0,,,,right,2.1455274999898397,494.285551900015,xs3,494.285551900015,,485.0917915000173,487.1062990000064,False,3.0,['r'],True,0.24,0.3,0.2,2.0,2.0,0.9003120349047065,-0.0620973282853222,wait_cost,0.0,2.0,492.7510147000139,,xs3,2,2023-03-31_15h43.22.540,threat_forest,2021.2.3,59.91694313573705,False,15.0,0.4833333333333333,0.4041666666666667,-0.8977777777777778,-1.126076388888889,0,0,0.0,0.7633854428876155,-0.0620973282853222,0.24,0.24,0.3,0.2,-0.3999999999999999,-0.24,2.76,2.76,1.0,2.0,-1.0,3.0,0,1,0,0,-0.0620973282853222
13.0,0.0,13.0,0.0,4.0,0.0,4.0,0.0,,,,right,1.5263273000018671,501.493217500014,xs3,501.493217500014,,485.0917915000173,487.1062990000064,False,2.0,['r'],True,0.24,0.3,0.2,2.0,2.0,0.9003120349047065,-0.1022222222222222,wait_cost,0.0,1.0,498.4622799000063,,xs3,2,2023-03-31_15h43.22.540,threat_forest,2021.2.3,59.91694313573705,False,15.0,0.4833333333333333,0.4041666666666667,-0.8977777777777778,-1.126076388888889,0,0,0.0,0.4228643921721311,-0.1022222222222222,0.24,0.24,0.3,0.2,-0.3999999999999999,-0.24,1.76,1.76,1.0,2.0,-1.0,2.0,0,1,0,0,-0.1022222222222222
13.0,0.0,13.0,0.0,5.0,0.0,5.0,0.0,,,,right,1.1576504000113346,507.5375204000157,xs3,503.0419292000006,505.0561694999924,507.5375204000157,,True,1.0,['r'],False,0.4444444444444445,0.6666666666666666,0.3333333333333333,1.0,2.0,0.9656336071428248,0.4444444444444444,fight_cost,1.0,0.0,505.0561694999924,,xs3,2,2023-03-31_15h43.22.540,threat_forest,2021.2.3,59.91694313573705,True,15.0,0.4833333333333333,0.4041666666666667,-0.8977777777777778,-1.126076388888889,1,1,1.0,0.1463924337523791,0.4444444444444444,1.0,0.4444444444444445,0.6666666666666666,0.3333333333333333,0.6666666666666665,0.4444444444444444,1.4444444444444444,1.4444444444444444,0.0,2.0,-1.0,1.0,1,1,1,1,0.625
14.0,0.0,14.0,0.0,0.0,0.0,0.0,0.0,511.8049580999941,515.3133995000098,,left,1.2594131999940146,516.463149200019,xs3,516.463149200019,,511.8049580999941,515.3133995000098,True,5.0,['p'],True,0.2222222222222222,0.6666666666666666,0.6666666666666666,2.0,1.0,0.77250688571426,-0.0048205313257853,fight_cost,0.0,2.0,,,xs3,2,2023-03-31_15h43.22.540,threat_forest,2021.2.3,59.91694313573705,True,20.0,0.4583333333333333,0.4708333333333333,-1.625,-1.261388888888889,0,0,1.0,0.2306458981943405,-0.0048205313257853,0.2222222222222222,0.2222222222222222,0.6666666666666666,0.6666666666666666,-1.0,-1.0,4.0,4.0,1.0,1.0,-1.0,5.0,0,1,0,0,-0.0048205313257853
14.0,0.0,14.0,0.0,1.0,0.0,1.0,0.0,,,,right,2.31144989997847,520.6087143000041,xs3,517.7445409999928,519.7591582000023,520.6087143000041,,True,2.0,['p'],False,0.25,0.25,0.0,0.0,1.0,0.5118595071429148,0.0041767131925127,unsucc_cost,1.0,0.0,519.7591582000023,,xs3,2,2023-03-31_15h43.22.540,threat_forest,2021.2.3,59.91694313573705,True,20.0,0.4583333333333333,0.4708333333333333,-1.625,-1.261388888888889,1,0,1.0,0.8378749899644308,0.0041767131925127,0.25,0.25,0.25,0.0,-0.25,-0.25,1.75,1.75,0.0,1.0,-1.0,2.0,0,1,0,1,0.0041767131925127
15.0,0.0,15.0,0.0,0.0,0.0,0.0,0.0,528.1600758999994,531.6646118000208,,right,0.9968919999955688,534.5156757000077,xs3,534.5156757000077,,528.1600758999994,531.6646118000208,False,4.0,['p'],True,0.2592592592592592,0.3333333333333333,0.2222222222222222,2.0,2.0,0.9327883776363324,0.0085887169934886,wait_cost,0.0,3.0,,,xs3,2,2023-03-31_15h43.22.540,threat_forest,2021.2.3,59.91694313573705,False,53.0,0.5,0.47916666666666663,-0.8703703703703706,-1.2476851851851853,1,0,0.0,-0.003112839867242381,0.0085887169934886,0.2592592592592592,0.2592592592592592,0.3333333333333333,0.2222222222222222,-0.3333333333333335,-0.18518518518518556,3.8148148148148144,3.8148148148148144,1.0,2.0,-1.0,4.0,0,1,0,1,0.0085887169934886
15.0,0.0,15.0,0.0,1.0,0.0,1.0,0.0,,,,right,1.1928523999813478,541.2226454000047,xs3,535.5448024999932,537.5591190000123,541.2226454000047,,True,3.0,['p'],False,0.4444444444444445,0.6666666666666666,0.3333333333333333,1.0,2.0,0.9656336071428248,0.0862014495831168,fight_cost,1.0,0.0,537.5591190000123,,xs3,2,2023-03-31_15h43.22.540,threat_forest,2021.2.3,59.91694313573705,True,53.0,0.5,0.47916666666666663,-0.8703703703703706,-1.2476851851851853,1,0,1.0,0.17634741373600551,0.0862014495831168,0.4444444444444445,0.4444444444444445,0.6666666666666666,0.3333333333333333,0.6666666666666665,0.4444444444444444,3.4444444444444446,3.4444444444444446,0.0,2.0,-1.0,3.0,0,1,0,1,0.0862014495831168
16.0,0.0,16.0,0.0,0.0,0.0,0.0,0.0,545.2456330000132,548.7486759000167,,right,0.8444898999878205,551.7647174000158,xs3,551.7647174000158,,545.2456330000132,548.7486759000167,False,4.0,['p'],True,0.18,0.2,0.1,1.0,1.0,0.7058405977926203,-0.0012447101888581,wait_cost,0.0,3.0,,,xs3,2,2023-03-31_15h43.22.540,threat_forest,2021.2.3,59.91694313573705,False,11.0,0.35,0.425,-1.3425000000000002,-1.1064351851851855,0,0,0.0,-0.16902250255971363,-0.0012447101888581,0.18,0.18,0.2,0.1,-0.7000000000000002,-0.5600000000000003,3.4399999999999995,3.4399999999999995,1.0,1.0,-1.0,4.0,0,1,0,0,-0.0012447101888581
16.0,0.0,16.0,0.0,1.0,0.0,1.0,0.0,,,,left,2.8103231000131927,557.9239684000204,xs3,552.628844299994,554.6431854999973,557.9239684000204,,False,3.0,['p'],False,0.375,0.5,0.25,1.0,1.0,0.9850568223215076,0.0399199646186828,wait_cost,1.0,2.0,554.6431854999973,,xs3,2,2023-03-31_15h43.22.540,threat_forest,2021.2.3,59.91694313573705,False,11.0,0.35,0.425,-1.3425000000000002,-1.1064351851851855,0,0,0.0,1.0332994589468072,0.0399199646186828,0.375,0.375,0.5,0.25,-0.25,-0.125,2.875,2.875,0.0,1.0,-1.0,3.0,0,1,0,0,0.0399199646186828
16.0,0.0,16.0,0.0,2.0,0.0,2.0,0.0,,,,right,1.6558992999780455,563.3715203000174,xs3,563.3715203000174,,560.7544762000034,562.7689498999971,False,2.0,['p'],True,0.18,0.2,0.1,1.0,1.0,0.7058405977926203,-0.0022718469726562,wait_cost,0.0,1.0,562.7689498999971,,xs3,2,2023-03-31_15h43.22.540,threat_forest,2021.2.3,59.91694313573705,False,11.0,0.35,0.425,-1.3425000000000002,-1.1064351851851855,0,0,0.0,0.5043442449221126,-0.0022718469726562,0.18,0.18,0.2,0.1,-0.7000000000000002,-0.5600000000000003,1.4399999999999997,1.4399999999999997,1.0,1.0,-1.0,2.0,0,1,0,0,-0.0022718469726562
16.0,0.0,16.0,0.0,3.0,0.0,3.0,0.0,,,,left,1.9335953000118025,570.0459263999946,xs3,570.0459263999946,,560.7544762000034,562.7689498999971,True,1.0,['p'],True,0.18,0.2,0.1,1.0,1.0,0.7058405977926203,0.0226413984375,unsucc_cost,0.0,0.0,567.0482304000179,,xs3,2,2023-03-31_15h43.22.540,threat_forest,2021.2.3,59.91694313573705,True,11.0,0.35,0.425,-1.3425000000000002,-1.1064351851851855,0,0,1.0,0.659381119711072,0.0226413984375,1.0,0.18,0.2,0.1,-0.7000000000000002,-0.5600000000000003,0.4399999999999997,1.0,1.0,1.0,-1.0,1.0,1,1,0,0,0.625
17.0,0.0,17.0,0.0,0.0,0.0,0.0,0.0,576.8688773000031,580.3736724000191,,right,1.2687589999986812,582.570564900001,xs3,582.570564900001,,576.8688773000031,580.3736724000191,False,5.0,['p'],True,0.2962962962962963,0.3333333333333333,0.1111111111111111,1.0,2.0,0.8325252476189534,-0.0036833572583059,wait_cost,0.0,4.0,,,xs3,2,2023-03-31_15h43.22.540,threat_forest,2021.2.3,59.91694313573705,False,22.0,0.41666666666666663,0.3833333333333333,-0.7129629629629629,-1.0277314814814815,1,0,0.0,0.2380392573778207,-0.0036833572583059,0.2962962962962963,0.2962962962962963,0.3333333333333333,0.1111111111111111,-2.220446049250313e-16,0.07407407407407396,5.074074074074074,5.074074074074074,1.0,2.0,-1.0,5.0,0,1,0,1,-0.0036833572583059
17.0,0.0,17.0,0.0,1.0,0.0,1.0,0.0,,,,right,2.319627799995942,586.5470315999992,xs3,583.8663908000162,585.8807912000048,586.5470315999992,,True,4.0,['p'],False,0.4166666666666667,0.5,0.1666666666666666,1.0,2.0,0.9358932809493992,0.0740380070829472,unsucc_cost,1.0,2.0,585.8807912000048,,xs3,2,2023-03-31_15h43.22.540,threat_forest,2021.2.3,59.91694313573705,True,22.0,0.41666666666666663,0.3833333333333333,-0.7129629629629629,-1.0277314814814815,1,1,1.0,0.8414067417715515,0.0740380070829472,0.4166666666666667,0.4166666666666667,0.5,0.1666666666666666,0.5000000000000002,0.5000000000000002,4.5,4.5,0.0,2.0,-1.0,4.0,0,1,1,1,0.0740380070829472
17.0,0.0,17.0,0.0,2.0,0.0,2.0,0.0,,,,left,1.4112406999920497,594.1588527999993,xs3,594.1588527999993,,588.8948384000105,590.9092145000177,True,2.0,['p'],True,0.2962962962962963,0.3333333333333333,0.1111111111111111,1.0,2.0,0.8325252476189534,-0.0199136464224679,succ_gain,0.0,4.0,590.9092145000177,,xs3,2,2023-03-31_15h43.22.540,threat_forest,2021.2.3,59.91694313573705,True,22.0,0.41666666666666663,0.3833333333333333,-0.7129629629629629,-1.0277314814814815,1,0,1.0,0.34446924655181904,-0.0199136464224679,0.2962962962962963,0.2962962962962963,0.3333333333333333,0.1111111111111111,-2.220446049250313e-16,0.07407407407407396,2.074074074074074,2.074074074074074,1.0,2.0,-1.0,2.0,0,1,0,1,-0.0199136464224679
17.0,0.0,17.0,0.0,3.0,0.0,3.0,0.0,,,,right,1.242234000004828,598.35264680002,xs3,598.35264680002,,588.8948384000105,590.9092145000177,False,4.0,['p'],True,0.2962962962962963,0.3333333333333333,0.1111111111111111,1.0,2.0,0.8325252476189534,0.0102498406161266,wait_cost,0.0,3.0,597.6030409999948,,xs3,2,2023-03-31_15h43.22.540,threat_forest,2021.2.3,59.91694313573705,False,22.0,0.41666666666666663,0.3833333333333333,-0.7129629629629629,-1.0277314814814815,1,0,0.0,0.21691137156613174,0.0102498406161266,0.2962962962962963,0.2962962962962963,0.3333333333333333,0.1111111111111111,-2.220446049250313e-16,0.07407407407407396,4.074074074074074,4.074074074074074,1.0,2.0,1.0,4.0,0,1,0,1,0.0102498406161266
17.0,0.0,17.0,0.0,4.0,0.0,4.0,0.0,,,,right,2.367024200008018,603.5319694000063,xs3,599.618263100012,601.6324962000072,603.5319694000063,,True,3.0,['p'],False,0.4166666666666667,0.5,0.1666666666666666,1.0,2.0,0.9358932809493992,0.1786265432098765,succ_gain,1.0,5.0,601.6324962000072,,xs3,2,2023-03-31_15h43.22.540,threat_forest,2021.2.3,59.91694313573705,True,22.0,0.41666666666666663,0.3833333333333333,-0.7129629629629629,-1.0277314814814815,1,1,1.0,0.8616335543950955,0.1786265432098765,0.4166666666666667,0.4166666666666667,0.5,0.1666666666666666,0.5000000000000002,0.5000000000000002,3.5,3.5,0.0,2.0,-1.0,3.0,0,1,1,1,0.1786265432098765
17.0,0.0,17.0,0.0,5.0,0.0,5.0,0.0,,,,right,1.0474395000201184,610.2779071000114,xs3,610.2779071000114,,605.9288828000135,607.9433232000156,False,5.0,['p'],True,0.2962962962962963,0.3333333333333333,0.1111111111111111,1.0,2.0,0.8325252476189534,-0.0681584362139917,wait_cost,0.0,4.0,607.9433232000156,,xs3,2,2023-03-31_15h43.22.540,threat_forest,2021.2.3,59.91694313573705,False,22.0,0.41666666666666663,0.3833333333333333,-0.7129629629629629,-1.0277314814814815,1,0,0.0,0.046348614602142645,-0.0681584362139917,0.0,0.2962962962962963,0.3333333333333333,0.1111111111111111,-2.220446049250313e-16,0.07407407407407396,5.074074074074074,5.074074074074074,1.0,2.0,1.0,5.0,0,0,0,1,-0.84
17.0,0.0,17.0,0.0,6.0,0.0,6.0,0.0,,,,,,615.8057188999956,xs3,611.3572593000135,613.371570200019,615.8057188999956,,True,4.0,['p'],False,0.4166666666666667,0.5,0.1666666666666666,1.0,2.0,0.9358932809493992,-0.107253086419753,wait_cost,1.0,3.0,613.371570200019,,xs3,2,2023-03-31_15h43.22.540,threat_forest,2021.2.3,59.91694313573705,,22.0,0.41666666666666663,0.3833333333333333,-0.7129629629629629,-1.0277314814814815,1,1,,,-0.107253086419753,0.0,0.4166666666666667,0.5,0.1666666666666666,0.5000000000000002,0.5000000000000002,4.5,4.5,0.0,2.0,-1.0,4.0,0,0,1,1,-0.84
17.0,0.0,17.0,0.0,7.0,0.0,7.0,0.0,,,,,,622.5483002999972,xs3,622.5483002999972,,618.8168761999987,620.8312838000129,True,3.0,['p'],True,0.2962962962962963,0.3333333333333333,0.1111111111111111,1.0,2.0,0.8325252476189534,-0.1111111111111111,wait_cost,0.0,2.0,620.8312838000129,,xs3,2,2023-03-31_15h43.22.540,threat_forest,2021.2.3,59.91694313573705,,22.0,0.41666666666666663,0.3833333333333333,-0.7129629629629629,-1.0277314814814815,1,0,,,-0.1111111111111111,0.0,0.2962962962962963,0.3333333333333333,0.1111111111111111,-2.220446049250313e-16,0.07407407407407396,3.074074074074074,3.074074074074074,1.0,2.0,-1.0,3.0,0,0,0,1,-0.84
0.0,0.0,0.0,0.0,0.0,0.0,0.0,0.0,87.55796119998558,91.0612901999848,,right,1.7391034000029322,91.96661049997785,xs3,91.96661049997785,,87.55796119998558,91.0612901999848,False,4.0,['r'],True,0.16,0.2,0.2,2.0,1.0,0.8198746470064713,0.0014137909252576,wait_cost,0.0,3.0,,,xs3,3,2023-03-31_15h56.12.414,threat_forest,2021.2.3,59.982029390305485,False,71.0,0.35,0.3833333333333333,-1.7350000000000003,-1.2239814814814816,0,0,0.0,0.5533696930656479,0.0014137909252576,0.16,0.16,0.2,0.2,-1.0,-0.7200000000000004,3.2799999999999994,3.2799999999999994,1.0,1.0,-1.0,4.0,0,1,0,0,0.0014137909252576
