miniblock.thisRepN,miniblock.thisTrialN,miniblock.thisN,miniblock.thisIndex,day.thisRepN,day.thisTrialN,day.thisN,day.thisIndex,forest.started,fixation_forest.started,fixation_forest.stopped,key_resp.keys,key_resp.rt,key_resp.started,Subject_ID,weather_left.started,weather_left.stopped,weather_right.started,weather_right.stopped,foraging T/F,in_LP,p/r heuristic,good_weather.T/F,p_succ_correct,p_succ_uncorrected,r_threat,n_oponents,gain_if_succ,weather_entropy,OP_value_difference,action_outcome,forest_side_L=0_R=1,out_LP,fixation_day.started,fixation_day.stopped,participant,session,date,expName,psychopyVersion,frameRate,foraging T/F NaNs,fora_NR,forest_mean_p,mvt_cutoff_p,forest_mean_ev,mvt_cutoff_ev,mvt_policy_eg,mvt_policy_p,fora_response,logRT,optimal policy values,multi-heuristic policy,** $\mathit{p}$ success,* $\mathit{p}$ gain,* $\mathit{r}$ predator,expected gain naive,expected gain correct,expected state no bounds,expected state with bounds,weather type,gain magnitude,win stay lose shift,continuous energy state,** binary energy state,** wait when safe,$\mathit{p}$ success based MVT,marginal value,$\mathit{OP}$ values + cap
0.0,0.0,0.0,0.0,0.0,0.0,0.0,0.0,82.87631889991462,86.37814329983667,,left,1.5075354999862611,87.62500729970634,sd9,87.62500729970634,,82.87631889991462,86.37814329983667,True,4.0,['p'],True,0.24,0.4,0.4,2.0,2.0,0.9801625908629508,0.0188358143999999,succ_gain,0.0,6.0,,,sd9,1,2022-05-04_11h18.28.062,threat_forest,2021.2.3,60.10904981482437,True,65.0,0.30000000000000004,0.30000000000000004,-1.5000000000000002,-1.5000000000000002,1,0,1.0,0.41047619825487486,0.0188358143999999,0.24,0.24,0.4,0.4,-0.6000000000000001,-0.44000000000000017,3.5599999999999996,3.5599999999999996,1.0,2.0,,4.0,0,1,0,1,0.0188358143999999
0.0,0.0,0.0,0.0,1.0,0.0,1.0,0.0,,,,left,1.866110200062394,92.8176218001172,sd9,89.1618500999175,91.16161690000445,92.8176218001172,,False,6.0,['p'],False,0.16,0.2,0.2,2.0,2.0,0.8198746470064713,-0.08017472,wait_cost,1.0,5.0,91.16161690000445,,sd9,1,2022-05-04_11h18.28.062,threat_forest,2021.2.3,60.10904981482437,False,65.0,0.30000000000000004,0.30000000000000004,-1.5000000000000002,-1.5000000000000002,0,0,0.0,0.623856157520805,-0.08017472,0.16,0.16,0.2,0.2,-0.8000000000000003,-0.5600000000000003,5.4399999999999995,5.4399999999999995,0.0,2.0,1.0,6.0,0,1,0,0,-0.08017472
0.0,0.0,0.0,0.0,2.0,0.0,2.0,0.0,,,,left,2.216283100191504,100.17939230008052,sd9,89.1618500999175,91.16161690000445,100.17939230008052,,False,5.0,['p'],False,0.16,0.2,0.2,2.0,2.0,0.8198746470064713,0.0009920000000001,wait_cost,1.0,4.0,96.71169249992818,,sd9,1,2022-05-04_11h18.28.062,threat_forest,2021.2.3,60.10904981482437,False,65.0,0.30000000000000004,0.30000000000000004,-1.5000000000000002,-1.5000000000000002,0,0,0.0,0.7958315135193442,0.0009920000000001,0.16,0.16,0.2,0.2,-0.8000000000000003,-0.5600000000000003,4.4399999999999995,4.4399999999999995,0.0,2.0,-1.0,5.0,0,1,0,0,0.0009920000000001
0.0,0.0,0.0,0.0,3.0,0.0,3.0,0.0,,,,right,2.6663869000039995,107.11210529971868,sd9,107.11210529971868,,102.42867740010844,104.42874610004948,False,4.0,['p'],True,0.24,0.4,0.4,2.0,2.0,0.9801625908629508,0.0431999999999999,wait_cost,0.0,3.0,104.42874610004948,,sd9,1,2022-05-04_11h18.28.062,threat_forest,2021.2.3,60.10904981482437,False,65.0,0.30000000000000004,0.30000000000000004,-1.5000000000000002,-1.5000000000000002,1,0,0.0,0.9807243350095249,0.0431999999999999,0.24,0.24,0.4,0.4,-0.6000000000000001,-0.44000000000000017,3.5599999999999996,3.5599999999999996,1.0,2.0,-1.0,4.0,0,1,0,1,0.0431999999999999
0.0,0.0,0.0,0.0,4.0,0.0,4.0,0.0,,,,right,1.6456535998731852,112.41379539994524,sd9,109.79541189968586,111.79514910001308,112.41379539994524,,True,3.0,['p'],False,0.16,0.2,0.2,2.0,2.0,0.8198746470064713,0.0679999999999999,unsucc_cost,1.0,1.0,111.79514910001308,,sd9,1,2022-05-04_11h18.28.062,threat_forest,2021.2.3,60.10904981482437,True,65.0,0.30000000000000004,0.30000000000000004,-1.5000000000000002,-1.5000000000000002,0,0,1.0,0.4981376304554719,0.0679999999999999,0.16,0.16,0.2,0.2,-0.8000000000000003,-0.5600000000000003,2.4399999999999995,2.4399999999999995,0.0,2.0,-1.0,3.0,0,1,0,0,0.0679999999999999
0.0,0.0,0.0,0.0,5.0,0.0,5.0,0.0,,,,right,1.8469727002084253,118.41211909987032,sd9,109.79541189968586,111.79514910001308,118.41211909987032,,True,1.0,['p'],False,0.16,0.2,0.2,2.0,2.0,0.8198746470064713,0.1599999999999999,unsucc_cost,1.0,0.0,116.07858279999346,,sd9,1,2022-05-04_11h18.28.062,threat_forest,2021.2.3,60.10904981482437,True,65.0,0.30000000000000004,0.30000000000000004,-1.5000000000000002,-1.5000000000000002,0,0,1.0,0.6135479204952131,0.1599999999999999,1.0,0.16,0.2,0.2,-0.8000000000000003,-0.5600000000000003,0.4399999999999997,1.0,0.0,2.0,-1.0,1.0,1,1,0,0,0.625
1.0,0.0,1.0,0.0,0.0,0.0,0.0,0.0,125.3225227999501,128.82885359972715,,left,2.020999999716878,129.59668840002269,sd9,129.59668840002269,,125.3225227999501,128.82885359972715,True,5.0,['r'],True,0.4081632653061224,0.5714285714285714,0.2857142857142857,2.0,2.0,0.9885754083994552,-0.0170150236195817,succ_gain,0.0,6.0,,,sd9,1,2022-05-04_11h18.28.062,threat_forest,2021.2.3,60.10904981482437,True,14.0,0.5357142857142857,0.41785714285714287,-0.326530612244898,-0.9132653061224492,1,0,1.0,0.7035924382813938,-0.0170150236195817,0.4081632653061224,0.4081632653061224,0.5714285714285714,0.2857142857142857,0.4285714285714285,0.346938775510204,5.346938775510204,5.346938775510204,1.0,2.0,-1.0,5.0,0,1,0,1,-0.0170150236195817
1.0,0.0,1.0,0.0,1.0,0.0,1.0,0.0,,,,right,1.958077100105584,136.76290579978377,sd9,136.76290579978377,,125.3225227999501,128.82885359972715,False,6.0,['r'],True,0.4081632653061224,0.5714285714285714,0.2857142857142857,2.0,2.0,0.9885754083994552,-0.0789184913550894,wait_cost,0.0,5.0,133.64556539990008,,sd9,1,2022-05-04_11h18.28.062,threat_forest,2021.2.3,60.10904981482437,False,14.0,0.5357142857142857,0.41785714285714287,-0.326530612244898,-0.9132653061224492,1,0,0.0,0.6719629203022102,-0.0789184913550894,0.4081632653061224,0.4081632653061224,0.5714285714285714,0.2857142857142857,0.4285714285714285,0.346938775510204,6.346938775510204,6.346938775510204,1.0,2.0,1.0,6.0,0,1,0,1,-0.0789184913550894
1.0,0.0,1.0,0.0,2.0,0.0,2.0,0.0,,,,left,2.2479153000749648,141.54616970010102,sd9,141.54616970010102,,125.3225227999501,128.82885359972715,True,5.0,['r'],True,0.4081632653061224,0.5714285714285714,0.2857142857142857,2.0,2.0,0.9885754083994552,-0.0126763486945585,succ_gain,0.0,6.0,140.74557919986546,,sd9,1,2022-05-04_11h18.28.062,threat_forest,2021.2.3,60.10904981482437,True,14.0,0.5357142857142857,0.41785714285714287,-0.326530612244898,-0.9132653061224492,1,0,1.0,0.8100032534190189,-0.0126763486945585,0.4081632653061224,0.4081632653061224,0.5714285714285714,0.2857142857142857,0.4285714285714285,0.346938775510204,5.346938775510204,5.346938775510204,1.0,2.0,-1.0,5.0,0,1,0,1,-0.0126763486945585
1.0,0.0,1.0,0.0,3.0,0.0,3.0,0.0,,,,right,1.3006661999970677,146.3792655998841,sd9,143.81260140007362,145.81580170011148,146.3792655998841,,True,6.0,['r'],False,0.5,0.5,0.0,0.0,2.0,0.6309297535714574,-0.1443864535610162,unsucc_cost,1.0,4.0,145.81580170011148,,sd9,1,2022-05-04_11h18.28.062,threat_forest,2021.2.3,60.10904981482437,True,14.0,0.5357142857142857,0.41785714285714287,-0.326530612244898,-0.9132653061224492,1,1,1.0,0.26287659474012703,-0.1443864535610162,0.0,0.5,0.5,0.0,1.0,1.0,7.0,7.0,0.0,2.0,1.0,6.0,0,0,1,1,-0.84
1.0,0.0,1.0,0.0,4.0,0.0,4.0,0.0,,,,left,2.1779267000965774,151.5629477999173,sd9,151.5629477999173,,147.7126747998409,149.7123751998879,True,4.0,['r'],True,0.4081632653061224,0.5714285714285714,0.2857142857142857,2.0,2.0,0.9885754083994552,0.0468294460641399,unsucc_cost,0.0,2.0,149.7123751998879,,sd9,1,2022-05-04_11h18.28.062,threat_forest,2021.2.3,60.10904981482437,True,14.0,0.5357142857142857,0.41785714285714287,-0.326530612244898,-0.9132653061224492,1,0,1.0,0.77837336925967,0.0468294460641399,0.4081632653061224,0.4081632653061224,0.5714285714285714,0.2857142857142857,0.4285714285714285,0.346938775510204,4.346938775510204,4.346938775510204,1.0,2.0,-1.0,4.0,0,1,0,1,0.0468294460641399
1.0,0.0,1.0,0.0,5.0,0.0,5.0,0.0,,,,right,1.027335399761796,156.62938439985737,sd9,153.76271519996226,155.76246060011908,156.62938439985737,,True,2.0,['r'],False,0.5,0.5,0.0,0.0,2.0,0.6309297535714574,0.0459183673469387,succ_gain,1.0,4.0,155.76246060011908,,sd9,1,2022-05-04_11h18.28.062,threat_forest,2021.2.3,60.10904981482437,True,14.0,0.5357142857142857,0.41785714285714287,-0.326530612244898,-0.9132653061224492,1,1,1.0,0.026968459676651835,0.0459183673469387,0.5,0.5,0.5,0.0,1.0,1.0,3.0,3.0,0.0,2.0,-1.0,2.0,0,1,1,1,0.0459183673469387
1.0,0.0,1.0,0.0,6.0,0.0,6.0,0.0,,,,right,1.9753311001695693,160.91426400002092,sd9,160.91426400002092,,157.6795429000631,159.6792532997206,False,4.0,['r'],True,0.4081632653061224,0.5714285714285714,0.2857142857142857,2.0,2.0,0.9885754083994552,-0.1559766763848396,wait_cost,0.0,3.0,159.6792532997206,,sd9,1,2022-05-04_11h18.28.062,threat_forest,2021.2.3,60.10904981482437,False,14.0,0.5357142857142857,0.41785714285714287,-0.326530612244898,-0.9132653061224492,1,0,0.0,0.6807360299576007,-0.1559766763848396,0.0,0.4081632653061224,0.5714285714285714,0.2857142857142857,0.4285714285714285,0.346938775510204,4.346938775510204,4.346938775510204,1.0,2.0,1.0,4.0,0,0,0,1,-0.84
1.0,0.0,1.0,0.0,7.0,0.0,7.0,0.0,,,,left,1.4830363001674414,167.74643900012595,sd9,167.74643900012595,,157.6795429000631,159.6792532997206,True,3.0,['r'],True,0.4081632653061224,0.5714285714285714,0.2857142857142857,2.0,2.0,0.9885754083994552,-0.2857142857142857,succ_gain,0.0,5.0,164.91269289981574,,sd9,1,2022-05-04_11h18.28.062,threat_forest,2021.2.3,60.10904981482437,True,14.0,0.5357142857142857,0.41785714285714287,-0.326530612244898,-0.9132653061224492,1,0,1.0,0.3940915403797866,-0.2857142857142857,0.0,0.4081632653061224,0.5714285714285714,0.2857142857142857,0.4285714285714285,0.346938775510204,3.3469387755102042,3.3469387755102042,1.0,2.0,-1.0,3.0,0,0,0,1,-0.84
2.0,0.0,2.0,0.0,0.0,0.0,0.0,0.0,173.81830899976194,177.32951840013266,,left,2.2931665000505745,179.79657429968938,sd9,173.81830899976194,177.32951840013266,179.79657429968938,,False,4.0,['p'],False,0.2448979591836734,0.2857142857142857,0.1428571428571428,1.0,1.0,0.8400769154957735,0.0039960293469888,wait_cost,1.0,3.0,,,sd9,1,2022-05-04_11h18.28.062,threat_forest,2021.2.3,60.10904981482437,False,13.0,0.47619047619047616,0.5059523809523809,-1.2040816326530612,-0.7653061224489797,0,0,0.0,0.8299336135599757,0.0039960293469888,0.2448979591836734,0.2448979591836734,0.2857142857142857,0.1428571428571428,-0.5714285714285712,-0.40816326530612246,3.5918367346938775,3.5918367346938775,0.0,1.0,1.0,4.0,0,1,0,0,0.0039960293469888
2.0,0.0,2.0,0.0,1.0,0.0,1.0,0.0,,,,right,1.6062583001330497,186.66389299975708,sd9,173.81830899976194,177.32951840013266,186.66389299975708,,True,3.0,['p'],False,0.2448979591836734,0.2857142857142857,0.1428571428571428,1.0,1.0,0.8400769154957735,0.0187494644994601,unsucc_cost,1.0,1.0,184.1128907999955,,sd9,1,2022-05-04_11h18.28.062,threat_forest,2021.2.3,60.10904981482437,True,13.0,0.47619047619047616,0.5059523809523809,-1.2040816326530612,-0.7653061224489797,0,0,1.0,0.47390743704604954,0.0187494644994601,0.2448979591836734,0.2448979591836734,0.2857142857142857,0.1428571428571428,-0.5714285714285712,-0.40816326530612246,2.5918367346938775,2.5918367346938775,0.0,1.0,-1.0,3.0,0,1,0,0,0.0187494644994601
2.0,0.0,2.0,0.0,2.0,0.0,2.0,0.0,,,,right,1.434326000045985,193.33061659988016,sd9,173.81830899976194,177.32951840013266,193.33061659988016,,True,1.0,['p'],False,0.2448979591836734,0.2857142857142857,0.1428571428571428,1.0,1.0,0.8400769154957735,0.040304492726213,figh_cost,1.0,0.0,190.29636829998344,,sd9,1,2022-05-04_11h18.28.062,threat_forest,2021.2.3,60.10904981482437,True,13.0,0.47619047619047616,0.5059523809523809,-1.2040816326530612,-0.7653061224489797,0,0,1.0,0.36069505249528194,0.040304492726213,1.0,0.2448979591836734,0.2857142857142857,0.1428571428571428,-0.5714285714285712,-0.40816326530612246,0.5918367346938775,1.0,0.0,1.0,-1.0,1.0,1,1,0,0,0.625
3.0,0.0,3.0,0.0,0.0,0.0,0.0,0.0,199.50478389998895,203.01319039985535,,right,0.8223347999155521,204.89692460000515,sd9,199.50478389998895,203.01319039985535,204.89692460000515,,True,4.0,['r'],False,0.3333333333333333,0.3333333333333333,0.0,0.0,2.0,0.5793801642856949,0.0326749431231451,succ_gain,1.0,6.0,,,sd9,1,2022-05-04_11h18.28.062,threat_forest,2021.2.3,60.10904981482437,True,10.0,0.35416666666666663,0.4151785714285714,-0.8958333333333335,-1.0499574829931975,1,0,1.0,-0.19560766768240886,0.0326749431231451,0.3333333333333333,0.3333333333333333,0.3333333333333333,0.0,0.33333333333333315,0.33333333333333315,4.333333333333333,4.333333333333333,0.0,2.0,-1.0,4.0,0,1,0,1,0.0326749431231451
3.0,0.0,3.0,0.0,1.0,0.0,1.0,0.0,,,,right,2.333380399737507,208.66363429976627,sd9,199.50478389998895,203.01319039985535,208.66363429976627,,True,6.0,['r'],False,0.3333333333333333,0.3333333333333333,0.0,0.0,2.0,0.5793801642856949,-0.059542589226868,unsucc_cost,1.0,4.0,207.7465138998814,,sd9,1,2022-05-04_11h18.28.062,threat_forest,2021.2.3,60.10904981482437,True,10.0,0.35416666666666663,0.4151785714285714,-0.8958333333333335,-1.0499574829931975,1,0,1.0,0.8473180314998399,-0.059542589226868,0.3333333333333333,0.3333333333333333,0.3333333333333333,0.0,0.33333333333333315,0.33333333333333315,6.333333333333333,6.333333333333333,0.0,2.0,1.0,6.0,0,1,0,1,-0.059542589226868
3.0,0.0,3.0,0.0,2.0,0.0,2.0,0.0,,,,right,1.1795191997662189,216.4472288000397,sd9,199.50478389998895,203.01319039985535,216.4472288000397,,True,4.0,['r'],False,0.3333333333333333,0.3333333333333333,0.0,0.0,2.0,0.5793801642856949,0.050074399989328,unsucc_cost,1.0,2.0,213.01338389981535,,sd9,1,2022-05-04_11h18.28.062,threat_forest,2021.2.3,60.10904981482437,True,10.0,0.35416666666666663,0.4151785714285714,-0.8958333333333335,-1.0499574829931975,1,0,1.0,0.16510689761883962,0.050074399989328,0.3333333333333333,0.3333333333333333,0.3333333333333333,0.0,0.33333333333333315,0.33333333333333315,4.333333333333333,4.333333333333333,0.0,2.0,-1.0,4.0,0,1,0,1,0.050074399989328
3.0,0.0,3.0,0.0,3.0,0.0,3.0,0.0,,,,right,2.704570699948817,223.3973372001201,sd9,223.3973372001201,,217.64696089969948,219.6468539997004,False,2.0,['r'],True,0.28125,0.375,0.25,2.0,2.0,0.9634951148421658,0.0003368236400462,wait_cost,0.0,1.0,219.6468539997004,,sd9,1,2022-05-04_11h18.28.062,threat_forest,2021.2.3,60.10904981482437,False,10.0,0.35416666666666663,0.4151785714285714,-0.8958333333333335,-1.0499574829931975,0,0,0.0,0.9949431935845594,0.0003368236400462,0.28125,0.28125,0.375,0.25,-0.25,-0.125,1.875,1.875,1.0,2.0,-1.0,2.0,0,1,0,0,0.0003368236400462
3.0,0.0,3.0,0.0,4.0,0.0,4.0,0.0,,,,left,1.3344108001329005,229.19716579979288,sd9,229.19716579979288,,217.64696089969948,219.6468539997004,True,1.0,['r'],True,0.28125,0.375,0.25,2.0,2.0,0.9634951148421658,0.1354904174804687,unsucc_cost,0.0,0.0,228.1302517997101,,sd9,1,2022-05-04_11h18.28.062,threat_forest,2021.2.3,60.10904981482437,True,10.0,0.35416666666666663,0.4151785714285714,-0.8958333333333335,-1.0499574829931975,0,0,1.0,0.2884898462143676,0.1354904174804687,1.0,0.28125,0.375,0.25,-0.25,-0.125,0.875,1.0,1.0,2.0,-1.0,1.0,1,1,0,0,0.625
4.0,0.0,4.0,0.0,0.0,0.0,0.0,0.0,234.7034104997292,238.21373969968408,,left,1.268680399749428,239.26453329995277,sd9,239.26453329995277,,234.7034104997292,238.21373969968408,True,5.0,['r'],True,0.5,0.5,0.0,0.0,1.0,0.6309297535714574,0.0653299800297634,succ_gain,0.0,6.0,,,sd9,1,2022-05-04_11h18.28.062,threat_forest,2021.2.3,60.10904981482437,True,35.0,0.5357142857142857,0.44494047619047616,-0.7806122448979592,-0.8382227891156464,1,1,1.0,0.23797730496288919,0.0653299800297634,0.5,0.5,0.5,0.0,0.5,0.5,5.5,5.5,1.0,1.0,-1.0,5.0,0,1,1,1,0.0653299800297634
4.0,0.0,4.0,0.0,1.0,0.0,1.0,0.0,,,,left,2.605427899863571,244.4325767001137,sd9,240.5640340000391,242.5638530999422,244.4325767001137,,False,6.0,['r'],False,0.4081632653061224,0.5714285714285714,0.2857142857142857,2.0,1.0,0.9885754083994552,-0.1076532809956411,wait_cost,1.0,5.0,242.5638530999422,,sd9,1,2022-05-04_11h18.28.062,threat_forest,2021.2.3,60.10904981482437,False,35.0,0.5357142857142857,0.44494047619047616,-0.7806122448979592,-0.8382227891156464,0,0,0.0,0.9575969227000682,-0.1076532809956411,0.4081632653061224,0.4081632653061224,0.5714285714285714,0.2857142857142857,-0.1428571428571428,-0.061224489795918435,5.938775510204081,5.938775510204081,0.0,1.0,1.0,6.0,0,1,0,0,-0.1076532809956411
4.0,0.0,4.0,0.0,2.0,0.0,2.0,0.0,,,,left,1.595095600001514,250.6308512999676,sd9,240.5640340000391,242.5638530999422,250.6308512999676,,False,5.0,['r'],False,0.4081632653061224,0.5714285714285714,0.2857142857142857,2.0,1.0,0.9885754083994552,-0.0007263192497883,wait_cost,1.0,4.0,249.063919799868,,sd9,1,2022-05-04_11h18.28.062,threat_forest,2021.2.3,60.10904981482437,False,35.0,0.5357142857142857,0.44494047619047616,-0.7806122448979592,-0.8382227891156464,0,0,0.0,0.4669336717456638,-0.0007263192497883,0.4081632653061224,0.4081632653061224,0.5714285714285714,0.2857142857142857,-0.1428571428571428,-0.061224489795918435,4.938775510204081,4.938775510204081,0.0,1.0,-1.0,5.0,0,1,0,0,-0.0007263192497883
4.0,0.0,4.0,0.0,3.0,0.0,3.0,0.0,,,,left,1.4425675002858045,256.6644007000141,sd9,256.6644007000141,,252.24772559991104,254.2472656001337,True,4.0,['r'],True,0.5,0.5,0.0,0.0,1.0,0.6309297535714574,0.1019744111722156,succ_gain,0.0,5.0,254.2472656001337,,sd9,1,2022-05-04_11h18.28.062,threat_forest,2021.2.3,60.10904981482437,True,35.0,0.5357142857142857,0.44494047619047616,-0.7806122448979592,-0.8382227891156464,1,1,1.0,0.3664245122642777,0.1019744111722156,0.5,0.5,0.5,0.0,0.5,0.5,4.5,4.5,1.0,1.0,-1.0,4.0,0,1,1,1,0.1019744111722156
4.0,0.0,4.0,0.0,4.0,0.0,4.0,0.0,,,,left,1.5011655003763735,261.5143101997673,sd9,261.5143101997673,,252.24772559991104,254.2472656001337,True,5.0,['r'],True,0.5,0.5,0.0,0.0,1.0,0.6309297535714574,-0.1814478342357351,unsucc_cost,0.0,3.0,260.1308447998017,,sd9,1,2022-05-04_11h18.28.062,threat_forest,2021.2.3,60.10904981482437,True,35.0,0.5357142857142857,0.44494047619047616,-0.7806122448979592,-0.8382227891156464,1,1,1.0,0.40624180665066,-0.1814478342357351,0.0,0.5,0.5,0.0,0.5,0.5,5.5,5.5,1.0,1.0,1.0,5.0,0,0,1,1,-0.84
4.0,0.0,4.0,0.0,5.0,0.0,5.0,0.0,,,,,,268.84782169992104,sd9,263.04766350006685,265.0474080997519,268.84782169992104,,True,3.0,['r'],False,0.4081632653061224,0.5714285714285714,0.2857142857142857,2.0,1.0,0.9885754083994552,0.0701270304039983,wait_cost,1.0,2.0,265.0474080997519,,sd9,1,2022-05-04_11h18.28.062,threat_forest,2021.2.3,60.10904981482437,,35.0,0.5357142857142857,0.44494047619047616,-0.7806122448979592,-0.8382227891156464,0,0,,,0.0701270304039983,0.4081632653061224,0.4081632653061224,0.5714285714285714,0.2857142857142857,-0.1428571428571428,-0.061224489795918435,2.9387755102040813,2.9387755102040813,0.0,1.0,-1.0,3.0,0,1,0,0,0.0701270304039983
4.0,0.0,4.0,0.0,6.0,0.0,6.0,0.0,,,,left,1.167505099903792,277.49792280001566,sd9,277.49792280001566,,271.84785429993644,273.8476084000431,True,2.0,['r'],True,0.5,0.5,0.0,0.0,1.0,0.6309297535714574,0.0459183673469387,unsucc_cost,0.0,0.0,273.8476084000431,,sd9,1,2022-05-04_11h18.28.062,threat_forest,2021.2.3,60.10904981482437,True,35.0,0.5357142857142857,0.44494047619047616,-0.7806122448979592,-0.8382227891156464,1,1,1.0,0.15486907877732062,0.0459183673469387,0.5,0.5,0.5,0.0,0.5,0.5,2.5,2.5,1.0,1.0,-1.0,2.0,0,1,1,1,0.0459183673469387
5.0,0.0,5.0,0.0,0.0,0.0,0.0,0.0,282.28620259976014,285.7978071998805,,left,1.5743570001795888,289.13205150002614,sd9,282.28620259976014,285.7978071998805,289.13205150002614,,False,5.0,['r'],False,0.25,0.25,0.0,0.0,1.0,0.5118595071429148,0.0161331298904485,wait_cost,1.0,4.0,,,sd9,1,2022-05-04_11h18.28.062,threat_forest,2021.2.3,60.10904981482437,False,20.0,0.4583333333333333,0.49702380952380953,-1.625,-1.2028061224489797,0,0,0.0,0.45384693506507395,0.0161331298904485,0.25,0.25,0.25,0.0,-0.25,-0.25,4.75,4.75,0.0,1.0,-1.0,5.0,0,1,0,0,0.0161331298904485
5.0,0.0,5.0,0.0,1.0,0.0,1.0,0.0,,,,right,2.4371427996084094,294.264798599761,sd9,282.28620259976014,285.7978071998805,294.264798599761,,True,4.0,['r'],False,0.25,0.25,0.0,0.0,1.0,0.5118595071429148,0.0222806905508626,unsucc_cost,1.0,2.0,292.7313529998064,,sd9,1,2022-05-04_11h18.28.062,threat_forest,2021.2.3,60.10904981482437,True,20.0,0.4583333333333333,0.49702380952380953,-1.625,-1.2028061224489797,0,0,1.0,0.8908263694008846,0.0222806905508626,0.25,0.25,0.25,0.0,-0.25,-0.25,3.75,3.75,0.0,1.0,-1.0,4.0,0,1,0,0,0.0222806905508626
5.0,0.0,5.0,0.0,2.0,0.0,2.0,0.0,,,,left,1.7252524998039007,301.46531389979646,sd9,301.46531389979646,,296.7315961997956,298.73133579967543,True,2.0,['r'],True,0.2222222222222222,0.6666666666666666,0.6666666666666666,2.0,1.0,0.77250688571426,0.0068629153925658,figh_cost,0.0,0.0,298.73133579967543,,sd9,1,2022-05-04_11h18.28.062,threat_forest,2021.2.3,60.10904981482437,True,20.0,0.4583333333333333,0.49702380952380953,-1.625,-1.2028061224489797,0,0,1.0,0.545373416469213,0.0068629153925658,0.2222222222222222,0.2222222222222222,0.6666666666666666,0.6666666666666666,-1.0,-1.0,1.0,1.0,1.0,1.0,-1.0,2.0,0,1,0,0,0.0068629153925658
6.0,0.0,6.0,0.0,0.0,0.0,0.0,0.0,308.01750809978694,311.5314577999525,,right,1.4504879000596702,313.9157294998877,sd9,308.01750809978694,311.5314577999525,313.9157294998877,,True,4.0,['r'],False,0.3333333333333333,0.3333333333333333,0.0,0.0,2.0,0.5793801642856949,0.0530374995311426,unsucc_cost,1.0,2.0,,,sd9,1,2022-05-04_11h18.28.062,threat_forest,2021.2.3,60.10904981482437,True,70.0,0.41666666666666663,0.4375,-1.0833333333333335,-1.3541666666666667,1,0,1.0,0.37189998263461405,0.0530374995311426,0.3333333333333333,0.3333333333333333,0.3333333333333333,0.0,0.33333333333333315,0.33333333333333315,4.333333333333333,4.333333333333333,0.0,2.0,-1.0,4.0,0,1,0,1,0.0530374995311426
6.0,0.0,6.0,0.0,1.0,0.0,1.0,0.0,,,,right,1.5886562997475266,320.0485060000792,sd9,308.01750809978694,311.5314577999525,320.0485060000792,,True,2.0,['r'],False,0.3333333333333333,0.3333333333333333,0.0,0.0,2.0,0.5793801642856949,0.0264787085262345,unsucc_cost,1.0,0.0,317.39832319971174,,sd9,1,2022-05-04_11h18.28.062,threat_forest,2021.2.3,60.10904981482437,True,70.0,0.41666666666666663,0.4375,-1.0833333333333335,-1.3541666666666667,1,0,1.0,0.4628885644400615,0.0264787085262345,0.3333333333333333,0.3333333333333333,0.3333333333333333,0.0,0.33333333333333315,0.33333333333333315,2.333333333333333,2.333333333333333,0.0,2.0,-1.0,2.0,0,1,0,1,0.0264787085262345
7.0,0.0,7.0,0.0,0.0,0.0,0.0,0.0,324.8536791000515,328.3651085998863,,right,1.587167500052601,331.7159847998992,sd9,324.8536791000515,328.3651085998863,331.7159847998992,,True,4.0,['p'],False,0.2448979591836734,0.2857142857142857,0.1428571428571428,1.0,2.0,0.8400769154957735,0.0066793633871859,unsucc_cost,1.0,2.0,,,sd9,1,2022-05-04_11h18.28.062,threat_forest,2021.2.3,60.10904981482437,True,29.0,0.47619047619047616,0.4464285714285714,-0.8594104308390023,-0.9713718820861679,0,0,1.0,0.4619509810614864,0.0066793633871859,0.2448979591836734,0.2448979591836734,0.2857142857142857,0.1428571428571428,-0.2857142857142856,-0.16326530612244894,3.836734693877551,3.836734693877551,0.0,2.0,-1.0,4.0,0,1,0,0,0.0066793633871859
7.0,0.0,7.0,0.0,1.0,0.0,1.0,0.0,,,,left,1.2332767001353204,338.6989943999797,sd9,338.6989943999797,,333.3321072999388,335.33188149984926,True,2.0,['p'],True,0.4444444444444445,0.6666666666666666,0.3333333333333333,1.0,2.0,0.9656336071428248,0.0682254264524575,figh_cost,0.0,0.0,335.33188149984926,,sd9,1,2022-05-04_11h18.28.062,threat_forest,2021.2.3,60.10904981482437,True,29.0,0.47619047619047616,0.4464285714285714,-0.8594104308390023,-0.9713718820861679,1,0,1.0,0.2096746111185686,0.0682254264524575,0.4444444444444445,0.4444444444444445,0.6666666666666666,0.3333333333333333,0.6666666666666665,0.4444444444444444,2.4444444444444446,2.4444444444444446,1.0,2.0,-1.0,2.0,0,1,0,1,0.0682254264524575
8.0,0.0,8.0,0.0,0.0,0.0,0.0,0.0,343.77203289978206,347.2819986999966,,right,1.780762400012463,350.4668372999877,sd9,350.4668372999877,,343.77203289978206,347.2819986999966,False,5.0,['r'],True,0.3061224489795918,0.4285714285714285,0.2857142857142857,2.0,1.0,0.9885754083994552,-0.0051042852935925,wait_cost,0.0,4.0,,,sd9,1,2022-05-04_11h18.28.062,threat_forest,2021.2.3,60.10904981482437,False,36.0,0.41428571428571426,0.4452380952380952,-1.083673469387755,-0.9715419501133786,0,0,0.0,0.5770415872172164,-0.0051042852935925,0.3061224489795918,0.3061224489795918,0.4285714285714285,0.2857142857142857,-0.5714285714285716,-0.36734693877551017,4.63265306122449,4.63265306122449,1.0,1.0,-1.0,5.0,0,1,0,0,-0.0051042852935925
8.0,0.0,8.0,0.0,1.0,0.0,1.0,0.0,,,,left,1.5117774000391364,356.8659425997175,sd9,356.8659425997175,,343.77203289978206,347.2819986999966,True,4.0,['r'],True,0.3061224489795918,0.4285714285714285,0.2857142857142857,2.0,1.0,0.9885754083994552,0.0131354906297295,succ_gain,0.0,5.0,354.2654359000735,,sd9,1,2022-05-04_11h18.28.062,threat_forest,2021.2.3,60.10904981482437,True,36.0,0.41428571428571426,0.4452380952380952,-1.083673469387755,-0.9715419501133786,0,0,1.0,0.4132860447227516,0.0131354906297295,0.3061224489795918,0.3061224489795918,0.4285714285714285,0.2857142857142857,-0.5714285714285716,-0.36734693877551017,3.63265306122449,3.63265306122449,1.0,1.0,-1.0,4.0,0,1,0,0,0.0131354906297295
8.0,0.0,8.0,0.0,2.0,0.0,2.0,0.0,,,,left,1.2203047997318208,363.7164425998926,sd9,363.7164425998926,,343.77203289978206,347.2819986999966,True,5.0,['r'],True,0.3061224489795918,0.4285714285714285,0.2857142857142857,2.0,1.0,0.9885754083994552,-0.0100264508263164,succ_gain,0.0,6.0,360.39884659973904,,sd9,1,2022-05-04_11h18.28.062,threat_forest,2021.2.3,60.10904981482437,True,36.0,0.41428571428571426,0.4452380952380952,-1.083673469387755,-0.9715419501133786,0,0,1.0,0.19910066338714216,-0.0100264508263164,0.3061224489795918,0.3061224489795918,0.4285714285714285,0.2857142857142857,-0.5714285714285716,-0.36734693877551017,4.63265306122449,4.63265306122449,1.0,1.0,1.0,5.0,0,1,0,0,-0.0100264508263164
8.0,0.0,8.0,0.0,3.0,0.0,3.0,0.0,,,,right,1.1486727995797992,370.61649469984695,sd9,370.61649469984695,,343.77203289978206,347.2819986999966,False,6.0,['r'],True,0.3061224489795918,0.4285714285714285,0.2857142857142857,2.0,1.0,0.9885754083994552,-0.3354373857831346,wait_cost,0.0,5.0,366.9656181000173,,sd9,1,2022-05-04_11h18.28.062,threat_forest,2021.2.3,60.10904981482437,False,36.0,0.41428571428571426,0.4452380952380952,-1.083673469387755,-0.9715419501133786,0,0,0.0,0.13860718858164467,-0.3354373857831346,0.0,0.3061224489795918,0.4285714285714285,0.2857142857142857,-0.5714285714285716,-0.36734693877551017,5.63265306122449,5.63265306122449,1.0,1.0,1.0,6.0,0,0,0,0,-0.84
8.0,0.0,8.0,0.0,4.0,0.0,4.0,0.0,,,,left,0.9806379000656308,376.3162166001275,sd9,376.3162166001275,,343.77203289978206,347.2819986999966,True,5.0,['r'],True,0.3061224489795918,0.4285714285714285,0.2857142857142857,2.0,1.0,0.9885754083994552,-0.3695492524373348,unsucc_cost,0.0,3.0,373.7824050998315,,sd9,1,2022-05-04_11h18.28.062,threat_forest,2021.2.3,60.10904981482437,True,36.0,0.41428571428571426,0.4452380952380952,-1.083673469387755,-0.9715419501133786,0,0,1.0,-0.01955200063872099,-0.3695492524373348,0.0,0.3061224489795918,0.4285714285714285,0.2857142857142857,-0.5714285714285716,-0.36734693877551017,4.63265306122449,4.63265306122449,1.0,1.0,-1.0,5.0,0,0,0,0,-0.84
8.0,0.0,8.0,0.0,5.0,0.0,5.0,0.0,,,,right,0.6312871999107301,380.81642480008304,sd9,377.31605729972944,379.3158919000998,380.81642480008304,,True,3.0,['r'],False,0.4,0.4,0.0,0.0,1.0,0.6126016192893442,0.2353061224489796,unsucc_cost,1.0,1.0,379.3158919000998,,sd9,1,2022-05-04_11h18.28.062,threat_forest,2021.2.3,60.10904981482437,True,36.0,0.41428571428571426,0.4452380952380952,-1.083673469387755,-0.9715419501133786,1,0,1.0,-0.45999436957725254,0.2353061224489796,0.4,0.4,0.4,0.0,0.20000000000000007,0.20000000000000007,3.2,3.2,0.0,1.0,-1.0,3.0,0,1,0,1,0.2353061224489796
8.0,0.0,8.0,0.0,6.0,0.0,6.0,0.0,,,,left,1.0835437001660466,386.39955159975216,sd9,386.39955159975216,,381.4661296000704,383.46592839993536,True,1.0,['r'],True,0.3061224489795918,0.4285714285714285,0.2857142857142857,2.0,1.0,0.9885754083994552,0.3061224489795917,unsucc_cost,0.0,0.0,383.46592839993536,,sd9,1,2022-05-04_11h18.28.062,threat_forest,2021.2.3,60.10904981482437,True,36.0,0.41428571428571426,0.4452380952380952,-1.083673469387755,-0.9715419501133786,0,0,1.0,0.08023687359077306,0.3061224489795917,1.0,0.3061224489795918,0.4285714285714285,0.2857142857142857,-0.5714285714285716,-0.36734693877551017,0.6326530612244898,1.0,1.0,1.0,-1.0,1.0,1,1,0,0,0.625
9.0,0.0,9.0,0.0,0.0,0.0,0.0,0.0,391.1577419997193,394.6660289997235,,left,1.8562949001789093,398.3351648999378,sd9,391.1577419997193,394.6660289997235,398.3351648999378,,False,5.0,['p'],False,0.16,0.2,0.2,2.0,1.0,0.8198746470064713,-0.0657281650067768,wait_cost,1.0,4.0,,,sd9,1,2022-05-04_11h18.28.062,threat_forest,2021.2.3,60.10904981482437,False,23.0,0.43333333333333335,0.4238095238095238,-1.3600000000000003,-1.2218367346938777,0,0,0.0,0.6185825119249028,-0.0657281650067768,0.16,0.16,0.2,0.2,-1.0,-0.7200000000000004,4.279999999999999,4.279999999999999,0.0,1.0,-1.0,5.0,0,1,0,0,-0.0657281650067768
9.0,0.0,9.0,0.0,1.0,0.0,1.0,0.0,,,,left,1.228179500438273,403.0832910998725,sd9,403.0832910998725,,400.2165727997199,402.21617179969326,True,4.0,['p'],True,0.4444444444444445,0.6666666666666666,0.3333333333333333,1.0,1.0,0.9656336071428248,0.0699023631221528,unsucc_cost,0.0,2.0,402.21617179969326,,sd9,1,2022-05-04_11h18.28.062,threat_forest,2021.2.3,60.10904981482437,True,23.0,0.43333333333333335,0.4238095238095238,-1.3600000000000003,-1.2218367346938777,1,1,1.0,0.20553299203805567,0.0699023631221528,0.4444444444444445,0.4444444444444445,0.6666666666666666,0.3333333333333333,0.0,0.0,4.0,4.0,1.0,1.0,-1.0,4.0,0,1,1,1,0.0699023631221528
9.0,0.0,9.0,0.0,2.0,0.0,2.0,0.0,,,,left,1.3558737998828292,409.63437599968165,sd9,404.3330705999397,406.3330494998954,409.63437599968165,,False,2.0,['p'],False,0.16,0.2,0.2,2.0,1.0,0.8198746470064713,-0.0144702234415484,wait_cost,1.0,1.0,406.3330494998954,,sd9,1,2022-05-04_11h18.28.062,threat_forest,2021.2.3,60.10904981482437,False,23.0,0.43333333333333335,0.4238095238095238,-1.3600000000000003,-1.2218367346938777,0,0,0.0,0.3044461172540982,-0.0144702234415484,0.16,0.16,0.2,0.2,-1.0,-0.7200000000000004,1.2799999999999996,1.2799999999999996,0.0,1.0,-1.0,2.0,0,1,0,0,-0.0144702234415484
9.0,0.0,9.0,0.0,3.0,0.0,3.0,0.0,,,,left,0.7686054999940097,416.26702459994704,sd9,416.26702459994704,,411.0167403998785,413.0163838998415,True,1.0,['p'],True,0.4444444444444445,0.6666666666666666,0.3333333333333333,1.0,1.0,0.9656336071428248,0.0687739064167046,figh_cost,0.0,0.0,413.0163838998415,,sd9,1,2022-05-04_11h18.28.062,threat_forest,2021.2.3,60.10904981482437,True,23.0,0.43333333333333335,0.4238095238095238,-1.3600000000000003,-1.2218367346938777,1,1,1.0,-0.26317744501697865,0.0687739064167046,1.0,0.4444444444444445,0.6666666666666666,0.3333333333333333,0.0,0.0,1.0,1.0,1.0,1.0,-1.0,1.0,1,1,1,1,0.625
10.0,0.0,10.0,0.0,0.0,0.0,0.0,0.0,421.010665900074,424.5165423997678,,right,0.7741777002811432,427.4840689999983,sd9,421.010665900074,424.5165423997678,427.4840689999983,,True,4.0,['p'],False,0.375,0.5,0.25,1.0,2.0,0.9850568223215076,0.0640175729863931,succ_gain,1.0,6.0,,,sd9,1,2022-05-04_11h18.28.062,threat_forest,2021.2.3,60.10904981482437,True,59.0,0.3611111111111111,0.39722222222222225,-1.1404320987654322,-1.2502160493827161,1,0,1.0,-0.25595384481691363,0.0640175729863931,0.375,0.375,0.5,0.25,0.25,0.25,4.25,4.25,0.0,2.0,-1.0,4.0,0,1,0,1,0.0640175729863931
10.0,0.0,10.0,0.0,1.0,0.0,1.0,0.0,,,,right,1.964099999982864,433.6364862998016,sd9,433.6364862998016,,428.2834099996835,430.2832511998713,False,6.0,['p'],True,0.1728395061728395,0.2222222222222222,0.2222222222222222,2.0,2.0,0.8571721972794328,-0.10870870610332,wait_cost,0.0,5.0,430.2832511998713,,sd9,1,2022-05-04_11h18.28.062,threat_forest,2021.2.3,60.10904981482437,False,59.0,0.3611111111111111,0.39722222222222225,-1.1404320987654322,-1.2502160493827161,0,0,0.0,0.6750341251242937,-0.10870870610332,0.1728395061728395,0.1728395061728395,0.2222222222222222,0.2222222222222222,-0.7777777777777777,-0.5308641975308643,5.469135802469136,5.469135802469136,1.0,2.0,1.0,6.0,0,1,0,0,-0.10870870610332
10.0,0.0,10.0,0.0,2.0,0.0,2.0,0.0,,,,right,1.860493399668485,439.8503441000357,sd9,439.8503441000357,,428.2834099996835,430.2832511998713,False,5.0,['p'],True,0.1728395061728395,0.2222222222222222,0.2222222222222222,2.0,2.0,0.8571721972794328,-0.0361377939425744,wait_cost,0.0,4.0,437.6167780999094,,sd9,1,2022-05-04_11h18.28.062,threat_forest,2021.2.3,60.10904981482437,False,59.0,0.3611111111111111,0.39722222222222225,-1.1404320987654322,-1.2502160493827161,0,0,0.0,0.6208417211865758,-0.0361377939425744,0.1728395061728395,0.1728395061728395,0.2222222222222222,0.2222222222222222,-0.7777777777777777,-0.5308641975308643,4.469135802469136,4.469135802469136,1.0,2.0,-1.0,5.0,0,1,0,0,-0.0361377939425744
10.0,0.0,10.0,0.0,3.0,0.0,3.0,0.0,,,,right,1.3431442002765834,446.3533696997911,sd9,441.7339746998623,443.73348479997367,446.3533696997911,,True,4.0,['p'],False,0.375,0.5,0.25,1.0,2.0,0.9850568223215076,0.1164893285637173,figh_cost,1.0,1.0,443.73348479997367,,sd9,1,2022-05-04_11h18.28.062,threat_forest,2021.2.3,60.10904981482437,True,59.0,0.3611111111111111,0.39722222222222225,-1.1404320987654322,-1.2502160493827161,1,0,1.0,0.2950132835393274,0.1164893285637173,0.375,0.375,0.5,0.25,0.25,0.25,4.25,4.25,0.0,2.0,-1.0,4.0,0,1,0,1,0.1164893285637173
10.0,0.0,10.0,0.0,4.0,0.0,4.0,0.0,,,,left,1.7488043997436762,451.6839165999554,sd9,451.6839165999554,,447.71714660013095,449.716878999956,True,1.0,['p'],True,0.1728395061728395,0.2222222222222222,0.2222222222222222,2.0,2.0,0.8571721972794328,0.0705413294937726,unsucc_cost,0.0,0.0,449.716878999956,,sd9,1,2022-05-04_11h18.28.062,threat_forest,2021.2.3,60.10904981482437,True,59.0,0.3611111111111111,0.39722222222222225,-1.1404320987654322,-1.2502160493827161,0,0,1.0,0.55893235430138,0.0705413294937726,1.0,0.1728395061728395,0.2222222222222222,0.2222222222222222,-0.7777777777777777,-0.5308641975308643,0.46913580246913567,1.0,1.0,2.0,-1.0,1.0,1,1,0,0,0.625
11.0,0.0,11.0,0.0,0.0,0.0,0.0,0.0,458.0247454000637,461.5337064997293,,left,1.8499841000884767,465.2842593998648,sd9,465.2842593998648,,458.0247454000637,461.5337064997293,True,4.0,['r'],True,0.4081632653061224,0.5714285714285714,0.2857142857142857,2.0,2.0,0.9885754083994552,0.0102904310319958,succ_gain,0.0,6.0,,,sd9,1,2022-05-04_11h18.28.062,threat_forest,2021.2.3,60.10904981482437,True,64.0,0.5357142857142857,0.4484126984126984,-0.326530612244898,-0.7334813555051651,1,0,1.0,0.6151770445065308,0.0102904310319958,0.4081632653061224,0.4081632653061224,0.5714285714285714,0.2857142857142857,0.4285714285714285,0.346938775510204,4.346938775510204,4.346938775510204,1.0,2.0,-1.0,4.0,0,1,0,1,0.0102904310319958
11.0,0.0,11.0,0.0,1.0,0.0,1.0,0.0,,,,right,1.452831500209868,469.7674700999633,sd9,469.7674700999633,,458.0247454000637,461.5337064997293,False,6.0,['r'],True,0.4081632653061224,0.5714285714285714,0.2857142857142857,2.0,2.0,0.9885754083994552,-0.0789184913550894,wait_cost,0.0,5.0,469.15052569983527,,sd9,1,2022-05-04_11h18.28.062,threat_forest,2021.2.3,60.10904981482437,False,64.0,0.5357142857142857,0.4484126984126984,-0.326530612244898,-0.7334813555051651,1,0,0.0,0.3735144110430117,-0.0789184913550894,0.4081632653061224,0.4081632653061224,0.5714285714285714,0.2857142857142857,0.4285714285714285,0.346938775510204,6.346938775510204,6.346938775510204,1.0,2.0,1.0,6.0,0,1,0,1,-0.0789184913550894
11.0,0.0,11.0,0.0,2.0,0.0,2.0,0.0,,,,left,1.665412100031972,474.80124159995466,sd9,474.80124159995466,,458.0247454000637,461.5337064997293,True,5.0,['r'],True,0.4081632653061224,0.5714285714285714,0.2857142857142857,2.0,2.0,0.9885754083994552,-0.0126763486945585,succ_gain,0.0,6.0,473.250606500078,,sd9,1,2022-05-04_11h18.28.062,threat_forest,2021.2.3,60.10904981482437,True,64.0,0.5357142857142857,0.4484126984126984,-0.326530612244898,-0.7334813555051651,1,0,1.0,0.5100726003341823,-0.0126763486945585,0.4081632653061224,0.4081632653061224,0.5714285714285714,0.2857142857142857,0.4285714285714285,0.346938775510204,5.346938775510204,5.346938775510204,1.0,2.0,-1.0,5.0,0,1,0,1,-0.0126763486945585
11.0,0.0,11.0,0.0,3.0,0.0,3.0,0.0,,,,left,1.705410199705511,481.6343712001108,sd9,481.6343712001108,,458.0247454000637,461.5337064997293,True,6.0,['r'],True,0.4081632653061224,0.5714285714285714,0.2857142857142857,2.0,2.0,0.9885754083994552,-0.1920843462332871,unsucc_cost,0.0,4.0,478.4839471001178,,sd9,1,2022-05-04_11h18.28.062,threat_forest,2021.2.3,60.10904981482437,True,64.0,0.5357142857142857,0.4484126984126984,-0.326530612244898,-0.7334813555051651,1,0,1.0,0.5338056681367714,-0.1920843462332871,0.0,0.4081632653061224,0.5714285714285714,0.2857142857142857,0.4285714285714285,0.346938775510204,6.346938775510204,6.346938775510204,1.0,2.0,1.0,6.0,0,0,0,1,-0.84
11.0,0.0,11.0,0.0,4.0,0.0,4.0,0.0,,,,right,1.1890426999889314,488.20103739993647,sd9,483.3676728000864,485.36738439975306,488.20103739993647,,True,4.0,['r'],False,0.5,0.5,0.0,0.0,2.0,0.6309297535714574,0.1014160766347355,unsucc_cost,1.0,2.0,485.36738439975306,,sd9,1,2022-05-04_11h18.28.062,threat_forest,2021.2.3,60.10904981482437,True,64.0,0.5357142857142857,0.4484126984126984,-0.326530612244898,-0.7334813555051651,1,1,1.0,0.17314852958603555,0.1014160766347355,0.5,0.5,0.5,0.0,1.0,1.0,5.0,5.0,0.0,2.0,-1.0,4.0,0,1,1,1,0.1014160766347355
11.0,0.0,11.0,0.0,5.0,0.0,5.0,0.0,,,,left,1.55358469998464,494.1013318998739,sd9,494.1013318998739,,489.4176968000829,491.4176431996748,True,2.0,['r'],True,0.4081632653061224,0.5714285714285714,0.2857142857142857,2.0,2.0,0.9885754083994552,-0.0459183673469387,figh_cost,0.0,0.0,491.4176431996748,,sd9,1,2022-05-04_11h18.28.062,threat_forest,2021.2.3,60.10904981482437,True,64.0,0.5357142857142857,0.4484126984126984,-0.326530612244898,-0.7334813555051651,1,0,1.0,0.4405649704017962,-0.0459183673469387,0.4081632653061224,0.4081632653061224,0.5714285714285714,0.2857142857142857,0.4285714285714285,0.346938775510204,2.3469387755102042,2.3469387755102042,1.0,2.0,-1.0,2.0,0,1,0,1,-0.0459183673469387
12.0,0.0,12.0,0.0,0.0,0.0,0.0,0.0,500.41016829991713,503.9176953998394,,left,1.7244728999212384,505.4036046997644,sd9,500.41016829991713,503.9176953998394,505.4036046997644,,False,5.0,['p'],False,0.16,0.2,0.2,2.0,1.0,0.8198746470064713,-0.0406469608296754,wait_cost,1.0,4.0,,,sd9,1,2022-05-04_11h18.28.062,threat_forest,2021.2.3,60.10904981482437,False,3.0,0.35,0.44285714285714284,-1.4225000000000003,-0.8745153061224491,0,0,0.0,0.5449214385256955,-0.0406469608296754,0.16,0.16,0.2,0.2,-1.0,-0.7200000000000004,4.279999999999999,4.279999999999999,0.0,1.0,-1.0,5.0,0,1,0,0,-0.0406469608296754
12.0,0.0,12.0,0.0,1.0,0.0,1.0,0.0,,,,left,1.6517686997540295,511.5015535997227,sd9,500.41016829991713,503.9176953998394,511.5015535997227,,False,4.0,['p'],False,0.16,0.2,0.2,2.0,1.0,0.8198746470064713,-0.0315257116296388,wait_cost,1.0,3.0,509.1512368000113,,sd9,1,2022-05-04_11h18.28.062,threat_forest,2021.2.3,60.10904981482437,False,3.0,0.35,0.44285714285714284,-1.4225000000000003,-0.8745153061224491,0,0,0.0,0.5018466530407254,-0.0315257116296388,0.16,0.16,0.2,0.2,-1.0,-0.7200000000000004,3.2799999999999994,3.2799999999999994,0.0,1.0,-1.0,4.0,0,1,0,0,-0.0315257116296388
12.0,0.0,12.0,0.0,2.0,0.0,2.0,0.0,,,,left,2.038732100278139,516.0018881000578,sd9,500.41016829991713,503.9176953998394,516.0018881000578,,False,3.0,['p'],False,0.16,0.2,0.2,2.0,1.0,0.8198746470064713,-0.0265462120898438,wait_cost,1.0,2.0,515.1845744000748,,sd9,1,2022-05-04_11h18.28.062,threat_forest,2021.2.3,60.10904981482437,False,3.0,0.35,0.44285714285714284,-1.4225000000000003,-0.8745153061224491,0,0,0.0,0.7123280951613323,-0.0265462120898438,0.16,0.16,0.2,0.2,-1.0,-0.7200000000000004,2.2799999999999994,2.2799999999999994,0.0,1.0,-1.0,3.0,0,1,0,0,-0.0265462120898438
12.0,0.0,12.0,0.0,3.0,0.0,3.0,0.0,,,,left,1.0837984001263976,523.2514960998669,sd9,523.2514960998669,,518.0681960997172,520.0679566999897,True,2.0,['p'],True,0.375,0.5,0.25,1.0,1.0,0.9850568223215076,0.0506547607421876,succ_gain,0.0,3.0,520.0679566999897,,sd9,1,2022-05-04_11h18.28.062,threat_forest,2021.2.3,60.10904981482437,True,3.0,0.35,0.44285714285714284,-1.4225000000000003,-0.8745153061224491,0,0,1.0,0.08047190797827387,0.0506547607421876,0.375,0.375,0.5,0.25,-0.25,-0.125,1.875,1.875,1.0,1.0,-1.0,2.0,0,1,0,0,0.0506547607421876
12.0,0.0,12.0,0.0,4.0,0.0,4.0,0.0,,,,left,1.680550099816173,530.036516000051,sd9,524.3682256001048,526.3682077000849,530.036516000051,,False,3.0,['p'],False,0.16,0.2,0.2,2.0,1.0,0.8198746470064713,-0.1062520000000001,wait_cost,1.0,2.0,526.3682077000849,,sd9,1,2022-05-04_11h18.28.062,threat_forest,2021.2.3,60.10904981482437,False,3.0,0.35,0.44285714285714284,-1.4225000000000003,-0.8745153061224491,0,0,0.0,0.5191211801850399,-0.1062520000000001,0.16,0.16,0.2,0.2,-1.0,-0.7200000000000004,2.2799999999999994,2.2799999999999994,0.0,1.0,1.0,3.0,0,1,0,0,-0.1062520000000001
12.0,0.0,12.0,0.0,5.0,0.0,5.0,0.0,,,,left,1.5220445999875665,536.6191126997583,sd9,524.3682256001048,526.3682077000849,536.6191126997583,,False,2.0,['p'],False,0.16,0.2,0.2,2.0,1.0,0.8198746470064713,-0.1075,wait_cost,1.0,1.0,533.7347772000358,,sd9,1,2022-05-04_11h18.28.062,threat_forest,2021.2.3,60.10904981482437,False,3.0,0.35,0.44285714285714284,-1.4225000000000003,-0.8745153061224491,0,0,0.0,0.4200545625499478,-0.1075,0.16,0.16,0.2,0.2,-1.0,-0.7200000000000004,1.2799999999999996,1.2799999999999996,0.0,1.0,-1.0,2.0,0,1,0,0,-0.1075
12.0,0.0,12.0,0.0,6.0,0.0,6.0,0.0,,,,left,0.8497134000062943,543.5018163998611,sd9,543.5018163998611,,538.1685029999353,540.1682759998366,True,1.0,['p'],True,0.375,0.5,0.25,1.0,1.0,0.9850568223215076,0.375,succ_gain,0.0,2.0,540.1682759998366,,sd9,1,2022-05-04_11h18.28.062,threat_forest,2021.2.3,60.10904981482437,True,3.0,0.35,0.44285714285714284,-1.4225000000000003,-0.8745153061224491,0,0,1.0,-0.16285616281772267,0.375,1.0,0.375,0.5,0.25,-0.25,-0.125,0.875,1.0,1.0,1.0,-1.0,1.0,1,1,0,0,0.625
12.0,0.0,12.0,0.0,7.0,0.0,7.0,0.0,,,,right,1.764441099949181,548.218648399692,sd9,548.218648399692,,538.1685029999353,540.1682759998366,False,2.0,['p'],True,0.375,0.5,0.25,1.0,1.0,0.9850568223215076,-0.625,wait_cost,0.0,1.0,546.3685030001216,,sd9,1,2022-05-04_11h18.28.062,threat_forest,2021.2.3,60.10904981482437,False,3.0,0.35,0.44285714285714284,-1.4225000000000003,-0.8745153061224491,0,0,0.0,0.5678339829861773,-0.625,0.0,0.375,0.5,0.25,-0.25,-0.125,1.875,1.875,1.0,1.0,1.0,2.0,0,0,0,0,-0.84
13.0,0.0,13.0,0.0,0.0,0.0,0.0,0.0,553.9893990997225,557.5018865000457,,left,1.1316339997574687,560.8026501000859,sd9,560.8026501000859,,553.9893990997225,557.5018865000457,True,5.0,['r'],True,0.3333333333333333,0.3333333333333333,0.0,0.0,1.0,0.5793801642856949,0.037608671236214,succ_gain,0.0,6.0,,,sd9,1,2022-05-04_11h18.28.062,threat_forest,2021.2.3,60.10904981482437,True,28.0,0.3666666666666667,0.35833333333333334,-1.3400000000000003,-1.3812500000000003,1,0,1.0,0.12366260573221835,0.037608671236214,0.3333333333333333,0.3333333333333333,0.3333333333333333,0.0,-2.220446049250313e-16,-2.220446049250313e-16,5.0,5.0,1.0,1.0,-1.0,5.0,0,1,0,1,0.037608671236214
13.0,0.0,13.0,0.0,1.0,0.0,1.0,0.0,,,,left,1.7171459002420306,564.6859812997282,sd9,564.6859812997282,,553.9893990997225,557.5018865000457,True,6.0,['r'],True,0.3333333333333333,0.3333333333333333,0.0,0.0,1.0,0.5793801642856949,-0.0910187846364884,unsucc_cost,0.0,4.0,563.952033800073,,sd9,1,2022-05-04_11h18.28.062,threat_forest,2021.2.3,60.10904981482437,True,28.0,0.3666666666666667,0.35833333333333334,-1.3400000000000003,-1.3812500000000003,1,0,1.0,0.5406635522377166,-0.0910187846364884,0.3333333333333333,0.3333333333333333,0.3333333333333333,0.0,-2.220446049250313e-16,-2.220446049250313e-16,6.0,6.0,1.0,1.0,1.0,6.0,0,1,0,1,-0.0910187846364884
13.0,0.0,13.0,0.0,2.0,0.0,2.0,0.0,,,,left,1.253990299999714,572.1023160000332,sd9,572.1023160000332,,553.9893990997225,557.5018865000457,True,4.0,['r'],True,0.3333333333333333,0.3333333333333333,0.0,0.0,1.0,0.5793801642856949,0.0591944197530864,succ_gain,0.0,5.0,568.43534119986,,sd9,1,2022-05-04_11h18.28.062,threat_forest,2021.2.3,60.10904981482437,True,28.0,0.3666666666666667,0.35833333333333334,-1.3400000000000003,-1.3812500000000003,1,0,1.0,0.22633070693337468,0.0591944197530864,0.3333333333333333,0.3333333333333333,0.3333333333333333,0.0,-2.220446049250313e-16,-2.220446049250313e-16,4.0,4.0,1.0,1.0,-1.0,4.0,0,1,0,1,0.0591944197530864
13.0,0.0,13.0,0.0,3.0,0.0,3.0,0.0,,,,left,1.7638560002669692,577.1690142001025,sd9,577.1690142001025,,553.9893990997225,557.5018865000457,True,5.0,['r'],True,0.3333333333333333,0.3333333333333333,0.0,0.0,1.0,0.5793801642856949,0.0806148148148148,unsucc_cost,0.0,3.0,575.3854191000573,,sd9,1,2022-05-04_11h18.28.062,threat_forest,2021.2.3,60.10904981482437,True,28.0,0.3666666666666667,0.35833333333333334,-1.3400000000000003,-1.3812500000000003,1,0,1.0,0.5675023217507674,0.0806148148148148,0.3333333333333333,0.3333333333333333,0.3333333333333333,0.0,-2.220446049250313e-16,-2.220446049250313e-16,5.0,5.0,1.0,1.0,1.0,5.0,0,1,0,1,0.0806148148148148
13.0,0.0,13.0,0.0,4.0,0.0,4.0,0.0,,,,left,0.9256730997003616,582.6360824001022,sd9,582.6360824001022,,553.9893990997225,557.5018865000457,True,3.0,['r'],True,0.3333333333333333,0.3333333333333333,0.0,0.0,1.0,0.5793801642856949,0.0825777777777777,succ_gain,0.0,4.0,580.952361300122,,sd9,1,2022-05-04_11h18.28.062,threat_forest,2021.2.3,60.10904981482437,True,28.0,0.3666666666666667,0.35833333333333334,-1.3400000000000003,-1.3812500000000003,1,0,1.0,-0.07723413074531094,0.0825777777777777,0.3333333333333333,0.3333333333333333,0.3333333333333333,0.0,-2.220446049250313e-16,-2.220446049250313e-16,3.0,3.0,1.0,1.0,-1.0,3.0,0,1,0,1,0.0825777777777777
13.0,0.0,13.0,0.0,5.0,0.0,5.0,0.0,,,,left,1.7314968002028763,588.5192014998756,sd9,583.5857715997845,585.5856230999343,588.5192014998756,,False,4.0,['r'],False,0.24,0.4,0.4,2.0,1.0,0.9801625908629508,-0.5337333333333334,wait_cost,1.0,3.0,585.5856230999343,,sd9,1,2022-05-04_11h18.28.062,threat_forest,2021.2.3,60.10904981482437,False,28.0,0.3666666666666667,0.35833333333333334,-1.3400000000000003,-1.3812500000000003,0,0,0.0,0.5489862368672237,-0.5337333333333334,0.0,0.24,0.4,0.4,-1.0,-0.6800000000000002,3.32,3.32,0.0,1.0,1.0,4.0,0,0,0,0,-0.84
13.0,0.0,13.0,0.0,6.0,0.0,6.0,0.0,,,,left,1.4110662997700274,594.4362276000902,sd9,583.5857715997845,585.5856230999343,594.4362276000902,,False,3.0,['r'],False,0.24,0.4,0.4,2.0,1.0,0.9801625908629508,-0.6568,wait_cost,1.0,2.0,592.2689910996705,,sd9,1,2022-05-04_11h18.28.062,threat_forest,2021.2.3,60.10904981482437,False,28.0,0.3666666666666667,0.35833333333333334,-1.3400000000000003,-1.3812500000000003,0,0,0.0,0.3443456595556071,-0.6568,0.0,0.24,0.4,0.4,-1.0,-0.6800000000000002,2.32,2.32,0.0,1.0,-1.0,3.0,0,0,0,0,-0.84
13.0,0.0,13.0,0.0,7.0,0.0,7.0,0.0,,,,left,1.1715535996481776,601.3695733998902,sd9,583.5857715997845,585.5856230999343,601.3695733998902,,False,2.0,['r'],False,0.24,0.4,0.4,2.0,1.0,0.9801625908629508,-0.76,wait_cost,1.0,1.0,597.8691638996825,,sd9,1,2022-05-04_11h18.28.062,threat_forest,2021.2.3,60.10904981482437,False,28.0,0.3666666666666667,0.35833333333333334,-1.3400000000000003,-1.3812500000000003,0,0,0.0,0.15833073092648364,-0.76,0.0,0.24,0.4,0.4,-1.0,-0.6800000000000002,1.3199999999999998,1.3199999999999998,0.0,1.0,-1.0,2.0,0,0,0,0,-0.84
14.0,0.0,14.0,0.0,0.0,0.0,0.0,0.0,606.4545621001162,609.9692509998567,,right,2.5652258996851742,611.4532158998773,sd9,611.4532158998773,,606.4545621001162,609.9692509998567,False,5.0,['r'],True,0.3333333333333333,0.3333333333333333,0.0,0.0,2.0,0.5793801642856949,0.0474629650798488,wait_cost,0.0,4.0,,,sd9,1,2022-05-04_11h18.28.062,threat_forest,2021.2.3,60.10904981482437,False,68.0,0.5,0.43333333333333335,-1.2222222222222223,-1.2811111111111113,1,0,0.0,0.942046544797493,0.0474629650798488,0.3333333333333333,0.3333333333333333,0.3333333333333333,0.0,0.33333333333333315,0.33333333333333315,5.333333333333333,5.333333333333333,1.0,2.0,-1.0,5.0,0,1,0,1,0.0474629650798488
14.0,0.0,14.0,0.0,1.0,0.0,1.0,0.0,,,,left,0.8431450999341905,616.7864171997644,sd9,616.7864171997644,,606.4545621001162,609.9692509998567,True,4.0,['r'],True,0.3333333333333333,0.3333333333333333,0.0,0.0,2.0,0.5793801642856949,0.0916280864197529,unsucc_cost,0.0,2.0,616.0360999996774,,sd9,1,2022-05-04_11h18.28.062,threat_forest,2021.2.3,60.10904981482437,True,68.0,0.5,0.43333333333333335,-1.2222222222222223,-1.2811111111111113,1,0,1.0,-0.17061621250094094,0.0916280864197529,0.3333333333333333,0.3333333333333333,0.3333333333333333,0.0,0.33333333333333315,0.33333333333333315,4.333333333333333,4.333333333333333,1.0,2.0,-1.0,4.0,0,1,0,1,0.0916280864197529
14.0,0.0,14.0,0.0,2.0,0.0,2.0,0.0,,,,right,2.2595456996932626,621.0365610998124,sd9,617.6529414998367,619.6528711998835,621.0365610998124,,True,2.0,['r'],False,0.2222222222222222,0.6666666666666666,0.6666666666666666,2.0,2.0,0.77250688571426,-0.0090020576131686,figh_cost,1.0,0.0,619.6528711998835,,sd9,1,2022-05-04_11h18.28.062,threat_forest,2021.2.3,60.10904981482437,True,68.0,0.5,0.43333333333333335,-1.2222222222222223,-1.2811111111111113,0,0,1.0,0.815163775242562,-0.0090020576131686,0.2222222222222222,0.2222222222222222,0.6666666666666666,0.6666666666666666,-0.3333333333333335,-0.7777777777777779,1.222222222222222,1.222222222222222,0.0,2.0,-1.0,2.0,0,1,0,0,-0.0090020576131686
15.0,0.0,15.0,0.0,0.0,0.0,0.0,0.0,628.6436366997659,632.1529184998944,,right,2.0190340001136065,635.1540640001185,sd9,635.1540640001185,,628.6436366997659,632.1529184998944,False,5.0,['r'],True,0.25,0.25,0.0,0.0,1.0,0.5118595071429148,0.0173976500804358,wait_cost,0.0,4.0,,,sd9,1,2022-05-04_11h18.28.062,threat_forest,2021.2.3,60.10904981482437,False,32.0,0.26785714285714285,0.3839285714285714,-1.461734693877551,-1.3419784580498866,1,0,0.0,0.7026191792649884,0.0173976500804358,0.25,0.25,0.25,0.0,-0.25,-0.25,4.75,4.75,1.0,1.0,-1.0,5.0,0,1,0,1,0.0173976500804358
15.0,0.0,15.0,0.0,1.0,0.0,1.0,0.0,,,,left,1.0946840001270175,640.3532985998318,sd9,640.3532985998318,,628.6436366997659,632.1529184998944,True,4.0,['r'],True,0.25,0.25,0.0,0.0,1.0,0.5118595071429148,0.0227176667958948,unsucc_cost,0.0,2.0,639.2030690996908,,sd9,1,2022-05-04_11h18.28.062,threat_forest,2021.2.3,60.10904981482437,True,32.0,0.26785714285714285,0.3839285714285714,-1.461734693877551,-1.3419784580498866,1,0,1.0,0.090465737261097,0.0227176667958948,0.25,0.25,0.25,0.0,-0.25,-0.25,3.75,3.75,1.0,1.0,-1.0,4.0,0,1,0,1,0.0227176667958948
15.0,0.0,15.0,0.0,2.0,0.0,2.0,0.0,,,,left,2.40097379963845,646.420283799991,sd9,646.420283799991,,628.6436366997659,632.1529184998944,True,2.0,['r'],True,0.25,0.25,0.0,0.0,1.0,0.5118595071429148,0.0121283074313569,unsucc_cost,0.0,0.0,643.4697535997257,,sd9,1,2022-05-04_11h18.28.062,threat_forest,2021.2.3,60.10904981482437,True,32.0,0.26785714285714285,0.3839285714285714,-1.461734693877551,-1.3419784580498866,1,0,1.0,0.8758744049090439,0.0121283074313569,0.25,0.25,0.25,0.0,-0.25,-0.25,1.75,1.75,1.0,1.0,-1.0,2.0,0,1,0,1,0.0121283074313569
16.0,0.0,16.0,0.0,0.0,0.0,0.0,0.0,652.6275830999948,656.1366158998571,,right,1.58131070015952,659.554985200055,sd9,652.6275830999948,656.1366158998571,659.554985200055,,True,4.0,['p'],False,0.2592592592592592,0.3333333333333333,0.2222222222222222,2.0,2.0,0.9327883776363324,0.0060894858457368,figh_cost,1.0,1.0,,,sd9,1,2022-05-04_11h18.28.062,threat_forest,2021.2.3,60.10904981482437,True,31.0,0.41666666666666663,0.34226190476190477,-0.9675925925925928,-1.214663643235072,1,0,1.0,0.4582540602095747,0.0060894858457368,0.2592592592592592,0.2592592592592592,0.3333333333333333,0.2222222222222222,-0.3333333333333335,-0.18518518518518556,3.8148148148148144,3.8148148148148144,0.0,2.0,-1.0,4.0,0,1,0,1,0.0060894858457368
16.0,0.0,16.0,0.0,1.0,0.0,1.0,0.0,,,,left,1.754739800002426,666.853974299971,sd9,666.853974299971,,661.1536147999577,663.1533984998241,True,1.0,['p'],True,0.375,0.5,0.25,1.0,2.0,0.9850568223215076,0.0961847997887626,unsucc_cost,0.0,0.0,663.1533984998241,,sd9,1,2022-05-04_11h18.28.062,threat_forest,2021.2.3,60.10904981482437,True,31.0,0.41666666666666663,0.34226190476190477,-0.9675925925925928,-1.214663643235072,1,1,1.0,0.5623205838190367,0.0961847997887626,1.0,0.375,0.5,0.25,0.25,0.25,1.25,1.25,1.0,2.0,-1.0,1.0,1,1,1,1,0.625
17.0,0.0,17.0,0.0,0.0,0.0,0.0,0.0,674.0988757000305,677.6036653998308,,right,1.7790966001339257,678.3875282998197,sd9,674.0988757000305,677.6036653998308,678.3875282998197,,True,5.0,['p'],False,0.4166666666666667,0.5,0.1666666666666666,1.0,1.0,0.9358932809493992,0.0479638815409865,succ_gain,1.0,6.0,,,sd9,1,2022-05-04_11h18.28.062,threat_forest,2021.2.3,60.10904981482437,True,16.0,0.4,0.4083333333333333,-1.1033333333333333,-1.035462962962963,1,1,1.0,0.5761057074534087,0.0479638815409865,0.4166666666666667,0.4166666666666667,0.5,0.1666666666666666,2.220446049250313e-16,0.08333333333333348,5.083333333333334,5.083333333333334,0.0,1.0,-1.0,5.0,0,1,1,1,0.0479638815409865
17.0,0.0,17.0,0.0,1.0,0.0,1.0,0.0,,,,left,1.2113529997877777,682.8210509000346,sd9,674.0988757000305,677.6036653998308,682.8210509000346,,False,6.0,['p'],False,0.4166666666666667,0.5,0.1666666666666666,1.0,1.0,0.9358932809493992,-0.0963218222778721,wait_cost,1.0,5.0,682.1874771998264,,sd9,1,2022-05-04_11h18.28.062,threat_forest,2021.2.3,60.10904981482437,False,16.0,0.4,0.4083333333333333,-1.1033333333333333,-1.035462962962963,1,1,0.0,0.19173791655198966,-0.0963218222778721,0.4166666666666667,0.4166666666666667,0.5,0.1666666666666666,2.220446049250313e-16,0.08333333333333348,6.083333333333334,6.083333333333334,0.0,1.0,1.0,6.0,0,1,1,1,-0.0963218222778721
17.0,0.0,17.0,0.0,2.0,0.0,2.0,0.0,,,,right,1.7912339000031352,689.7584218997508,sd9,689.7584218997508,,684.0539772999473,686.0537036997266,False,5.0,['p'],True,0.27,0.3,0.1,1.0,1.0,0.7963326591781347,-0.0198676931790124,wait_cost,0.0,4.0,686.0537036997266,,sd9,1,2022-05-04_11h18.28.062,threat_forest,2021.2.3,60.10904981482437,False,16.0,0.4,0.4083333333333333,-1.1033333333333333,-1.035462962962963,0,0,0.0,0.5829047119848253,-0.0198676931790124,0.27,0.27,0.3,0.1,-0.3999999999999999,-0.29000000000000004,4.71,4.71,1.0,1.0,-1.0,5.0,0,1,0,0,-0.0198676931790124
17.0,0.0,17.0,0.0,3.0,0.0,3.0,0.0,,,,right,1.165078999940306,694.7542312000878,sd9,691.5707613998093,693.5704518998973,694.7542312000878,,True,4.0,['p'],False,0.4166666666666667,0.5,0.1666666666666666,1.0,1.0,0.9358932809493992,0.0877168672839506,unsucc_cost,1.0,2.0,693.5704518998973,,sd9,1,2022-05-04_11h18.28.062,threat_forest,2021.2.3,60.10904981482437,True,16.0,0.4,0.4083333333333333,-1.1033333333333333,-1.035462962962963,1,1,1.0,0.15278889582615343,0.0877168672839506,0.4166666666666667,0.4166666666666667,0.5,0.1666666666666666,2.220446049250313e-16,0.08333333333333348,4.083333333333334,4.083333333333334,0.0,1.0,-1.0,4.0,0,1,1,1,0.0877168672839506
17.0,0.0,17.0,0.0,4.0,0.0,4.0,0.0,,,,right,1.7320806998759508,698.522067700047,sd9,698.522067700047,,695.9374178997241,697.9373872000724,False,2.0,['p'],True,0.27,0.3,0.1,1.0,1.0,0.7963326591781347,0.0107463333333333,wait_cost,0.0,1.0,697.9373872000724,,sd9,1,2022-05-04_11h18.28.062,threat_forest,2021.2.3,60.10904981482437,False,16.0,0.4,0.4083333333333333,-1.1033333333333333,-1.035462962962963,0,0,0.0,0.5493234025166671,0.0107463333333333,0.27,0.27,0.3,0.1,-0.3999999999999999,-0.29000000000000004,1.71,1.71,1.0,1.0,-1.0,2.0,0,1,0,0,0.0107463333333333
17.0,0.0,17.0,0.0,5.0,0.0,5.0,0.0,,,,right,0.8018367001786828,703.487966499757,sd9,700.2709288997576,702.2706828000955,703.487966499757,,True,1.0,['p'],False,0.4166666666666667,0.5,0.1666666666666666,1.0,1.0,0.9358932809493992,0.1583333333333334,succ_gain,1.0,2.0,702.2706828000955,,sd9,1,2022-05-04_11h18.28.062,threat_forest,2021.2.3,60.10904981482437,True,16.0,0.4,0.4083333333333333,-1.1033333333333333,-1.035462962962963,1,1,1.0,-0.2208503075854244,0.1583333333333334,1.0,0.4166666666666667,0.5,0.1666666666666666,2.220446049250313e-16,0.08333333333333348,1.0833333333333335,1.0833333333333335,0.0,1.0,-1.0,1.0,1,1,1,1,0.625
17.0,0.0,17.0,0.0,6.0,0.0,6.0,0.0,,,,right,1.2867704997770488,708.8043466997333,sd9,700.2709288997576,702.2706828000955,708.8043466997333,,True,2.0,['p'],False,0.4166666666666667,0.5,0.1666666666666666,1.0,1.0,0.9358932809493992,0.0733333333333333,succ_gain,1.0,3.0,706.3207509997301,,sd9,1,2022-05-04_11h18.28.062,threat_forest,2021.2.3,60.10904981482437,True,16.0,0.4,0.4083333333333333,-1.1033333333333333,-1.035462962962963,1,1,1.0,0.25213559086120296,0.0733333333333333,0.4166666666666667,0.4166666666666667,0.5,0.1666666666666666,2.220446049250313e-16,0.08333333333333348,2.0833333333333335,2.0833333333333335,0.0,1.0,1.0,2.0,0,1,1,1,0.0733333333333333
17.0,0.0,17.0,0.0,7.0,0.0,7.0,0.0,,,,left,1.8430579998530447,715.4212759998627,sd9,700.2709288997576,702.2706828000955,715.4212759998627,,False,3.0,['p'],False,0.4166666666666667,0.5,0.1666666666666666,1.0,1.0,0.9358932809493992,-0.1666666666666666,wait_cost,1.0,2.0,712.1209785998799,,sd9,1,2022-05-04_11h18.28.062,threat_forest,2021.2.3,60.10904981482437,False,16.0,0.4,0.4083333333333333,-1.1033333333333333,-1.035462962962963,1,1,0.0,0.6114261485414172,-0.1666666666666666,0.0,0.4166666666666667,0.5,0.1666666666666666,2.220446049250313e-16,0.08333333333333348,3.0833333333333335,3.0833333333333335,0.0,1.0,1.0,3.0,0,0,1,1,-0.84
0.0,0.0,0.0,0.0,0.0,0.0,0.0,0.0,17.934052899945527,21.447835700120777,,right,1.654841100331396,23.91010300023481,sd9,17.934052899945527,21.447835700120777,23.91010300023481,,True,5.0,['r'],False,0.4444444444444445,0.6666666666666666,0.3333333333333333,1.0,1.0,0.9656336071428248,0.0498748920388152,fight_cost,1.0,2.0,,,sd9,2,2022-05-04_11h34.13.869,threat_forest,2021.2.3,59.9590838888053,True,56.0,0.4444444444444444,0.4222222222222222,-1.1666666666666667,-1.135,1,1,1.0,0.5037049923352374,0.0498748920388152,0.4444444444444445,0.4444444444444445,0.6666666666666666,0.3333333333333333,0.0,0.0,5.0,5.0,0.0,1.0,-1.0,5.0,0,1,1,1,0.0498748920388152
0.0,0.0,0.0,0.0,1.0,0.0,1.0,0.0,,,,left,2.04805519990623,29.51732120011002,sd9,29.51732120011002,,25.581638100091368,27.58121300023049,True,2.0,['r'],True,0.2222222222222222,0.2222222222222222,0.0,0.0,1.0,0.4821593609696809,-0.0105928974241731,unsucc_cost,0.0,0.0,27.58121300023049,,sd9,2,2022-05-04_11h34.13.869,threat_forest,2021.2.3,59.9590838888053,True,56.0,0.4444444444444444,0.4222222222222222,-1.1666666666666667,-1.135,0,0,1.0,0.7168906598932475,-0.0105928974241731,0.2222222222222222,0.2222222222222222,0.2222222222222222,0.0,-0.3333333333333335,-0.3333333333333335,1.6666666666666665,1.6666666666666665,1.0,1.0,-1.0,2.0,0,1,0,0,-0.0105928974241731
1.0,0.0,1.0,0.0,0.0,0.0,0.0,0.0,35.175629700068384,38.68174430029467,,,,42.03226820006967,sd9,35.175629700068384,38.68174430029467,42.03226820006967,,True,5.0,['p'],False,0.2,0.2,0.0,0.0,2.0,0.4554859150035951,0.0163295597102297,wait_cost,1.0,4.0,,,sd9,2,2022-05-04_11h34.13.869,threat_forest,2021.2.3,59.9590838888053,,26.0,0.2111111111111111,0.3277777777777778,-1.3654320987654323,-1.2660493827160495,1,0,,,0.0163295597102297,0.2,0.2,0.2,0.0,-0.20000000000000018,-0.20000000000000018,4.8,4.8,0.0,2.0,-1.0,5.0,0,1,0,1,0.0163295597102297
1.0,0.0,1.0,0.0,1.0,0.0,1.0,0.0,,,,right,2.4692410002462566,49.60112040024251,sd9,49.60112040024251,,45.03174210013822,47.03157710004598,False,4.0,['p'],True,0.1728395061728395,0.2222222222222222,0.2222222222222222,2.0,2.0,0.8571721972794328,0.003531029138176,wait_cost,0.0,3.0,47.03157710004598,,sd9,2,2022-05-04_11h34.13.869,threat_forest,2021.2.3,59.9590838888053,False,26.0,0.2111111111111111,0.3277777777777778,-1.3654320987654323,-1.2660493827160495,0,0,0.0,0.9039108160677604,0.003531029138176,0.1728395061728395,0.1728395061728395,0.2222222222222222,0.2222222222222222,-0.7777777777777777,-0.5308641975308643,3.4691358024691357,3.4691358024691357,1.0,2.0,-1.0,4.0,0,1,0,0,0.003531029138176
1.0,0.0,1.0,0.0,2.0,0.0,2.0,0.0,,,,right,1.2427758001722395,57.30162690021098,sd9,57.30162690021098,,45.03174210013822,47.03157710004598,False,3.0,['p'],True,0.1728395061728395,0.2222222222222222,0.2222222222222222,2.0,2.0,0.8571721972794328,0.0463406441921558,wait_cost,0.0,2.0,54.09877450019121,,sd9,2,2022-05-04_11h34.13.869,threat_forest,2021.2.3,59.9590838888053,False,26.0,0.2111111111111111,0.3277777777777778,-1.3654320987654323,-1.2660493827160495,0,0,0.0,0.21734742632612342,0.0463406441921558,0.1728395061728395,0.1728395061728395,0.2222222222222222,0.2222222222222222,-0.7777777777777777,-0.5308641975308643,2.4691358024691357,2.4691358024691357,1.0,2.0,-1.0,3.0,0,1,0,0,0.0463406441921558
1.0,0.0,1.0,0.0,3.0,0.0,3.0,0.0,,,,left,1.3305561998859048,61.248805300332606,sd9,61.248805300332606,,45.03174210013822,47.03157710004598,True,2.0,['p'],True,0.1728395061728395,0.2222222222222222,0.2222222222222222,2.0,2.0,0.8571721972794328,9.448085488317216e-05,fight_cost,0.0,0.0,60.56503490032628,,sd9,2,2022-05-04_11h34.13.869,threat_forest,2021.2.3,59.9590838888053,True,26.0,0.2111111111111111,0.3277777777777778,-1.3654320987654323,-1.2660493827160495,0,0,1.0,0.2855970502172722,9.448085488317216e-05,0.1728395061728395,0.1728395061728395,0.2222222222222222,0.2222222222222222,-0.7777777777777777,-0.5308641975308643,1.4691358024691357,1.4691358024691357,1.0,2.0,-1.0,2.0,0,1,0,0,9.448085488317216e-05
2.0,0.0,2.0,0.0,0.0,0.0,0.0,0.0,66.70326540013775,70.21516930032521,,left,1.1012820997275412,71.9824220999144,sd9,71.9824220999144,,66.70326540013775,70.21516930032521,True,4.0,['r'],True,0.4444444444444445,0.6666666666666666,0.3333333333333333,1.0,1.0,0.9656336071428248,0.0517531804924914,succ_gain,0.0,5.0,,,sd9,2,2022-05-04_11h34.13.869,threat_forest,2021.2.3,59.9590838888053,True,57.0,0.4583333333333333,0.3347222222222222,-1.34375,-1.3545910493827162,1,1,1.0,0.09647504629070097,0.0517531804924914,0.4444444444444445,0.4444444444444445,0.6666666666666666,0.3333333333333333,0.0,0.0,4.0,4.0,1.0,1.0,-1.0,4.0,0,1,1,1,0.0517531804924914
2.0,0.0,2.0,0.0,1.0,0.0,1.0,0.0,,,,left,1.2936452999711037,76.6830342002213,sd9,73.11556440033019,75.11531920032576,76.6830342002213,,False,5.0,['r'],False,0.1875,0.25,0.25,2.0,1.0,0.895754137500101,-0.0185319872241142,wait_cost,1.0,4.0,75.11531920032576,,sd9,2,2022-05-04_11h34.13.869,threat_forest,2021.2.3,59.9590838888053,False,57.0,0.4583333333333333,0.3347222222222222,-1.34375,-1.3545910493827162,0,0,0.0,0.2574640471981634,-0.0185319872241142,0.1875,0.1875,0.25,0.25,-1.0,-0.6875,4.3125,4.3125,0.0,1.0,1.0,5.0,0,1,0,0,-0.0185319872241142
2.0,0.0,2.0,0.0,2.0,0.0,2.0,0.0,,,,left,0.9605870000086724,81.84926450019702,sd9,81.84926450019702,,77.99897229997441,79.99868560023606,True,4.0,['r'],True,0.4444444444444445,0.6666666666666666,0.3333333333333333,1.0,1.0,0.9656336071428248,0.0879884562962109,unsucc_cost,0.0,2.0,79.99868560023606,,sd9,2,2022-05-04_11h34.13.869,threat_forest,2021.2.3,59.9590838888053,True,57.0,0.4583333333333333,0.3347222222222222,-1.34375,-1.3545910493827162,1,1,1.0,-0.04021072304237096,0.0879884562962109,0.4444444444444445,0.4444444444444445,0.6666666666666666,0.3333333333333333,0.0,0.0,4.0,4.0,1.0,1.0,-1.0,4.0,0,1,1,1,0.0879884562962109
2.0,0.0,2.0,0.0,3.0,0.0,3.0,0.0,,,,left,1.368672899901867,85.61603040015325,sd9,85.61603040015325,,77.99897229997441,79.99868560023606,True,2.0,['r'],True,0.4444444444444445,0.6666666666666666,0.3333333333333333,1.0,1.0,0.9656336071428248,0.0690535068729994,succ_gain,0.0,3.0,84.83226920012385,,sd9,2,2022-05-04_11h34.13.869,threat_forest,2021.2.3,59.9590838888053,True,57.0,0.4583333333333333,0.3347222222222222,-1.34375,-1.3545910493827162,1,1,1.0,0.3138415841573266,0.0690535068729994,0.4444444444444445,0.4444444444444445,0.6666666666666666,0.3333333333333333,0.0,0.0,2.0,2.0,1.0,1.0,-1.0,2.0,0,1,1,1,0.0690535068729994
2.0,0.0,2.0,0.0,4.0,0.0,4.0,0.0,,,,left,1.0380065999925137,92.46589180035517,sd9,92.46589180035517,,77.99897229997441,79.99868560023606,True,3.0,['r'],True,0.4444444444444445,0.6666666666666666,0.3333333333333333,1.0,1.0,0.9656336071428248,0.0909328382201646,succ_gain,0.0,4.0,89.01562210032716,,sd9,2,2022-05-04_11h34.13.869,threat_forest,2021.2.3,59.9590838888053,True,57.0,0.4583333333333333,0.3347222222222222,-1.34375,-1.3545910493827162,1,1,1.0,0.03730214309777313,0.0909328382201646,0.4444444444444445,0.4444444444444445,0.6666666666666666,0.3333333333333333,0.0,0.0,3.0,3.0,1.0,1.0,1.0,3.0,0,1,1,1,0.0909328382201646
2.0,0.0,2.0,0.0,5.0,0.0,5.0,0.0,,,,left,0.8943416997790337,99.25323919998482,sd9,93.53249410027638,95.5322746001184,99.25323919998482,,False,4.0,['r'],False,0.1875,0.25,0.25,2.0,1.0,0.895754137500101,-0.5196397569444444,wait_cost,1.0,3.0,95.5322746001184,,sd9,2,2022-05-04_11h34.13.869,threat_forest,2021.2.3,59.9590838888053,False,57.0,0.4583333333333333,0.3347222222222222,-1.34375,-1.3545910493827162,0,0,0.0,-0.11166736231605005,-0.5196397569444444,0.0,0.1875,0.25,0.25,-1.0,-0.6875,3.3125,3.3125,0.0,1.0,1.0,4.0,0,0,0,0,-0.84
2.0,0.0,2.0,0.0,6.0,0.0,6.0,0.0,,,,left,0.8603062001056969,103.86615190003069,sd9,93.53249410027638,95.5322746001184,103.86615190003069,,False,3.0,['r'],False,0.1875,0.25,0.25,2.0,1.0,0.895754137500101,-0.634765625,wait_cost,1.0,2.0,102.16572420019656,,sd9,2,2022-05-04_11h34.13.869,threat_forest,2021.2.3,59.9590838888053,False,57.0,0.4583333333333333,0.3347222222222222,-1.34375,-1.3545910493827162,0,0,0.0,-0.15046690646961408,-0.634765625,0.0,0.1875,0.25,0.25,-1.0,-0.6875,2.3125,2.3125,0.0,1.0,-1.0,3.0,0,0,0,0,-0.84
2.0,0.0,2.0,0.0,7.0,0.0,7.0,0.0,,,,right,1.9983938997611403,107.8165690000169,sd9,107.8165690000169,,104.7495690002106,106.74912630021572,False,2.0,['r'],True,0.4444444444444445,0.6666666666666666,0.3333333333333333,1.0,1.0,0.9656336071428248,-0.5555555555555556,wait_cost,0.0,1.0,106.74912630021572,,sd9,2,2022-05-04_11h34.13.869,threat_forest,2021.2.3,59.9590838888053,False,57.0,0.4583333333333333,0.3347222222222222,-1.34375,-1.3545910493827162,1,1,0.0,0.6923438078230381,-0.5555555555555556,0.0,0.4444444444444445,0.6666666666666666,0.3333333333333333,0.0,0.0,2.0,2.0,1.0,1.0,-1.0,2.0,0,0,1,1,-0.84
3.0,0.0,3.0,0.0,0.0,0.0,0.0,0.0,112.37192710023372,115.88258440000936,,left,1.7649878999218345,117.8004004000686,sd9,117.8004004000686,,112.37192710023372,115.88258440000936,True,4.0,['r'],True,0.2,0.2,0.0,0.0,1.0,0.4554859150035951,0.0007341423130033,unsucc_cost,0.0,2.0,,,sd9,2,2022-05-04_11h34.13.869,threat_forest,2021.2.3,59.9590838888053,True,50.0,0.35,0.4041666666666667,-1.2625000000000002,-1.303125,0,0,1.0,0.5681438347933948,0.0007341423130033,0.2,0.2,0.2,0.0,-0.40000000000000013,-0.40000000000000013,3.5999999999999996,3.5999999999999996,1.0,1.0,-1.0,4.0,0,1,0,0,0.0007341423130033
3.0,0.0,3.0,0.0,1.0,0.0,1.0,0.0,,,,right,2.3547114999964838,124.33338000020012,sd9,124.33338000020012,,112.37192710023372,115.88258440000936,False,2.0,['r'],True,0.2,0.2,0.0,0.0,1.0,0.4554859150035951,-0.0051644691467286,wait_cost,0.0,1.0,121.58266500011086,,sd9,2,2022-05-04_11h34.13.869,threat_forest,2021.2.3,59.9590838888053,False,50.0,0.35,0.4041666666666667,-1.2625000000000002,-1.303125,0,0,0.0,0.8564182146546441,-0.0051644691467286,0.2,0.2,0.2,0.0,-0.40000000000000013,-0.40000000000000013,1.5999999999999999,1.5999999999999999,1.0,1.0,-1.0,2.0,0,1,0,0,-0.0051644691467286
3.0,0.0,3.0,0.0,2.0,0.0,2.0,0.0,,,,right,0.9598501999862492,130.71649780031294,sd9,126.71655960008502,128.71604190021753,130.71649780031294,,True,1.0,['r'],False,0.375,0.5,0.25,1.0,1.0,0.9850568223215076,0.0439410781860352,fight_cost,1.0,0.0,128.71604190021753,,sd9,2,2022-05-04_11h34.13.869,threat_forest,2021.2.3,59.9590838888053,True,50.0,0.35,0.4041666666666667,-1.2625000000000002,-1.303125,1,0,1.0,-0.040978048377015276,0.0439410781860352,1.0,0.375,0.5,0.25,-0.25,-0.125,0.875,1.0,0.0,1.0,-1.0,1.0,1,1,0,1,0.625
4.0,0.0,4.0,0.0,0.0,0.0,0.0,0.0,134.25730790011585,137.766232999973,,left,1.1917234999127686,140.0668868003413,sd9,140.0668868003413,,134.25730790011585,137.766232999973,True,4.0,['p'],True,0.4166666666666667,0.5,0.1666666666666666,1.0,2.0,0.9358932809493992,0.0524876732571487,unsucc_cost,0.0,2.0,,,sd9,2,2022-05-04_11h34.13.869,threat_forest,2021.2.3,59.9590838888053,True,22.0,0.41666666666666663,0.3833333333333333,-0.7129629629629629,-0.9877314814814815,1,1,1.0,0.17540057857511396,0.0524876732571487,0.4166666666666667,0.4166666666666667,0.5,0.1666666666666666,0.5000000000000002,0.5000000000000002,4.5,4.5,1.0,2.0,-1.0,4.0,0,1,1,1,0.0524876732571487
4.0,0.0,4.0,0.0,1.0,0.0,1.0,0.0,,,,right,1.5561311999335885,144.98489439999685,sd9,141.2831532000564,143.28297870000824,144.98489439999685,,True,2.0,['p'],False,0.2962962962962963,0.3333333333333333,0.1111111111111111,1.0,2.0,0.8325252476189534,-0.0142879766589272,unsucc_cost,1.0,0.0,143.28297870000824,,sd9,2,2022-05-04_11h34.13.869,threat_forest,2021.2.3,59.9590838888053,True,22.0,0.41666666666666663,0.3833333333333333,-0.7129629629629629,-0.9877314814814815,1,0,1.0,0.44220274092496203,-0.0142879766589272,0.2962962962962963,0.2962962962962963,0.3333333333333333,0.1111111111111111,-2.220446049250313e-16,0.07407407407407396,2.074074074074074,2.074074074074074,0.0,2.0,-1.0,2.0,0,1,0,1,-0.0142879766589272
5.0,0.0,5.0,0.0,0.0,0.0,0.0,0.0,149.72289390023798,153.23319900035858,,left,1.19275279995054,156.7214458999224,sd9,156.7214458999224,,149.72289390023798,153.23319900035858,True,4.0,['r'],True,0.27,0.3,0.1,1.0,2.0,0.7963326591781347,0.0116156252879662,unsucc_cost,0.0,2.0,,,sd9,2,2022-05-04_11h34.13.869,threat_forest,2021.2.3,59.9590838888053,True,1.0,0.4833333333333333,0.44999999999999996,-0.7877777777777778,-0.7503703703703704,0,0,1.0,0.17626391288610085,0.0116156252879662,0.27,0.27,0.3,0.1,-0.10000000000000009,-0.020000000000000018,3.98,3.98,1.0,2.0,-1.0,4.0,0,1,0,0,0.0116156252879662
5.0,0.0,5.0,0.0,1.0,0.0,1.0,0.0,,,,right,1.184415700379759,163.58346530003473,sd9,157.9335628002882,159.93324699997902,163.58346530003473,,True,2.0,['r'],False,0.4444444444444445,0.6666666666666666,0.3333333333333333,1.0,2.0,0.9656336071428248,0.0635968883060148,unsucc_cost,1.0,0.0,159.93324699997902,,sd9,2,2022-05-04_11h34.13.869,threat_forest,2021.2.3,59.9590838888053,True,1.0,0.4833333333333333,0.44999999999999996,-0.7877777777777778,-0.7503703703703704,1,0,1.0,0.1692495731349463,0.0635968883060148,0.4444444444444445,0.4444444444444445,0.6666666666666666,0.3333333333333333,0.6666666666666665,0.4444444444444444,2.4444444444444446,2.4444444444444446,0.0,2.0,-1.0,2.0,0,1,0,1,0.0635968883060148
6.0,0.0,6.0,0.0,0.0,0.0,0.0,0.0,170.3341572000645,173.83342269994318,,left,1.9213148998096583,174.4841109002009,sd9,170.3341572000645,173.83342269994318,174.4841109002009,,False,4.0,['p'],False,0.36,0.6,0.4,2.0,2.0,0.9801625908629508,-0.0020350304999999,wait_cost,1.0,3.0,,,sd9,2,2022-05-04_11h34.13.869,threat_forest,2021.2.3,59.9590838888053,False,67.0,0.55,0.5166666666666666,-0.4800000000000001,-0.633888888888889,0,0,0.0,0.6530097952921522,-0.0020350304999999,0.36,0.36,0.6,0.4,0.19999999999999973,0.039999999999999813,4.04,4.04,0.0,2.0,-1.0,4.0,0,1,0,0,-0.0020350304999999
6.0,0.0,6.0,0.0,1.0,0.0,1.0,0.0,,,,left,0.9986708997748792,179.5171138001606,sd9,170.3341572000645,173.83342269994318,179.5171138001606,,False,3.0,['p'],False,0.36,0.6,0.4,2.0,2.0,0.9801625908629508,0.02233521,wait_cost,1.0,2.0,178.43345070024952,,sd9,2,2022-05-04_11h34.13.869,threat_forest,2021.2.3,59.9590838888053,False,67.0,0.55,0.5166666666666666,-0.4800000000000001,-0.633888888888889,0,0,0.0,-0.0013299842622277564,0.02233521,0.36,0.36,0.6,0.4,0.19999999999999973,0.039999999999999813,3.04,3.04,0.0,2.0,-1.0,3.0,0,1,0,0,0.02233521
6.0,0.0,6.0,0.0,2.0,0.0,2.0,0.0,,,,left,0.716357700061053,183.5504642003216,sd9,183.5504642003216,,180.5339875002392,182.53363399999216,True,2.0,['p'],True,0.5,0.5,0.0,0.0,2.0,0.6309297535714574,0.076925,succ_gain,0.0,4.0,182.53363399999216,,sd9,2,2022-05-04_11h34.13.869,threat_forest,2021.2.3,59.9590838888053,True,67.0,0.55,0.5166666666666666,-0.4800000000000001,-0.633888888888889,1,0,1.0,-0.33357565567972197,0.076925,0.5,0.5,0.5,0.0,1.0,1.0,3.0,3.0,1.0,2.0,-1.0,2.0,0,1,0,1,0.076925
6.0,0.0,6.0,0.0,3.0,0.0,3.0,0.0,,,,left,1.0129174999892712,188.0177486999892,sd9,188.0177486999892,,180.5339875002392,182.53363399999216,True,4.0,['p'],True,0.5,0.5,0.0,0.0,2.0,0.6309297535714574,0.1425,succ_gain,0.0,6.0,186.2835802999325,,sd9,2,2022-05-04_11h34.13.869,threat_forest,2021.2.3,59.9590838888053,True,67.0,0.55,0.5166666666666666,-0.4800000000000001,-0.633888888888889,1,0,1.0,0.012834780675860996,0.1425,0.5,0.5,0.5,0.0,1.0,1.0,5.0,5.0,1.0,2.0,1.0,4.0,0,1,0,1,0.1425
6.0,0.0,6.0,0.0,4.0,0.0,4.0,0.0,,,,left,1.3602175996638834,192.3843057001941,sd9,192.3843057001941,,180.5339875002392,182.53363399999216,True,6.0,['p'],True,0.5,0.5,0.0,0.0,2.0,0.6309297535714574,0.0,succ_gain,0.0,6.0,191.05040629999712,,sd9,2,2022-05-04_11h34.13.869,threat_forest,2021.2.3,59.9590838888053,True,67.0,0.55,0.5166666666666666,-0.4800000000000001,-0.633888888888889,1,0,1.0,0.30764468670222084,0.0,0.0,0.5,0.5,0.0,1.0,1.0,7.0,7.0,1.0,2.0,1.0,6.0,0,0,0,1,-0.84
6.0,0.0,6.0,0.0,5.0,0.0,5.0,0.0,,,,left,1.1312130000442266,197.0677012000233,sd9,197.0677012000233,,180.5339875002392,182.53363399999216,True,6.0,['p'],True,0.5,0.5,0.0,0.0,2.0,0.6309297535714574,0.0,succ_gain,0.0,6.0,195.7838177001104,,sd9,2,2022-05-04_11h34.13.869,threat_forest,2021.2.3,59.9590838888053,True,67.0,0.55,0.5166666666666666,-0.4800000000000001,-0.633888888888889,1,0,1.0,0.12329050835388349,0.0,0.0,0.5,0.5,0.0,1.0,1.0,7.0,7.0,1.0,2.0,-1.0,6.0,0,0,0,1,-0.84
6.0,0.0,6.0,0.0,6.0,0.0,6.0,0.0,,,,left,0.8149998998269439,202.26736100018024,sd9,202.26736100018024,,180.5339875002392,182.53363399999216,True,6.0,['p'],True,0.5,0.5,0.0,0.0,2.0,0.6309297535714574,0.0,unsucc_cost,0.0,4.0,200.2173509001732,,sd9,2,2022-05-04_11h34.13.869,threat_forest,2021.2.3,59.9590838888053,True,67.0,0.55,0.5166666666666666,-0.4800000000000001,-0.633888888888889,1,0,1.0,-0.20456728865300722,0.0,0.0,0.5,0.5,0.0,1.0,1.0,7.0,7.0,1.0,2.0,-1.0,6.0,0,0,0,1,-0.84
6.0,0.0,6.0,0.0,7.0,0.0,7.0,0.0,,,,left,0.879868000280112,207.5347706000321,sd9,207.5347706000321,,180.5339875002392,182.53363399999216,True,4.0,['p'],True,0.5,0.5,0.0,0.0,2.0,0.6309297535714574,0.0,succ_gain,0.0,6.0,205.10053210007027,,sd9,2,2022-05-04_11h34.13.869,threat_forest,2021.2.3,59.9590838888053,True,67.0,0.55,0.5166666666666666,-0.4800000000000001,-0.633888888888889,1,0,1.0,-0.12798338244265314,0.0,0.0,0.5,0.5,0.0,1.0,1.0,5.0,5.0,1.0,2.0,-1.0,4.0,0,0,0,1,-0.84
7.0,0.0,7.0,0.0,0.0,0.0,0.0,0.0,211.74436930008235,215.2479596999474,,left,1.9206540999002757,217.9866144000553,sd9,217.9866144000553,,211.74436930008235,215.2479596999474,True,5.0,['r'],True,0.24,0.3,0.2,2.0,2.0,0.9003120349047065,-0.0006443703968158,unsucc_cost,0.0,3.0,,,sd9,2,2022-05-04_11h34.13.869,threat_forest,2021.2.3,59.9590838888053,True,55.0,0.2928571428571428,0.42142857142857143,-1.0485714285714285,-0.7642857142857142,0,0,1.0,0.6526658050538403,-0.0006443703968158,0.24,0.24,0.3,0.2,-0.3999999999999999,-0.24,4.76,4.76,1.0,2.0,1.0,5.0,0,1,0,0,-0.0006443703968158
7.0,0.0,7.0,0.0,1.0,0.0,1.0,0.0,,,,right,0.9011781997978688,223.0517067001201,sd9,219.93433680012825,221.93411569995808,223.0517067001201,,True,3.0,['r'],False,0.2857142857142857,0.2857142857142857,0.0,0.0,2.0,0.5445684476282007,0.0813189773311461,succ_gain,1.0,5.0,221.93411569995808,,sd9,2,2022-05-04_11h34.13.869,threat_forest,2021.2.3,59.9590838888053,True,55.0,0.2928571428571428,0.42142857142857143,-1.0485714285714285,-0.7642857142857142,0,0,1.0,-0.10405226090985656,0.0813189773311461,0.2857142857142857,0.2857142857142857,0.2857142857142857,0.0,0.1428571428571428,0.1428571428571428,3.142857142857143,3.142857142857143,0.0,2.0,-1.0,3.0,0,1,0,0,0.0813189773311461
7.0,0.0,7.0,0.0,2.0,0.0,2.0,0.0,,,,right,1.122366199735552,228.6019216999412,sd9,219.93433680012825,221.93411569995808,228.6019216999412,,True,5.0,['r'],False,0.2857142857142857,0.2857142857142857,0.0,0.0,2.0,0.5445684476282007,0.0689652861783781,unsucc_cost,1.0,3.0,225.98418910009784,,sd9,2,2022-05-04_11h34.13.869,threat_forest,2021.2.3,59.9590838888053,True,55.0,0.2928571428571428,0.42142857142857143,-1.0485714285714285,-0.7642857142857142,0,0,1.0,0.11543913507572086,0.0689652861783781,0.2857142857142857,0.2857142857142857,0.2857142857142857,0.0,0.1428571428571428,0.1428571428571428,5.142857142857142,5.142857142857142,0.0,2.0,1.0,5.0,0,1,0,0,0.0689652861783781
7.0,0.0,7.0,0.0,3.0,0.0,3.0,0.0,,,,right,1.4069886999204757,233.86934880027547,sd9,233.86934880027547,,229.75111730024216,231.75100560020653,False,3.0,['r'],True,0.24,0.3,0.2,2.0,2.0,0.9003120349047065,0.0290595526530613,wait_cost,0.0,2.0,231.75100560020653,,sd9,2,2022-05-04_11h34.13.869,threat_forest,2021.2.3,59.9590838888053,False,55.0,0.2928571428571428,0.42142857142857143,-1.0485714285714285,-0.7642857142857142,0,0,0.0,0.3414517467712699,0.0290595526530613,0.24,0.24,0.3,0.2,-0.3999999999999999,-0.24,2.76,2.76,1.0,2.0,-1.0,3.0,0,1,0,0,0.0290595526530613
7.0,0.0,7.0,0.0,4.0,0.0,4.0,0.0,,,,left,2.0780822997912765,240.83509860001504,sd9,240.83509860001504,,229.75111730024216,231.75100560020653,True,2.0,['r'],True,0.24,0.3,0.2,2.0,2.0,0.9003120349047065,-0.0228571428571429,unsucc_cost,0.0,0.0,237.30102130025625,,sd9,2,2022-05-04_11h34.13.869,threat_forest,2021.2.3,59.9590838888053,True,55.0,0.2928571428571428,0.42142857142857143,-1.0485714285714285,-0.7642857142857142,0,0,1.0,0.7314454971821204,-0.0228571428571429,0.24,0.24,0.3,0.2,-0.3999999999999999,-0.24,1.76,1.76,1.0,2.0,-1.0,2.0,0,1,0,0,-0.0228571428571429
8.0,0.0,8.0,0.0,0.0,0.0,0.0,0.0,247.67469489993528,251.18465190008283,,left,1.3865196998231113,254.25635970011356,sd9,247.67469489993528,251.18465190008283,254.25635970011356,,False,4.0,['p'],False,0.1975308641975308,0.2222222222222222,0.1111111111111111,1.0,2.0,0.7461067557824965,-0.0032005207389234,wait_cost,1.0,3.0,,,sd9,2,2022-05-04_11h34.13.869,threat_forest,2021.2.3,59.9590838888053,False,12.0,0.3111111111111111,0.30198412698412697,-1.1204938271604938,-1.0845326278659613,0,0,0.0,0.3267967942836935,-0.0032005207389234,0.1975308641975308,0.1975308641975308,0.2222222222222222,0.1111111111111111,-0.4444444444444444,-0.32098765432098775,3.6790123456790123,3.6790123456790123,0.0,2.0,-1.0,4.0,0,1,0,0,-0.0032005207389234
8.0,0.0,8.0,0.0,1.0,0.0,1.0,0.0,,,,left,1.73577870009467,258.835354400333,sd9,258.835354400333,,255.6683338000439,257.6680105999112,True,3.0,['p'],True,0.32,0.4,0.2,1.0,2.0,0.9455672104350704,0.0685767383231606,succ_gain,0.0,5.0,257.6680105999112,,sd9,2,2022-05-04_11h34.13.869,threat_forest,2021.2.3,59.9590838888053,True,12.0,0.3111111111111111,0.30198412698412697,-1.1204938271604938,-1.0845326278659613,1,1,1.0,0.5514561312082954,0.0685767383231606,0.32,0.32,0.4,0.2,0.0,0.07999999999999996,3.08,3.08,1.0,2.0,-1.0,3.0,0,1,1,1,0.0685767383231606
8.0,0.0,8.0,0.0,2.0,0.0,2.0,0.0,,,,left,1.3554683001711965,265.4358785999939,sd9,260.6018525999971,262.6014099000022,265.4358785999939,,False,5.0,['p'],False,0.1975308641975308,0.2222222222222222,0.1111111111111111,1.0,2.0,0.7461067557824965,-0.0052022231153132,wait_cost,1.0,4.0,262.6014099000022,,sd9,2,2022-05-04_11h34.13.869,threat_forest,2021.2.3,59.9590838888053,False,12.0,0.3111111111111111,0.30198412698412697,-1.1204938271604938,-1.0845326278659613,0,0,0.0,0.3041470036050696,-0.0052022231153132,0.1975308641975308,0.1975308641975308,0.2222222222222222,0.1111111111111111,-0.4444444444444444,-0.32098765432098775,4.679012345679013,4.679012345679013,0.0,2.0,1.0,5.0,0,1,0,0,-0.0052022231153132
8.0,0.0,8.0,0.0,3.0,0.0,3.0,0.0,,,,left,1.4975650999695065,269.51881420006976,sd9,260.6018525999971,262.6014099000022,269.51881420006976,,False,4.0,['p'],False,0.1975308641975308,0.2222222222222222,0.1111111111111111,1.0,2.0,0.7461067557824965,-0.0009236152891645,wait_cost,1.0,3.0,268.8182430001907,,sd9,2,2022-05-04_11h34.13.869,threat_forest,2021.2.3,59.9590838888053,False,12.0,0.3111111111111111,0.30198412698412697,-1.1204938271604938,-1.0845326278659613,0,0,0.0,0.4038405224962957,-0.0009236152891645,0.1975308641975308,0.1975308641975308,0.2222222222222222,0.1111111111111111,-0.4444444444444444,-0.32098765432098775,3.6790123456790123,3.6790123456790123,0.0,2.0,-1.0,4.0,0,1,0,0,-0.0009236152891645
8.0,0.0,8.0,0.0,4.0,0.0,4.0,0.0,,,,left,1.0910110999830067,275.3184432000853,sd9,275.3184432000853,,271.03548090020195,273.03504260024056,True,3.0,['p'],True,0.32,0.4,0.2,1.0,2.0,0.9455672104350704,0.1548246913580248,succ_gain,0.0,5.0,273.03504260024056,,sd9,2,2022-05-04_11h34.13.869,threat_forest,2021.2.3,59.9590838888053,True,12.0,0.3111111111111111,0.30198412698412697,-1.1204938271604938,-1.0845326278659613,1,1,1.0,0.0871048809357557,0.1548246913580248,0.32,0.32,0.4,0.2,0.0,0.07999999999999996,3.08,3.08,1.0,2.0,-1.0,3.0,0,1,1,1,0.1548246913580248
8.0,0.0,8.0,0.0,5.0,0.0,5.0,0.0,,,,left,1.5695868995971978,280.4357250002213,sd9,280.4357250002213,,271.03548090020195,273.03504260024056,True,5.0,['p'],True,0.32,0.4,0.2,1.0,2.0,0.9455672104350704,-0.1421234567901234,unsucc_cost,0.0,3.0,278.43503569997847,,sd9,2,2022-05-04_11h34.13.869,threat_forest,2021.2.3,59.9590838888053,True,12.0,0.3111111111111111,0.30198412698412697,-1.1204938271604938,-1.0845326278659613,1,1,1.0,0.4508124634620702,-0.1421234567901234,0.0,0.32,0.4,0.2,0.0,0.07999999999999996,5.08,5.08,1.0,2.0,1.0,5.0,0,0,1,1,-0.84
8.0,0.0,8.0,0.0,6.0,0.0,6.0,0.0,,,,right,1.5880185002461076,286.9020096003078,sd9,286.9020096003078,,271.03548090020195,273.03504260024056,False,3.0,['p'],True,0.32,0.4,0.2,1.0,2.0,0.9455672104350704,-0.5557925925925925,wait_cost,0.0,2.0,284.0351403001696,,sd9,2,2022-05-04_11h34.13.869,threat_forest,2021.2.3,59.9590838888053,False,12.0,0.3111111111111111,0.30198412698412697,-1.1204938271604938,-1.0845326278659613,1,1,0.0,0.4624870127861179,-0.5557925925925925,0.0,0.32,0.4,0.2,0.0,0.07999999999999996,3.08,3.08,1.0,2.0,-1.0,3.0,0,0,1,1,-0.84
8.0,0.0,8.0,0.0,7.0,0.0,7.0,0.0,,,,right,0.7014830000698566,294.06876310007647,sd9,294.06876310007647,,271.03548090020195,273.03504260024056,False,2.0,['p'],True,0.32,0.4,0.2,1.0,2.0,0.9455672104350704,-0.6799999999999999,wait_cost,0.0,1.0,290.5185405001976,,sd9,2,2022-05-04_11h34.13.869,threat_forest,2021.2.3,59.9590838888053,False,12.0,0.3111111111111111,0.30198412698412697,-1.1204938271604938,-1.0845326278659613,1,1,0.0,-0.3545586134184271,-0.6799999999999999,0.0,0.32,0.4,0.2,0.0,0.07999999999999996,2.08,2.08,1.0,2.0,-1.0,2.0,0,0,1,1,-0.84
9.0,0.0,9.0,0.0,0.0,0.0,0.0,0.0,298.0760282003321,301.5853396002203,,right,1.1069024000316858,305.2367389001884,sd9,305.2367389001884,,298.0760282003321,301.5853396002203,False,5.0,['r'],True,0.1975308641975308,0.2222222222222222,0.1111111111111111,1.0,1.0,0.7461067557824965,-0.0071988747894753,wait_cost,0.0,4.0,,,sd9,2,2022-05-04_11h34.13.869,threat_forest,2021.2.3,59.9590838888053,False,48.0,0.3111111111111111,0.3111111111111111,-1.3792592592592592,-1.2498765432098766,0,0,0.0,0.10156548365326082,-0.0071988747894753,0.1975308641975308,0.1975308641975308,0.2222222222222222,0.1111111111111111,-0.6666666666666667,-0.5185185185185184,4.481481481481482,4.481481481481482,1.0,1.0,-1.0,5.0,0,1,0,0,-0.0071988747894753
9.0,0.0,9.0,0.0,1.0,0.0,1.0,0.0,,,,right,1.082446400076151,310.2692118003033,sd9,306.36899850005284,308.3688364000991,310.2692118003033,,True,4.0,['r'],False,0.32,0.4,0.2,1.0,1.0,0.9455672104350704,0.0393429374403599,unsucc_cost,1.0,2.0,308.3688364000991,,sd9,2,2022-05-04_11h34.13.869,threat_forest,2021.2.3,59.9590838888053,True,48.0,0.3111111111111111,0.3111111111111111,-1.3792592592592592,-1.2498765432098766,1,1,1.0,0.0792236647274026,0.0393429374403599,0.32,0.32,0.4,0.2,-0.3999999999999999,-0.24,3.76,3.76,0.0,1.0,-1.0,4.0,0,1,1,1,0.0393429374403599
9.0,0.0,9.0,0.0,2.0,0.0,2.0,0.0,,,,right,1.7181369001045823,316.7859038999304,sd9,316.7859038999304,,311.36931260023266,313.3688031001948,False,2.0,['r'],True,0.1975308641975308,0.2222222222222222,0.1111111111111111,1.0,1.0,0.7461067557824965,0.0037858795279334,wait_cost,0.0,1.0,313.3688031001948,,sd9,2,2022-05-04_11h34.13.869,threat_forest,2021.2.3,59.9590838888053,False,48.0,0.3111111111111111,0.3111111111111111,-1.3792592592592592,-1.2498765432098766,0,0,0.0,0.5412405061292225,0.0037858795279334,0.1975308641975308,0.1975308641975308,0.2222222222222222,0.1111111111111111,-0.6666666666666667,-0.5185185185185184,1.4814814814814816,1.4814814814814816,1.0,1.0,-1.0,2.0,0,1,0,0,0.0037858795279334
9.0,0.0,9.0,0.0,3.0,0.0,3.0,0.0,,,,right,1.0341072999872267,323.9196729003452,sd9,318.5360352001153,320.5356423002668,323.9196729003452,,True,1.0,['r'],False,0.32,0.4,0.2,1.0,1.0,0.9455672104350704,0.0339764324116506,unsucc_cost,1.0,0.0,320.5356423002668,,sd9,2,2022-05-04_11h34.13.869,threat_forest,2021.2.3,59.9590838888053,True,48.0,0.3111111111111111,0.3111111111111111,-1.3792592592592592,-1.2498765432098766,1,1,1.0,0.033538542450123505,0.0339764324116506,1.0,0.32,0.4,0.2,-0.3999999999999999,-0.24,0.76,1.0,0.0,1.0,-1.0,1.0,1,1,1,1,0.625
10.0,0.0,10.0,0.0,0.0,0.0,0.0,0.0,329.2108595999889,332.71911430032924,,left,0.8869741000235081,334.63661330007017,sd9,334.63661330007017,,329.2108595999889,332.71911430032924,True,5.0,['r'],True,0.2777777777777778,0.3333333333333333,0.1666666666666666,1.0,2.0,0.8929352898779304,0.0153029375123799,succ_gain,0.0,6.0,,,sd9,2,2022-05-04_11h34.13.869,threat_forest,2021.2.3,59.9590838888053,True,54.0,0.2777777777777778,0.29444444444444445,-1.1882716049382718,-1.2837654320987655,1,0,1.0,-0.11993949662141073,0.0153029375123799,0.2777777777777778,0.2777777777777778,0.3333333333333333,0.1666666666666666,-0.16666666666666652,-0.05555555555555558,4.944444444444445,4.944444444444445,1.0,2.0,-1.0,5.0,0,1,0,1,0.0153029375123799
10.0,0.0,10.0,0.0,1.0,0.0,1.0,0.0,,,,left,2.0089773000217974,338.9866467001848,sd9,338.9866467001848,,329.2108595999889,332.71911430032924,True,6.0,['r'],True,0.2777777777777778,0.3333333333333333,0.1666666666666666,1.0,2.0,0.8929352898779304,-0.0780652258969334,succ_gain,0.0,6.0,337.552507000044,,sd9,2,2022-05-04_11h34.13.869,threat_forest,2021.2.3,59.9590838888053,True,54.0,0.2777777777777778,0.29444444444444445,-1.1882716049382718,-1.2837654320987655,1,0,1.0,0.6976257866260036,-0.0780652258969334,0.2777777777777778,0.2777777777777778,0.3333333333333333,0.1666666666666666,-0.16666666666666652,-0.05555555555555558,5.944444444444445,5.944444444444445,1.0,2.0,1.0,6.0,0,1,0,1,-0.0780652258969334
10.0,0.0,10.0,0.0,2.0,0.0,2.0,0.0,,,,left,1.4593401001766324,344.53954049991444,sd9,341.0194930001162,343.019268900156,344.53954049991444,,False,6.0,['r'],False,0.1975308641975308,0.2222222222222222,0.1111111111111111,1.0,2.0,0.7461067557824965,0.0004899320209287,wait_cost,1.0,5.0,343.019268900156,,sd9,2,2022-05-04_11h34.13.869,threat_forest,2021.2.3,59.9590838888053,False,54.0,0.2777777777777778,0.29444444444444445,-1.1882716049382718,-1.2837654320987655,0,0,0.0,0.37798434736331327,0.0004899320209287,0.1975308641975308,0.1975308641975308,0.2222222222222222,0.1111111111111111,-0.4444444444444444,-0.32098765432098775,5.679012345679013,5.679012345679013,0.0,2.0,-1.0,6.0,0,1,0,0,0.0004899320209287
10.0,0.0,10.0,0.0,3.0,0.0,3.0,0.0,,,,left,0.8620082000270486,349.5363725000061,sd9,341.0194930001162,343.019268900156,349.5363725000061,,False,5.0,['r'],False,0.1975308641975308,0.2222222222222222,0.1111111111111111,1.0,2.0,0.7461067557824965,0.0615700990326302,wait_cost,1.0,4.0,348.01964630000293,,sd9,2,2022-05-04_11h34.13.869,threat_forest,2021.2.3,59.9590838888053,False,54.0,0.2777777777777778,0.29444444444444445,-1.1882716049382718,-1.2837654320987655,0,0,0.0,-0.14849049557129052,0.0615700990326302,0.1975308641975308,0.1975308641975308,0.2222222222222222,0.1111111111111111,-0.4444444444444444,-0.32098765432098775,4.679012345679013,4.679012345679013,0.0,2.0,-1.0,5.0,0,1,0,0,0.0615700990326302
10.0,0.0,10.0,0.0,4.0,0.0,4.0,0.0,,,,left,1.0952232000418007,354.8699096003548,sd9,341.0194930001162,343.019268900156,354.8699096003548,,False,4.0,['r'],False,0.1975308641975308,0.2222222222222222,0.1111111111111111,1.0,2.0,0.7461067557824965,0.0162894375857338,wait_cost,1.0,3.0,352.4193899002857,,sd9,2,2022-05-04_11h34.13.869,threat_forest,2021.2.3,59.9590838888053,False,54.0,0.2777777777777778,0.29444444444444445,-1.1882716049382718,-1.2837654320987655,0,0,0.0,0.09095817815141227,0.0162894375857338,0.1975308641975308,0.1975308641975308,0.2222222222222222,0.1111111111111111,-0.4444444444444444,-0.32098765432098775,3.6790123456790123,3.6790123456790123,0.0,2.0,-1.0,4.0,0,1,0,0,0.0162894375857338
10.0,0.0,10.0,0.0,5.0,0.0,5.0,0.0,,,,left,1.2625211998820305,358.50364740006626,sd9,341.0194930001162,343.019268900156,358.50364740006626,,False,3.0,['r'],False,0.1975308641975308,0.2222222222222222,0.1111111111111111,1.0,2.0,0.7461067557824965,0.1041190367322055,wait_cost,1.0,2.0,357.986168500036,,sd9,2,2022-05-04_11h34.13.869,threat_forest,2021.2.3,59.9590838888053,False,54.0,0.2777777777777778,0.29444444444444445,-1.1882716049382718,-1.2837654320987655,0,0,0.0,0.23311067401216073,0.1041190367322055,0.1975308641975308,0.1975308641975308,0.2222222222222222,0.1111111111111111,-0.4444444444444444,-0.32098765432098775,2.6790123456790123,2.6790123456790123,0.0,2.0,-1.0,3.0,0,1,0,0,0.1041190367322055
10.0,0.0,10.0,0.0,6.0,0.0,6.0,0.0,,,,left,1.26566579984501,362.7703756000847,sd9,341.0194930001162,343.019268900156,362.7703756000847,,False,2.0,['r'],False,0.1975308641975308,0.2222222222222222,0.1111111111111111,1.0,2.0,0.7461067557824965,-0.0401234567901234,wait_cost,1.0,1.0,361.7862574001774,,sd9,2,2022-05-04_11h34.13.869,threat_forest,2021.2.3,59.9590838888053,False,54.0,0.2777777777777778,0.29444444444444445,-1.1882716049382718,-1.2837654320987655,0,0,0.0,0.2355983077077446,-0.0401234567901234,0.1975308641975308,0.1975308641975308,0.2222222222222222,0.1111111111111111,-0.4444444444444444,-0.32098765432098775,1.6790123456790123,1.6790123456790123,0.0,2.0,-1.0,2.0,0,1,0,0,-0.0401234567901234
10.0,0.0,10.0,0.0,7.0,0.0,7.0,0.0,,,,right,0.8096056999638677,368.7034868001938,sd9,341.0194930001162,343.019268900156,368.7034868001938,,True,1.0,['r'],False,0.1975308641975308,0.2222222222222222,0.1111111111111111,1.0,2.0,0.7461067557824965,0.1975308641975308,unsucc_cost,1.0,0.0,366.0530242002569,,sd9,2,2022-05-04_11h34.13.869,threat_forest,2021.2.3,59.9590838888053,True,54.0,0.2777777777777778,0.29444444444444445,-1.1882716049382718,-1.2837654320987655,0,0,1.0,-0.21120794000451582,0.1975308641975308,1.0,0.1975308641975308,0.2222222222222222,0.1111111111111111,-0.4444444444444444,-0.32098765432098775,0.6790123456790123,1.0,0.0,2.0,-1.0,1.0,1,1,0,0,0.625
11.0,0.0,11.0,0.0,0.0,0.0,0.0,0.0,373.2128877001815,376.70893459999934,,left,1.387843099888414,378.5704673998989,sd9,378.5704673998989,,373.2128877001815,376.70893459999934,True,4.0,['r'],True,0.2222222222222222,0.3333333333333333,0.3333333333333333,2.0,2.0,0.9656336071428248,0.0156420001646662,succ_gain,0.0,6.0,,,sd9,2,2022-05-04_11h34.13.869,threat_forest,2021.2.3,59.9590838888053,True,63.0,0.26666666666666666,0.27222222222222225,-1.5022222222222226,-1.3452469135802472,0,0,1.0,0.32775081526884753,0.0156420001646662,0.2222222222222222,0.2222222222222222,0.3333333333333333,0.3333333333333333,-0.666666666666667,-0.44444444444444464,3.5555555555555554,3.5555555555555554,1.0,2.0,-1.0,4.0,0,1,0,0,0.0156420001646662
11.0,0.0,11.0,0.0,1.0,0.0,1.0,0.0,,,,right,1.6282950001768768,385.3038886003196,sd9,385.3038886003196,,373.2128877001815,376.70893459999934,False,6.0,['r'],True,0.2222222222222222,0.3333333333333333,0.3333333333333333,2.0,2.0,0.9656336071428248,-0.091241777442147,wait_cost,0.0,5.0,381.9865061002784,,sd9,2,2022-05-04_11h34.13.869,threat_forest,2021.2.3,59.9590838888053,False,63.0,0.26666666666666666,0.27222222222222225,-1.5022222222222226,-1.3452469135802472,0,0,0.0,0.4875334552047301,-0.091241777442147,0.2222222222222222,0.2222222222222222,0.3333333333333333,0.3333333333333333,-0.666666666666667,-0.44444444444444464,5.555555555555555,5.555555555555555,1.0,2.0,1.0,6.0,0,1,0,0,-0.091241777442147
11.0,0.0,11.0,0.0,2.0,0.0,2.0,0.0,,,,left,1.336698199622333,390.4537750002928,sd9,390.4537750002928,,373.2128877001815,376.70893459999934,True,5.0,['r'],True,0.2222222222222222,0.3333333333333333,0.3333333333333333,2.0,2.0,0.9656336071428248,0.0274626777896324,unsucc_cost,0.0,3.0,388.9533171001822,,sd9,2,2022-05-04_11h34.13.869,threat_forest,2021.2.3,59.9590838888053,True,63.0,0.26666666666666666,0.27222222222222225,-1.5022222222222226,-1.3452469135802472,0,0,1.0,0.29020254311201105,0.0274626777896324,0.2222222222222222,0.2222222222222222,0.3333333333333333,0.3333333333333333,-0.666666666666667,-0.44444444444444464,4.555555555555555,4.555555555555555,1.0,2.0,-1.0,5.0,0,1,0,0,0.0274626777896324
11.0,0.0,11.0,0.0,3.0,0.0,3.0,0.0,,,,left,1.7303860997781155,395.6369877001271,sd9,395.6369877001271,,373.2128877001815,376.70893459999934,True,3.0,['r'],True,0.2222222222222222,0.3333333333333333,0.3333333333333333,2.0,2.0,0.9656336071428248,0.0405899051973784,unsucc_cost,0.0,1.0,393.82008090009913,,sd9,2,2022-05-04_11h34.13.869,threat_forest,2021.2.3,59.9590838888053,True,63.0,0.26666666666666666,0.27222222222222225,-1.5022222222222226,-1.3452469135802472,0,0,1.0,0.5483445626714399,0.0405899051973784,0.2222222222222222,0.2222222222222222,0.3333333333333333,0.3333333333333333,-0.666666666666667,-0.44444444444444464,2.5555555555555554,2.5555555555555554,1.0,2.0,-1.0,3.0,0,1,0,0,0.0405899051973784
11.0,0.0,11.0,0.0,4.0,0.0,4.0,0.0,,,,right,0.8219727003015578,402.3228561002761,sd9,397.3869409002364,399.3868018002249,402.3228561002761,,True,1.0,['r'],False,0.16,0.2,0.2,2.0,2.0,0.8198746470064713,0.0471577283950616,unsucc_cost,1.0,0.0,399.3868018002249,,sd9,2,2022-05-04_11h34.13.869,threat_forest,2021.2.3,59.9590838888053,True,63.0,0.26666666666666666,0.27222222222222225,-1.5022222222222226,-1.3452469135802472,0,0,1.0,-0.19604809578943846,0.0471577283950616,1.0,0.16,0.2,0.2,-0.8000000000000003,-0.5600000000000003,0.4399999999999997,1.0,0.0,2.0,-1.0,1.0,1,1,0,0,0.625
12.0,0.0,12.0,0.0,0.0,0.0,0.0,0.0,406.6820976999588,410.1744186999276,,right,0.7167160999961197,413.22132160002366,sd9,406.6820976999588,410.1744186999276,413.22132160002366,,True,5.0,['p'],False,0.625,0.625,0.0,0.0,2.0,0.6021808102656677,0.0512514556375116,succ_gain,1.0,6.0,,,sd9,2,2022-05-04_11h34.13.869,threat_forest,2021.2.3,59.9590838888053,True,60.0,0.6458333333333333,0.45624999999999993,0.17592592592592587,-0.6631481481481484,1,1,1.0,-0.3330754721685524,0.0512514556375116,0.625,0.625,0.625,0.0,1.5,1.5,6.5,6.5,0.0,2.0,-1.0,5.0,0,1,1,1,0.0512514556375116
12.0,0.0,12.0,0.0,1.0,0.0,1.0,0.0,,,,left,1.2345332000404596,416.9734411002137,sd9,416.9734411002137,,413.9706049002707,415.9703767001629,True,6.0,['p'],True,0.5185185185185185,0.6666666666666666,0.2222222222222222,2.0,2.0,0.9327883776363328,-0.0383052857519836,unsucc_cost,0.0,4.0,415.9703767001629,,sd9,2,2022-05-04_11h34.13.869,threat_forest,2021.2.3,59.9590838888053,True,60.0,0.6458333333333333,0.45624999999999993,0.17592592592592587,-0.6631481481481484,1,1,1.0,0.2106929229533886,-0.0383052857519836,0.5185185185185185,0.5185185185185185,0.6666666666666666,0.2222222222222222,0.9999999999999999,0.8518518518518517,6.851851851851852,6.851851851851852,1.0,2.0,1.0,6.0,0,1,1,1,-0.0383052857519836
12.0,0.0,12.0,0.0,2.0,0.0,2.0,0.0,,,,right,0.6003307998180389,421.8376307999715,sd9,418.23739950032905,420.2370744002983,421.8376307999715,,True,4.0,['p'],False,0.625,0.625,0.0,0.0,2.0,0.6021808102656677,0.0941104545914047,succ_gain,1.0,6.0,420.2370744002983,,sd9,2,2022-05-04_11h34.13.869,threat_forest,2021.2.3,59.9590838888053,True,60.0,0.6458333333333333,0.45624999999999993,0.17592592592592587,-0.6631481481481484,1,1,1.0,-0.5102744426641413,0.0941104545914047,0.625,0.625,0.625,0.0,1.5,1.5,5.5,5.5,0.0,2.0,-1.0,4.0,0,1,1,1,0.0941104545914047
12.0,0.0,12.0,0.0,3.0,0.0,3.0,0.0,,,,right,1.1700049000792203,428.15663730027154,sd9,428.15663730027154,,422.4727564002387,424.48716580029577,False,6.0,['p'],True,0.5185185185185185,0.6666666666666666,0.2222222222222222,2.0,2.0,0.9327883776363328,-0.1002277703157547,wait_cost,0.0,5.0,424.48716580029577,,sd9,2,2022-05-04_11h34.13.869,threat_forest,2021.2.3,59.9590838888053,False,60.0,0.6458333333333333,0.45624999999999993,0.17592592592592587,-0.6631481481481484,1,1,0.0,0.15700793690279238,-0.1002277703157547,0.0,0.5185185185185185,0.6666666666666666,0.2222222222222222,0.9999999999999999,0.8518518518518517,6.851851851851852,6.851851851851852,1.0,2.0,1.0,6.0,0,0,1,1,-0.84
12.0,0.0,12.0,0.0,4.0,0.0,4.0,0.0,,,,right,1.0993877002038062,432.3376406999305,sd9,429.3544660001062,431.3539255000651,432.3376406999305,,True,5.0,['p'],False,0.625,0.625,0.0,0.0,2.0,0.6021808102656677,-0.0925946019804526,unsucc_cost,1.0,3.0,431.3539255000651,,sd9,2,2022-05-04_11h34.13.869,threat_forest,2021.2.3,59.9590838888053,True,60.0,0.6458333333333333,0.45624999999999993,0.17592592592592587,-0.6631481481481484,1,1,1.0,0.0947533886465352,-0.0925946019804526,0.0,0.625,0.625,0.0,1.5,1.5,6.5,6.5,0.0,2.0,-1.0,5.0,0,0,1,1,-0.84
12.0,0.0,12.0,0.0,5.0,0.0,5.0,0.0,,,,right,1.1528737000189722,439.03814350022,sd9,429.3544660001062,431.3539255000651,439.03814350022,,True,3.0,['p'],False,0.625,0.625,0.0,0.0,2.0,0.6021808102656677,0.2410300925925925,succ_gain,1.0,5.0,435.4540925999172,,sd9,2,2022-05-04_11h34.13.869,threat_forest,2021.2.3,59.9590838888053,True,60.0,0.6458333333333333,0.45624999999999993,0.17592592592592587,-0.6631481481481484,1,1,1.0,0.1422576949738233,0.2410300925925925,0.625,0.625,0.625,0.0,1.5,1.5,4.5,4.5,0.0,2.0,-1.0,3.0,0,1,1,1,0.2410300925925925
12.0,0.0,12.0,0.0,6.0,0.0,6.0,0.0,,,,right,1.5606210003606975,445.9231684999541,sd9,445.9231684999541,,440.2216537003405,442.220764900092,False,5.0,['p'],True,0.5185185185185185,0.6666666666666666,0.2222222222222222,2.0,2.0,0.9327883776363328,0.0,wait_cost,0.0,4.0,442.220764900092,,sd9,2,2022-05-04_11h34.13.869,threat_forest,2021.2.3,59.9590838888053,False,60.0,0.6458333333333333,0.45624999999999993,0.17592592592592587,-0.6631481481481484,1,1,0.0,0.44508381920404944,0.0,0.0,0.5185185185185185,0.6666666666666666,0.2222222222222222,0.9999999999999999,0.8518518518518517,5.851851851851852,5.851851851851852,1.0,2.0,1.0,5.0,0,0,1,1,-0.84
12.0,0.0,12.0,0.0,7.0,0.0,7.0,0.0,,,,right,0.7596943001262844,450.0712894001044,sd9,450.0712894001044,,440.2216537003405,442.220764900092,False,4.0,['p'],True,0.5185185185185185,0.6666666666666666,0.2222222222222222,2.0,2.0,0.9327883776363328,0.0,wait_cost,0.0,3.0,449.5042228000239,,sd9,2,2022-05-04_11h34.13.869,threat_forest,2021.2.3,59.9590838888053,False,60.0,0.6458333333333333,0.45624999999999993,0.17592592592592587,-0.6631481481481484,1,1,0.0,-0.27483916329657343,0.0,0.0,0.5185185185185185,0.6666666666666666,0.2222222222222222,0.9999999999999999,0.8518518518518517,4.851851851851852,4.851851851851852,1.0,2.0,-1.0,4.0,0,0,1,1,-0.84
13.0,0.0,13.0,0.0,0.0,0.0,0.0,0.0,453.8782031000592,457.3876281003468,,right,1.6461737998761237,458.4880042001605,sd9,458.4880042001605,,453.8782031000592,457.3876281003468,False,5.0,['r'],True,0.4444444444444445,0.6666666666666666,0.3333333333333333,2.0,2.0,0.9656336071428248,-0.0307726625514404,wait_cost,0.0,4.0,,,sd9,2,2022-05-04_11h34.13.869,threat_forest,2021.2.3,59.9590838888053,False,47.0,0.6333333333333333,0.6395833333333333,-0.07777777777777783,0.04907407407407402,0,0,0.0,0.49845368591288036,-0.0307726625514404,0.4444444444444445,0.4444444444444445,0.6666666666666666,0.3333333333333333,0.6666666666666665,0.4444444444444444,5.444444444444445,5.444444444444445,1.0,2.0,-1.0,5.0,0,1,0,0,-0.0307726625514404
