miniblock.thisRepN,miniblock.thisTrialN,miniblock.thisN,miniblock.thisIndex,day.thisRepN,day.thisTrialN,day.thisN,day.thisIndex,forest.started,fixation_forest.started,fixation_forest.stopped,key_resp.keys,key_resp.rt,key_resp.started,Subject_ID,weather_left.started,weather_left.stopped,weather_right.started,weather_right.stopped,foraging T/F,in_LP,p/r heuristic,good_weather.T/F,p_succ_correct,p_succ_uncorrected,r_threat,n_oponents,gain_if_succ,weather_entropy,OP_value_difference,action_outcome,forest_side_L=0_R=1,out_LP,fixation_day.started,fixation_day.stopped,participant,session,date,expName,psychopyVersion,frameRate,foraging T/F NaNs,fora_NR,forest_mean_p,mvt_cutoff_p,forest_mean_ev,mvt_cutoff_ev,mvt_policy_eg,mvt_policy_p,fora_response,logRT,optimal policy,$\mathit{p}$ success cor + cap,$\mathit{p}$ success cor,$\mathit{p}$ success,risk threat encounter,expected gain naive,expected gain correct,expected state no bounds,expected state with bounds,weather type,gain magnitude,win stay lose shift,continuous energy state,binary energy state,$\mathit{p}$ success based MVT,expected gain based MVT
0.0,0.0,0.0,0.0,0.0,0.0,0.0,0.0,36.85472169984132,40.36324049998075,None,right,1.9680123999714847,41.49168960005045,nx8,36.85472169984132,40.36324049998075,41.49168960005045,None,True,5.0,['p'],False,0.24,0.3,0.2,2.0,2.0,0.9003120349047065,-0.0305436800767033,succ_gain,1.0,6.0,,,nx8,1,2022-05-05_14h42.09.553,threat_forest,2021.2.3,59.95171492593129,True,15.0,0.4833333333333333,0.4833333333333333,-0.8977777777777778,-0.8977777777777778,0,0,1,0.6770240994087304,-0.0305436800767033,0.24,0.24,0.3,0.8,-1.4,-1.24,3.76,3.76,0.0,2.0,,5.0,0,0,0
0.0,0.0,0.0,0.0,1.0,0.0,1.0,0.0,,,,left,1.919210500083864,48.94726790022105,nx8,48.94726790022105,None,43.47807820001617,45.49242949998006,True,6.0,['p'],True,0.4444444444444445,0.6666666666666666,0.3333333333333333,1.0,2.0,0.9656336071428248,-0.0743116691254155,succ_gain,0.0,6.0,45.49242949998006,None,nx8,1,2022-05-05_14h42.09.553,threat_forest,2021.2.3,59.95171492593129,True,15.0,0.4833333333333333,0.4833333333333333,-0.8977777777777778,-0.8977777777777778,1,0,1,0.6519139036016746,-0.0743116691254155,0.4444444444444445,0.4444444444444445,0.6666666666666666,0.6666666666666667,-0.3333333333333335,-0.5555555555555556,5.444444444444445,5.444444444444445,1.0,2.0,1.0,6.0,0,0,1
0.0,0.0,0.0,0.0,2.0,0.0,2.0,0.0,,,,left,2.041113399900496,55.953181200195104,nx8,50.894548600073904,52.908693300094455,55.953181200195104,None,False,6.0,['p'],False,0.24,0.3,0.2,2.0,2.0,0.9003120349047065,-0.0048125669818624,wait_cost,1.0,5.0,52.908693300094455,None,nx8,1,2022-05-05_14h42.09.553,threat_forest,2021.2.3,59.95171492593129,False,15.0,0.4833333333333333,0.4833333333333333,-0.8977777777777778,-0.8977777777777778,0,0,0,0.7134954432350128,-0.0048125669818624,0.24,0.24,0.3,0.8,-1.4,-1.24,4.76,4.76,0.0,2.0,-1.0,6.0,0,0,0
0.0,0.0,0.0,0.0,3.0,0.0,3.0,0.0,,,,left,1.4651263002306223,61.36247139982879,nx8,61.36247139982879,None,58.026131900027394,60.02166450023651,True,5.0,['p'],True,0.4444444444444445,0.6666666666666666,0.3333333333333333,1.0,2.0,0.9656336071428248,0.0940301783264745,figh_cost,0.0,2.0,60.02166450023651,None,nx8,1,2022-05-05_14h42.09.553,threat_forest,2021.2.3,59.95171492593129,True,15.0,0.4833333333333333,0.4833333333333333,-0.8977777777777778,-0.8977777777777778,1,0,1,0.3819414505145272,0.0940301783264745,0.4444444444444445,0.4444444444444445,0.6666666666666666,0.6666666666666667,-0.3333333333333335,-0.5555555555555556,4.444444444444445,4.444444444444445,1.0,2.0,-1.0,5.0,0,0,1
0.0,0.0,0.0,0.0,4.0,0.0,4.0,0.0,,,,right,2.4398709000088274,65.41564919985831,nx8,62.859101000241935,64.85887320013717,65.41564919985831,None,True,2.0,['p'],False,0.24,0.3,0.2,2.0,2.0,0.9003120349047065,-0.1022222222222222,figh_cost,1.0,0.0,64.85887320013717,None,nx8,1,2022-05-05_14h42.09.553,threat_forest,2021.2.3,59.95171492593129,True,15.0,0.4833333333333333,0.4833333333333333,-0.8977777777777778,-0.8977777777777778,0,0,1,0.8919451280728882,-0.1022222222222222,0.24,0.24,0.3,0.8,-1.4,-1.24,0.76,0.76,0.0,2.0,-1.0,2.0,0,0,0
1.0,0.0,1.0,0.0,0.0,0.0,0.0,0.0,70.66048360010609,74.16656620008871,None,left,0.9313268000259995,75.00950769986957,nx8,75.00950769986957,None,70.66048360010609,74.16656620008871,True,5.0,['r'],True,0.2222222222222222,0.6666666666666666,0.6666666666666666,2.0,1.0,0.77250688571426,-0.0238664193203007,figh_cost,0.0,2.0,,,nx8,1,2022-05-05_14h42.09.553,threat_forest,2021.2.3,59.95171492593129,True,66.0,0.5,0.49166666666666664,-1.5,-1.198888888888889,0,0,1,-0.07114504286224028,-0.0238664193203007,0.2222222222222222,0.2222222222222222,0.6666666666666666,0.33333333333333337,-2.0,-2.0,3.0,3.0,1.0,1.0,-1.0,5.0,0,0,0
1.0,0.0,1.0,0.0,1.0,0.0,1.0,0.0,,,,None,,79.0538972998038,nx8,75.95951629988849,77.95912639982998,79.0538972998038,None,False,2.0,['r'],False,0.3333333333333333,0.3333333333333333,0.0,0.0,1.0,0.5793801642856949,0.0134157648732408,wait_cost,1.0,1.0,77.95912639982998,None,nx8,1,2022-05-05_14h42.09.553,threat_forest,2021.2.3,59.95171492593129,None,66.0,0.5,0.49166666666666664,-1.5,-1.198888888888889,1,0,0,,0.0134157648732408,0.3333333333333333,0.3333333333333333,0.3333333333333333,1.0,-1.0000000000000002,-1.0000000000000002,0.9999999999999998,0.9999999999999998,0.0,1.0,-1.0,2.0,0,0,1
1.0,0.0,1.0,0.0,2.0,0.0,2.0,0.0,,,,left,1.3130454001948235,85.39694620016962,nx8,85.39694620016962,None,82.0593014000915,84.05938320001587,True,1.0,['r'],True,0.2222222222222222,0.6666666666666666,0.6666666666666666,2.0,1.0,0.77250688571426,0.0223098613016308,figh_cost,0.0,0.0,84.05938320001587,None,nx8,1,2022-05-05_14h42.09.553,threat_forest,2021.2.3,59.95171492593129,True,66.0,0.5,0.49166666666666664,-1.5,-1.198888888888889,0,0,1,0.2723491721751375,0.0223098613016308,1.0,0.2222222222222222,0.6666666666666666,0.33333333333333337,-2.0,-2.0,-1.0,0.0,1.0,1.0,-1.0,1.0,1,0,0
2.0,0.0,2.0,0.0,0.0,0.0,0.0,0.0,92.14960409980269,95.64921420020984,None,right,1.902865800075233,98.5736882998608,nx8,92.14960409980269,95.64921420020983,98.5736882998608,None,True,4.0,['r'],False,0.5,0.5,0.0,0.0,2.0,0.6309297535714574,0.0723560159877321,unsucc_cost,1.0,2.0,,,nx8,1,2022-05-05_14h42.09.553,threat_forest,2021.2.3,59.95171492593129,True,14.0,0.5357142857142857,0.5178571428571428,-0.326530612244898,-0.9132653061224489,1,0,1,0.6433610656356669,0.0723560159877321,0.5,0.5,0.5,1.0,0.0,0.0,4.0,4.0,0.0,2.0,-1.0,4.0,0,0,1
2.0,0.0,2.0,0.0,1.0,0.0,1.0,0.0,,,,left,2.1129938000813127,104.89731559995562,nx8,92.14960409980269,95.64921420020983,104.89731559995562,None,False,2.0,['r'],False,0.5,0.5,0.0,0.0,2.0,0.6309297535714574,0.0536521501003592,wait_cost,1.0,1.0,102.49273509997874,None,nx8,1,2022-05-05_14h42.09.553,threat_forest,2021.2.3,59.95171492593129,False,14.0,0.5357142857142857,0.5178571428571428,-0.326530612244898,-0.9132653061224489,1,0,0,0.7481058044513436,0.0536521501003592,0.5,0.5,0.5,1.0,0.0,0.0,2.0,2.0,0.0,2.0,-1.0,2.0,0,0,1
2.0,0.0,2.0,0.0,2.0,0.0,2.0,0.0,,,,right,1.468287399969995,111.66310650017112,nx8,92.14960409980269,95.64921420020983,111.66310650017112,None,True,1.0,['r'],False,0.5,0.5,0.0,0.0,2.0,0.6309297535714574,0.285343093437332,succ_gain,1.0,3.0,109.04300750000402,None,nx8,1,2022-05-05_14h42.09.553,threat_forest,2021.2.3,59.95171492593129,True,14.0,0.5357142857142857,0.5178571428571428,-0.326530612244898,-0.9132653061224489,1,0,1,0.38409668757691484,0.285343093437332,1.0,0.5,0.5,1.0,0.0,0.0,1.0,1.0,0.0,2.0,-1.0,1.0,1,0,1
2.0,0.0,2.0,0.0,3.0,0.0,3.0,0.0,,,,left,2.36422839993611,117.7500399001874,nx8,117.7500399001874,None,113.15992709994316,115.15963289979845,True,3.0,['r'],True,0.4081632653061224,0.5714285714285714,0.2857142857142857,2.0,2.0,0.9885754083994552,0.0196828699073915,succ_gain,0.0,5.0,115.15963289979844,None,nx8,1,2022-05-05_14h42.09.553,threat_forest,2021.2.3,59.95171492593129,True,14.0,0.5357142857142857,0.5178571428571428,-0.326530612244898,-0.9132653061224489,1,0,1,0.8604517107550574,0.0196828699073915,0.4081632653061224,0.4081632653061224,0.5714285714285714,0.7142857142857143,-0.5714285714285715,-0.653061224489796,2.3469387755102042,2.3469387755102042,1.0,2.0,1.0,3.0,0,0,1
2.0,0.0,2.0,0.0,4.0,0.0,4.0,0.0,,,,left,2.789264400023967,124.05776060000062,nx8,120.1434403997846,122.14288590010256,124.05776060000062,None,False,5.0,['r'],False,0.5,0.5,0.0,0.0,2.0,0.6309297535714574,-0.1814478342357351,wait_cost,1.0,4.0,122.14288590010256,None,nx8,1,2022-05-05_14h42.09.553,threat_forest,2021.2.3,59.95171492593129,False,14.0,0.5357142857142857,0.5178571428571428,-0.326530612244898,-0.9132653061224489,1,0,0,1.0257779051645575,-0.1814478342357351,0.0,0.5,0.5,1.0,0.0,0.0,5.0,5.0,0.0,2.0,1.0,5.0,0,0,1
2.0,0.0,2.0,0.0,5.0,0.0,5.0,0.0,,,,left,2.3304904997348785,129.4496202999726,nx8,129.4496202999726,None,126.8768588998355,128.8764086998999,True,4.0,['r'],True,0.4081632653061224,0.5714285714285714,0.2857142857142857,2.0,2.0,0.9885754083994552,-0.3160662224073303,succ_gain,0.0,6.0,128.8764086998999,None,nx8,1,2022-05-05_14h42.09.553,threat_forest,2021.2.3,59.95171492593129,True,14.0,0.5357142857142857,0.5178571428571428,-0.326530612244898,-0.9132653061224489,1,0,1,0.8460787603301285,-0.3160662224073303,0.0,0.4081632653061224,0.5714285714285714,0.7142857142857143,-0.5714285714285715,-0.653061224489796,3.3469387755102042,3.3469387755102042,1.0,2.0,-1.0,4.0,0,0,1
2.0,0.0,2.0,0.0,6.0,0.0,6.0,0.0,,,,right,2.1809868002310395,137.19568700017408,nx8,131.8101607002318,133.8038274999708,137.19568700017408,None,True,6.0,['r'],False,0.5,0.5,0.0,0.0,2.0,0.6309297535714574,0.0,succ_gain,1.0,6.0,133.8038274999708,None,nx8,1,2022-05-05_14h42.09.553,threat_forest,2021.2.3,59.95171492593129,True,14.0,0.5357142857142857,0.5178571428571428,-0.326530612244898,-0.9132653061224489,1,0,1,0.7797774350375093,0.0,0.0,0.5,0.5,1.0,0.0,0.0,6.0,6.0,0.0,2.0,1.0,6.0,0,0,1
2.0,0.0,2.0,0.0,7.0,0.0,7.0,0.0,,,,right,1.2723572999238968,144.3190704002045,nx8,131.8101607002318,133.8038274999708,144.3190704002045,None,True,6.0,['r'],False,0.5,0.5,0.0,0.0,2.0,0.6309297535714574,0.0,succ_gain,1.0,6.0,141.39322260022163,None,nx8,1,2022-05-05_14h42.09.553,threat_forest,2021.2.3,59.95171492593129,True,14.0,0.5357142857142857,0.5178571428571428,-0.326530612244898,-0.9132653061224489,1,0,1,0.24087132164057398,0.0,0.0,0.5,0.5,1.0,0.0,0.0,6.0,6.0,0.0,2.0,-1.0,6.0,0,0,1
3.0,0.0,3.0,0.0,0.0,0.0,0.0,0.0,150.55649399990216,154.04988350020722,None,left,2.391488500405103,155.8241122001782,nx8,155.8241122001782,None,150.55649399990216,154.04988350020722,True,4.0,['p'],True,0.1975308641975308,0.2222222222222222,0.1111111111111111,1.0,2.0,0.7461067557824965,-0.0032005207389234,unsucc_cost,0.0,2.0,,,nx8,1,2022-05-05_14h42.09.553,threat_forest,2021.2.3,59.95171492593129,True,12.0,0.3111111111111111,0.4234126984126984,-1.1204938271604938,-0.723512219702696,0,0,1,0.8719159755985761,-0.0032005207389234,0.1975308641975308,0.1975308641975308,0.2222222222222222,0.8888888888888888,-1.4444444444444444,-1.3209876543209877,2.6790123456790123,2.6790123456790123,1.0,2.0,-1.0,4.0,0,0,0
3.0,0.0,3.0,0.0,1.0,0.0,1.0,0.0,,,,None,,161.2721563000232,nx8,161.2721563000232,None,150.55649399990216,154.04988350020722,False,2.0,['p'],True,0.1975308641975308,0.2222222222222222,0.1111111111111111,1.0,2.0,0.7461067557824965,-0.0130550838348044,wait_cost,0.0,1.0,160.2434522002004,None,nx8,1,2022-05-05_14h42.09.553,threat_forest,2021.2.3,59.95171492593129,None,12.0,0.3111111111111111,0.4234126984126984,-1.1204938271604938,-0.723512219702696,0,0,0,,-0.0130550838348044,0.1975308641975308,0.1975308641975308,0.2222222222222222,0.8888888888888888,-1.4444444444444444,-1.3209876543209877,0.6790123456790123,0.6790123456790123,1.0,2.0,-1.0,2.0,0,0,0
3.0,0.0,3.0,0.0,2.0,0.0,2.0,0.0,,,,right,1.7294617998413742,166.97598379990086,nx8,164.28808230021968,166.29364049993455,166.97598379990086,None,True,1.0,['p'],False,0.32,0.4,0.2,1.0,2.0,0.9455672104350704,0.1056555783466974,figh_cost,1.0,0.0,166.29364049993455,None,nx8,1,2022-05-05_14h42.09.553,threat_forest,2021.2.3,59.95171492593129,True,12.0,0.3111111111111111,0.4234126984126984,-1.1204938271604938,-0.723512219702696,0,0,1,0.5478102617509677,0.1056555783466974,1.0,0.32,0.4,0.8,-1.0,-0.92,0.07999999999999996,0.07999999999999996,0.0,2.0,-1.0,1.0,1,0,0
4.0,0.0,4.0,0.0,0.0,0.0,0.0,0.0,173.11701419996098,176.6121049001813,None,left,1.2736629997380078,177.2832391001284,nx8,177.2832391001284,None,173.11701419996098,176.6121049001813,True,4.0,['r'],True,0.4081632653061224,0.5714285714285714,0.2857142857142857,2.0,2.0,0.9885754083994552,0.0102904310319958,unsucc_cost,0.0,2.0,,,nx8,1,2022-05-05_14h42.09.553,threat_forest,2021.2.3,59.95171492593129,True,64.0,0.5357142857142857,0.4234126984126984,-0.326530612244898,-0.723512219702696,1,0,1,0.24189700075927753,0.0102904310319958,0.4081632653061224,0.4081632653061224,0.5714285714285714,0.7142857142857143,-0.5714285714285715,-0.653061224489796,3.3469387755102042,3.3469387755102042,1.0,2.0,-1.0,4.0,0,0,1
4.0,0.0,4.0,0.0,1.0,0.0,1.0,0.0,,,,left,2.103648600168526,181.17172509990635,nx8,181.17172509990635,None,173.11701419996098,176.6121049001813,True,2.0,['r'],True,0.4081632653061224,0.5714285714285714,0.2857142857142857,2.0,2.0,0.9885754083994552,-0.0037991231674081,succ_gain,0.0,4.0,180.5774798002094,None,nx8,1,2022-05-05_14h42.09.553,threat_forest,2021.2.3,59.95171492593129,True,64.0,0.5357142857142857,0.4234126984126984,-0.326530612244898,-0.723512219702696,1,0,1,0.7436732657978562,-0.0037991231674081,0.4081632653061224,0.4081632653061224,0.5714285714285714,0.7142857142857143,-0.5714285714285715,-0.653061224489796,1.346938775510204,1.346938775510204,1.0,2.0,-1.0,2.0,0,0,1
4.0,0.0,4.0,0.0,2.0,0.0,2.0,0.0,,,,left,2.953444099985063,186.1130881998688,nx8,183.2945587001741,185.29428850021213,186.1130881998688,None,False,4.0,['r'],False,0.5,0.5,0.0,0.0,2.0,0.6309297535714574,0.0907913928858948,wait_cost,1.0,3.0,185.29428850021213,None,nx8,1,2022-05-05_14h42.09.553,threat_forest,2021.2.3,59.95171492593129,False,64.0,0.5357142857142857,0.4234126984126984,-0.326530612244898,-0.723512219702696,1,1,0,1.0829719808838443,0.0907913928858948,0.5,0.5,0.5,1.0,0.0,0.0,4.0,4.0,0.0,2.0,1.0,4.0,0,1,1
4.0,0.0,4.0,0.0,3.0,0.0,3.0,0.0,,,,left,1.606775499880314,194.73235790012404,nx8,194.73235790012404,None,189.10046919994056,191.1107207001187,True,3.0,['r'],True,0.4081632653061224,0.5714285714285714,0.2857142857142857,2.0,2.0,0.9885754083994552,0.0196828699073915,succ_gain,0.0,5.0,191.1107207001187,None,nx8,1,2022-05-05_14h42.09.553,threat_forest,2021.2.3,59.95171492593129,True,64.0,0.5357142857142857,0.4234126984126984,-0.326530612244898,-0.723512219702696,1,0,1,0.474229375614968,0.0196828699073915,0.4081632653061224,0.4081632653061224,0.5714285714285714,0.7142857142857143,-0.5714285714285715,-0.653061224489796,2.3469387755102042,2.3469387755102042,1.0,2.0,-1.0,3.0,0,0,1
4.0,0.0,4.0,0.0,4.0,0.0,4.0,0.0,,,,left,1.252206700388342,201.72698780009523,nx8,201.72698780009523,None,189.10046919994056,191.1107207001187,True,5.0,['r'],True,0.4081632653061224,0.5714285714285714,0.2857142857142857,2.0,2.0,0.9885754083994552,-0.2605074203775637,figh_cost,0.0,2.0,198.3774454998784,None,nx8,1,2022-05-05_14h42.09.553,threat_forest,2021.2.3,59.95171492593129,True,64.0,0.5357142857142857,0.4234126984126984,-0.326530612244898,-0.723512219702696,1,0,1,0.2249073552078587,-0.2605074203775637,0.0,0.4081632653061224,0.5714285714285714,0.7142857142857143,-0.5714285714285715,-0.653061224489796,4.346938775510204,4.346938775510204,1.0,2.0,1.0,5.0,0,0,1
4.0,0.0,4.0,0.0,5.0,0.0,5.0,0.0,,,,right,1.6244641998782754,208.41184080019596,nx8,203.0115412999876,205.01100620022044,208.41184080019596,None,True,2.0,['r'],False,0.5,0.5,0.0,0.0,2.0,0.6309297535714574,0.0459183673469387,succ_gain,1.0,4.0,205.01100620022044,None,nx8,1,2022-05-05_14h42.09.553,threat_forest,2021.2.3,59.95171492593129,True,64.0,0.5357142857142857,0.4234126984126984,-0.326530612244898,-0.723512219702696,1,1,1,0.48517803825924,0.0459183673469387,0.5,0.5,0.5,1.0,0.0,0.0,2.0,2.0,0.0,2.0,-1.0,2.0,0,1,1
4.0,0.0,4.0,0.0,6.0,0.0,6.0,0.0,,,,left,1.349190100096166,212.78206529980525,nx8,212.78206529980525,None,210.06167790014297,212.06115029985085,True,4.0,['r'],True,0.4081632653061224,0.5714285714285714,0.2857142857142857,2.0,2.0,0.9885754083994552,-0.1559766763848396,succ_gain,0.0,6.0,212.06115029985085,None,nx8,1,2022-05-05_14h42.09.553,threat_forest,2021.2.3,59.95171492593129,True,64.0,0.5357142857142857,0.4234126984126984,-0.326530612244898,-0.723512219702696,1,0,1,0.2995044865681249,-0.1559766763848396,0.0,0.4081632653061224,0.5714285714285714,0.7142857142857143,-0.5714285714285715,-0.653061224489796,3.3469387755102042,3.3469387755102042,1.0,2.0,1.0,4.0,0,0,1
4.0,0.0,4.0,0.0,7.0,0.0,7.0,0.0,,,,left,1.1069367001764476,218.92511649988592,nx8,218.92511649988592,None,210.06167790014297,212.06115029985085,True,6.0,['r'],True,0.4081632653061224,0.5714285714285714,0.2857142857142857,2.0,2.0,0.9885754083994552,0.0,unsucc_cost,0.0,4.0,216.1779860998504,None,nx8,1,2022-05-05_14h42.09.553,threat_forest,2021.2.3,59.95171492593129,True,64.0,0.5357142857142857,0.4234126984126984,-0.326530612244898,-0.723512219702696,1,0,1,0.10159647067915743,0.0,0.0,0.4081632653061224,0.5714285714285714,0.7142857142857143,-0.5714285714285715,-0.653061224489796,5.346938775510204,5.346938775510204,1.0,2.0,1.0,6.0,0,0,1
5.0,0.0,5.0,0.0,0.0,0.0,0.0,0.0,225.76815050002187,229.258709799964,None,left,1.6093145003542304,231.61062100017443,nx8,231.61062100017443,None,225.76815050002187,229.25870979996398,True,4.0,['r'],True,0.6,0.6,0.0,0.0,1.0,0.6126016192893442,0.106823090374617,succ_gain,0.0,5.0,,,nx8,1,2022-05-05_14h42.09.553,threat_forest,2021.2.3,59.95171492593129,True,38.0,0.6125,0.5741071428571429,-0.5218750000000001,-0.42420280612244904,1,1,1,0.4758083121504611,0.106823090374617,0.6,0.6,0.6,1.0,-0.20000000000000007,-0.20000000000000007,3.8,3.8,1.0,1.0,-1.0,4.0,0,1,1
5.0,0.0,5.0,0.0,1.0,0.0,1.0,0.0,,,,right,2.16885680006817,237.7206252999604,nx8,237.7206252999604,None,225.76815050002187,229.25870979996398,False,5.0,['r'],True,0.6,0.6,0.0,0.0,1.0,0.6126016192893442,0.1084279518578053,wait_cost,0.0,4.0,235.24471529992297,None,nx8,1,2022-05-05_14h42.09.553,threat_forest,2021.2.3,59.95171492593129,False,38.0,0.6125,0.5741071428571429,-0.5218750000000001,-0.42420280612244904,1,1,0,0.7742002084887427,0.1084279518578053,0.6,0.6,0.6,1.0,-0.20000000000000007,-0.20000000000000007,4.8,4.8,1.0,1.0,1.0,5.0,0,1,1
5.0,0.0,5.0,0.0,2.0,0.0,2.0,0.0,,,,right,1.7917110999114811,244.7508934000507,nx8,239.91199050005525,241.91138679999858,244.7508934000507,None,True,4.0,['r'],False,0.46875,0.625,0.25,2.0,1.0,0.9634951148421658,0.014409303832054,unsucc_cost,1.0,2.0,241.91138679999855,None,nx8,1,2022-05-05_14h42.09.553,threat_forest,2021.2.3,59.95171492593129,True,38.0,0.6125,0.5741071428571429,-0.5218750000000001,-0.42420280612244904,0,0,1,0.5831710849886972,0.014409303832054,0.46875,0.46875,0.625,0.75,-0.875,-0.84375,3.15625,3.15625,0.0,1.0,-1.0,4.0,0,0,0
5.0,0.0,5.0,0.0,3.0,0.0,3.0,0.0,,,,left,2.266473399940878,250.87519699987024,nx8,250.87519699987024,None,246.5618942999281,248.5614916002378,True,2.0,['r'],True,0.6,0.6,0.0,0.0,1.0,0.6126016192893442,0.0834363281249999,succ_gain,0.0,3.0,248.5614916002378,None,nx8,1,2022-05-05_14h42.09.553,threat_forest,2021.2.3,59.95171492593129,True,38.0,0.6125,0.5741071428571429,-0.5218750000000001,-0.42420280612244904,1,1,1,0.8182250551467419,0.0834363281249999,0.6,0.6,0.6,1.0,-0.20000000000000007,-0.20000000000000007,1.7999999999999998,1.7999999999999998,1.0,1.0,-1.0,2.0,0,1,1
5.0,0.0,5.0,0.0,4.0,0.0,4.0,0.0,,,,left,2.1045281002298,257.4817384001799,nx8,253.16196249984205,255.16177790006623,257.4817384001799,None,False,3.0,['r'],False,0.46875,0.625,0.25,2.0,1.0,0.9634951148421658,-0.0131932067871093,wait_cost,1.0,2.0,255.16177790006623,None,nx8,1,2022-05-05_14h42.09.553,threat_forest,2021.2.3,59.95171492593129,False,38.0,0.6125,0.5741071428571429,-0.5218750000000001,-0.42420280612244904,0,0,0,0.7440912615887632,-0.0131932067871093,0.46875,0.46875,0.625,0.75,-0.875,-0.84375,2.15625,2.15625,0.0,1.0,1.0,3.0,0,0,0
5.0,0.0,5.0,0.0,5.0,0.0,5.0,0.0,,,,right,1.673461300320923,264.008169699926,nx8,253.16196249984205,255.16177790006623,264.008169699926,None,True,2.0,['r'],False,0.46875,0.625,0.25,2.0,1.0,0.9634951148421658,-0.0656249999999999,succ_gain,1.0,3.0,261.6284610000439,None,nx8,1,2022-05-05_14h42.09.553,threat_forest,2021.2.3,59.95171492593129,True,38.0,0.6125,0.5741071428571429,-0.5218750000000001,-0.42420280612244904,0,0,1,0.5148941164068906,-0.0656249999999999,0.46875,0.46875,0.625,0.75,-0.875,-0.84375,1.15625,1.15625,0.0,1.0,-1.0,2.0,0,0,0
5.0,0.0,5.0,0.0,6.0,0.0,6.0,0.0,,,,left,1.667735000140965,269.74510189983994,nx8,269.74510189983994,None,265.7213237998076,267.7284917999059,True,3.0,['r'],True,0.6,0.6,0.0,0.0,1.0,0.6126016192893442,-0.18625,succ_gain,0.0,4.0,267.7284917999059,None,nx8,1,2022-05-05_14h42.09.553,threat_forest,2021.2.3,59.95171492593129,True,38.0,0.6125,0.5741071428571429,-0.5218750000000001,-0.42420280612244904,1,1,1,0.5114664184977649,-0.18625,0.0,0.6,0.6,1.0,-0.20000000000000007,-0.20000000000000007,2.8,2.8,1.0,1.0,1.0,3.0,0,1,1
5.0,0.0,5.0,0.0,7.0,0.0,7.0,0.0,,,,left,1.077145100105554,274.28618399985135,nx8,274.28618399985135,None,265.7213237998076,267.7284917999059,True,4.0,['r'],True,0.6,0.6,0.0,0.0,1.0,0.6126016192893442,0.0,succ_gain,0.0,5.0,273.44541609985754,None,nx8,1,2022-05-05_14h42.09.553,threat_forest,2021.2.3,59.95171492593129,True,38.0,0.6125,0.5741071428571429,-0.5218750000000001,-0.42420280612244904,1,1,1,0.07431411528849459,0.0,0.0,0.6,0.6,1.0,-0.20000000000000007,-0.20000000000000007,3.8,3.8,1.0,1.0,1.0,4.0,0,1,1
6.0,0.0,6.0,0.0,0.0,0.0,0.0,0.0,280.3096556002274,283.80666670016944,None,right,1.0055575999431312,286.7286645001732,nx8,280.3096556002274,283.80666670016944,286.7286645001732,None,True,4.0,['p'],False,0.375,0.5,0.25,1.0,1.0,0.9850568223215076,0.0292062806120119,unsucc_cost,1.0,2.0,,,nx8,1,2022-05-05_14h42.09.553,threat_forest,2021.2.3,59.95171492593129,True,9.0,0.4,0.5062500000000001,-1.3025,-0.9121875,0,0,1,0.005542213466165312,0.0292062806120119,0.375,0.375,0.5,0.75,-1.25,-1.125,2.875,2.875,0.0,1.0,1.0,4.0,0,0,0
6.0,0.0,6.0,0.0,1.0,0.0,1.0,0.0,,,,left,1.3399028000421822,293.28673260007054,nx8,293.28673260007054,None,287.762469700072,289.76224979991093,True,2.0,['p'],True,0.24,0.3,0.2,2.0,1.0,0.9003120349047065,-0.0024622735211894,unsucc_cost,0.0,0.0,289.76224979991093,None,nx8,1,2022-05-05_14h42.09.553,threat_forest,2021.2.3,59.95171492593129,True,9.0,0.4,0.5062500000000001,-1.3025,-0.9121875,0,0,1,0.29259707404991053,-0.0024622735211894,0.24,0.24,0.3,0.8,-1.7,-1.48,0.52,0.52,1.0,1.0,-1.0,2.0,0,0,0
7.0,0.0,7.0,0.0,0.0,0.0,0.0,0.0,298.23630699981004,301.745832500048,None,right,2.705805900041014,303.2185948998668,nx8,298.23630699981004,301.745832500048,303.2185948998668,None,True,5.0,['p'],False,0.2448979591836734,0.2857142857142857,0.1428571428571428,1.0,2.0,0.8400769154957735,-0.0142294939424326,unsucc_cost,1.0,3.0,,,nx8,1,2022-05-05_14h42.09.553,threat_forest,2021.2.3,59.95171492593129,True,42.0,0.39285714285714285,0.39642857142857146,-0.9566326530612245,-1.1295663265306122,0,0,1,0.995399797701049,-0.0142294939424326,0.2448979591836734,0.2448979591836734,0.2857142857142857,0.8571428571428572,-1.2857142857142856,-1.163265306122449,3.836734693877551,3.836734693877551,0.0,2.0,-1.0,5.0,0,0,0
7.0,0.0,7.0,0.0,1.0,0.0,1.0,0.0,,,,left,1.7805074998177588,308.5284413998015,nx8,308.5284413998015,None,305.94611309980974,307.94580820016563,True,3.0,['p'],True,0.375,0.5,0.25,1.0,2.0,0.9850568223215076,0.078614571109881,unsucc_cost,0.0,1.0,307.94580820016563,None,nx8,1,2022-05-05_14h42.09.553,threat_forest,2021.2.3,59.95171492593129,True,42.0,0.39285714285714285,0.39642857142857146,-0.9566326530612245,-1.1295663265306122,1,0,1,0.5768984359243859,0.078614571109881,0.375,0.375,0.5,0.75,-0.75,-0.75,2.25,2.25,1.0,2.0,-1.0,3.0,0,0,1
7.0,0.0,7.0,0.0,2.0,0.0,2.0,0.0,,,,right,1.494078999850899,313.84779040003195,nx8,310.3293074001558,312.32945109996945,313.84779040003195,None,True,1.0,['p'],False,0.2448979591836734,0.2857142857142857,0.1428571428571428,1.0,2.0,0.8400769154957735,0.0944428399033169,succ_gain,1.0,3.0,312.32945109996945,None,nx8,1,2022-05-05_14h42.09.553,threat_forest,2021.2.3,59.95171492593129,True,42.0,0.39285714285714285,0.39642857142857146,-0.9566326530612245,-1.1295663265306122,0,0,1,0.4015099633922135,0.0944428399033169,1.0,0.2448979591836734,0.2857142857142857,0.8571428571428572,-1.2857142857142856,-1.163265306122449,-0.16326530612244894,0.0,0.0,2.0,-1.0,1.0,1,0,0
7.0,0.0,7.0,0.0,3.0,0.0,3.0,0.0,,,,left,2.5726320003159344,318.78967660013586,nx8,310.3293074001558,312.32945109996945,318.78967660013586,None,False,3.0,['p'],False,0.2448979591836734,0.2857142857142857,0.1428571428571428,1.0,2.0,0.8400769154957735,-0.0097255873504729,wait_cost,1.0,2.0,317.36255150008947,None,nx8,1,2022-05-05_14h42.09.553,threat_forest,2021.2.3,59.95171492593129,False,42.0,0.39285714285714285,0.39642857142857146,-0.9566326530612245,-1.1295663265306122,0,0,0,0.9449294994858131,-0.0097255873504729,0.2448979591836734,0.2448979591836734,0.2857142857142857,0.8571428571428572,-1.2857142857142856,-1.163265306122449,1.836734693877551,1.836734693877551,0.0,2.0,1.0,3.0,0,0,0
7.0,0.0,7.0,0.0,4.0,0.0,4.0,0.0,,,,right,1.458508100360632,326.00899480003864,nx8,310.3293074001558,312.32945109996945,326.00899480003864,None,True,2.0,['p'],False,0.2448979591836734,0.2857142857142857,0.1428571428571428,1.0,2.0,0.8400769154957735,-0.0650510204081632,unsucc_cost,1.0,0.0,323.3793410998769,None,nx8,1,2022-05-05_14h42.09.553,threat_forest,2021.2.3,59.95171492593129,True,42.0,0.39285714285714285,0.39642857142857146,-0.9566326530612245,-1.1295663265306122,0,0,1,0.3774140642084898,-0.0650510204081632,0.2448979591836734,0.2448979591836734,0.2857142857142857,0.8571428571428572,-1.2857142857142856,-1.163265306122449,0.8367346938775511,0.8367346938775511,0.0,2.0,-1.0,2.0,0,0,0
8.0,0.0,8.0,0.0,0.0,0.0,0.0,0.0,332.4381264001131,335.9432438998483,None,left,1.2538804998621345,336.4837112999521,nx8,336.4837112999521,None,332.4381264001131,335.9432438998483,True,4.0,['r'],True,0.625,0.625,0.0,0.0,2.0,0.6021808102656677,0.0846937196284889,unsucc_cost,0.0,2.0,,,nx8,1,2022-05-05_14h42.09.553,threat_forest,2021.2.3,59.95171492593129,True,60.0,0.6458333333333333,0.519345238095238,0.17592592592592587,-0.39035336356764927,1,1,1,0.22624314250409416,0.0846937196284889,0.625,0.625,0.625,1.0,0.5,0.5,4.5,4.5,1.0,2.0,-1.0,4.0,0,1,1
8.0,0.0,8.0,0.0,1.0,0.0,1.0,0.0,,,,left,1.3751663998700678,342.3729801001027,nx8,342.3729801001027,None,332.4381264001131,335.9432438998483,True,2.0,['r'],True,0.625,0.625,0.0,0.0,2.0,0.6021808102656677,0.0760437023991711,succ_gain,0.0,4.0,339.7630366999656,None,nx8,1,2022-05-05_14h42.09.553,threat_forest,2021.2.3,59.95171492593129,True,60.0,0.6458333333333333,0.519345238095238,0.17592592592592587,-0.39035336356764927,1,1,1,0.31857474188375867,0.0760437023991711,0.625,0.625,0.625,1.0,0.5,0.5,2.5,2.5,1.0,2.0,-1.0,2.0,0,1,1
8.0,0.0,8.0,0.0,2.0,0.0,2.0,0.0,,,,left,1.4126125001348555,349.52286999998614,nx8,343.7720635998994,345.7673932998441,349.52286999998614,None,False,4.0,['r'],False,0.5185185185185185,0.6666666666666666,0.2222222222222222,2.0,2.0,0.9327883776363328,0.0285544796599727,wait_cost,1.0,3.0,345.7673932998441,None,nx8,1,2022-05-05_14h42.09.553,threat_forest,2021.2.3,59.95171492593129,False,60.0,0.6458333333333333,0.519345238095238,0.17592592592592587,-0.39035336356764927,1,0,0,0.34544082698004774,0.0285544796599727,0.5185185185185185,0.5185185185185185,0.6666666666666666,0.7777777777777778,-1.1102230246251565e-16,-0.14814814814814825,3.8518518518518516,3.8518518518518516,0.0,2.0,1.0,4.0,0,0,1
8.0,0.0,8.0,0.0,3.0,0.0,3.0,0.0,,,,left,2.5242949002422392,353.6337846000679,nx8,353.6337846000679,None,350.963753500022,352.9631218002178,True,3.0,['r'],True,0.625,0.625,0.0,0.0,2.0,0.6021808102656677,0.188088271552843,unsucc_cost,0.0,1.0,352.9631218002178,None,nx8,1,2022-05-05_14h42.09.553,threat_forest,2021.2.3,59.95171492593129,True,60.0,0.6458333333333333,0.519345238095238,0.17592592592592587,-0.39035336356764927,1,1,1,0.9259617763016837,0.188088271552843,0.625,0.625,0.625,1.0,0.5,0.5,3.5,3.5,1.0,2.0,-1.0,3.0,0,1,1
8.0,0.0,8.0,0.0,4.0,0.0,4.0,0.0,,,,left,1.0830402998253703,361.0059432000853,nx8,361.0059432000853,None,350.963753500022,352.9631218002178,True,1.0,['r'],True,0.625,0.625,0.0,0.0,2.0,0.6021808102656677,0.4706756633659121,unsucc_cost,0.0,0.0,358.17997989989817,None,nx8,1,2022-05-05_14h42.09.553,threat_forest,2021.2.3,59.95171492593129,True,60.0,0.6458333333333333,0.519345238095238,0.17592592592592587,-0.39035336356764927,1,1,1,0.07977217861496132,0.4706756633659121,1.0,0.625,0.625,1.0,0.5,0.5,1.5,1.5,1.0,2.0,-1.0,1.0,1,1,1
9.0,0.0,9.0,0.0,0.0,0.0,0.0,0.0,365.4973328001797,368.9935902999714,None,left,1.5210751998238266,371.6963378000073,nx8,371.6963378000073,None,365.4973328001797,368.9935902999714,True,5.0,['p'],True,0.4444444444444445,0.6666666666666666,0.3333333333333333,1.0,1.0,0.9656336071428248,0.0498748920388152,unsucc_cost,0.0,3.0,,,nx8,1,2022-05-05_14h42.09.553,threat_forest,2021.2.3,59.95171492593129,True,56.0,0.4444444444444444,0.5451388888888888,-1.1666666666666667,-0.49537037037037046,0,0,1,0.4194174530962939,0.0498748920388152,0.4444444444444445,0.4444444444444445,0.6666666666666666,0.6666666666666667,-1.0,-1.0,4.0,4.0,1.0,1.0,-1.0,5.0,0,0,0
9.0,0.0,9.0,0.0,1.0,0.0,1.0,0.0,,,,left,2.321225600317121,376.4030108000152,nx8,376.4030108000152,None,365.4973328001797,368.9935902999714,True,3.0,['p'],True,0.4444444444444445,0.6666666666666666,0.3333333333333333,1.0,1.0,0.9656336071428248,0.0531698250605429,unsucc_cost,0.0,1.0,375.2635376998224,None,nx8,1,2022-05-05_14h42.09.553,threat_forest,2021.2.3,59.95171492593129,True,56.0,0.4444444444444444,0.5451388888888888,-1.1666666666666667,-0.49537037037037046,0,0,1,0.8420953221883357,0.0531698250605429,0.4444444444444445,0.4444444444444445,0.6666666666666666,0.6666666666666667,-1.0,-1.0,2.0,2.0,1.0,1.0,-1.0,3.0,0,0,0
9.0,0.0,9.0,0.0,2.0,0.0,2.0,0.0,,,,left,1.7687149001285434,382.97125279996544,nx8,382.97125279996544,None,365.4973328001797,368.9935902999714,True,1.0,['p'],True,0.4444444444444445,0.6666666666666666,0.3333333333333333,1.0,1.0,0.9656336071428248,0.0713813951125336,succ_gain,0.0,2.0,380.7469583000056,None,nx8,1,2022-05-05_14h42.09.553,threat_forest,2021.2.3,59.95171492593129,True,56.0,0.4444444444444444,0.5451388888888888,-1.1666666666666667,-0.49537037037037046,0,0,1,0.5702532377622135,0.0713813951125336,1.0,0.4444444444444445,0.6666666666666666,0.6666666666666667,-1.0,-1.0,0.0,0.0,1.0,1.0,-1.0,1.0,1,0,0
9.0,0.0,9.0,0.0,3.0,0.0,3.0,0.0,,,,left,1.508630800060928,388.184490500018,nx8,388.184490500018,None,365.4973328001797,368.9935902999714,True,2.0,['p'],True,0.4444444444444445,0.6666666666666666,0.3333333333333333,1.0,1.0,0.9656336071428248,0.0619570187471422,succ_gain,0.0,3.0,386.7639632998034,None,nx8,1,2022-05-05_14h42.09.553,threat_forest,2021.2.3,59.95171492593129,True,56.0,0.4444444444444444,0.5451388888888888,-1.1666666666666667,-0.49537037037037046,0,0,1,0.4112024845493651,0.0619570187471422,0.4444444444444445,0.4444444444444445,0.6666666666666666,0.6666666666666667,-1.0,-1.0,1.0,1.0,1.0,1.0,1.0,2.0,0,0,0
9.0,0.0,9.0,0.0,4.0,0.0,4.0,0.0,,,,left,1.6328273001126945,395.4023107998073,nx8,395.4023107998073,None,365.4973328001797,368.9935902999714,True,3.0,['p'],True,0.4444444444444445,0.6666666666666666,0.3333333333333333,1.0,1.0,0.9656336071428248,0.0843621399176954,figh_cost,0.0,0.0,391.71367960004136,None,nx8,1,2022-05-05_14h42.09.553,threat_forest,2021.2.3,59.95171492593129,True,56.0,0.4444444444444444,0.5451388888888888,-1.1666666666666667,-0.49537037037037046,0,0,1,0.49031305218796556,0.0843621399176954,0.4444444444444445,0.4444444444444445,0.6666666666666666,0.6666666666666667,-1.0,-1.0,2.0,2.0,1.0,1.0,1.0,3.0,0,0,0
10.0,0.0,10.0,0.0,0.0,0.0,0.0,0.0,402.61308770021424,406.1084150997922,None,None,,409.4901315001771,nx8,402.61308770021424,406.1084150997922,409.4901315001771,None,False,5.0,['p'],False,0.27,0.3,0.1,1.0,2.0,0.7963326591781347,-0.0191201048580569,wait_cost,1.0,4.0,,,nx8,1,2022-05-05_14h42.09.553,threat_forest,2021.2.3,59.95171492593129,None,1.0,0.4833333333333333,0.46388888888888885,-0.7877777777777778,-0.9772222222222222,0,0,0,,-0.0191201048580569,0.27,0.27,0.3,0.9,-1.1,-1.02,3.98,3.98,0.0,2.0,-1.0,5.0,0,0,0
10.0,0.0,10.0,0.0,1.0,0.0,1.0,0.0,,,,left,1.4938809000886977,415.1148403999396,nx8,415.1148403999396,None,412.517168099992,414.5201848000288,True,4.0,['p'],True,0.4444444444444445,0.6666666666666666,0.3333333333333333,1.0,2.0,0.9656336071428248,0.0961310158918639,unsucc_cost,0.0,2.0,414.5201848000288,None,nx8,1,2022-05-05_14h42.09.553,threat_forest,2021.2.3,59.95171492593129,True,1.0,0.4833333333333333,0.46388888888888885,-0.7877777777777778,-0.9772222222222222,1,0,1,0.4013773647167791,0.0961310158918639,0.4444444444444445,0.4444444444444445,0.6666666666666666,0.6666666666666667,-0.3333333333333335,-0.5555555555555556,3.4444444444444446,3.4444444444444446,1.0,2.0,-1.0,4.0,0,0,1
10.0,0.0,10.0,0.0,2.0,0.0,2.0,0.0,,,,right,1.299947699997574,422.1683570998721,nx8,416.63262660009786,418.6475661001168,422.1683570998721,None,True,2.0,['p'],False,0.27,0.3,0.1,1.0,2.0,0.7963326591781347,-0.0287709139908264,unsucc_cost,1.0,0.0,418.6475661001168,None,nx8,1,2022-05-05_14h42.09.553,threat_forest,2021.2.3,59.95171492593129,True,1.0,0.4833333333333333,0.46388888888888885,-0.7877777777777778,-0.9772222222222222,0,0,1,0.26232403288711503,-0.0287709139908264,0.27,0.27,0.3,0.9,-1.1,-1.02,0.98,0.98,0.0,2.0,-1.0,2.0,0,0,0
11.0,0.0,11.0,0.0,0.0,0.0,0.0,0.0,429.2873585000634,432.7843594001606,None,left,2.373129399958998,434.8220608001575,nx8,434.8220608001575,None,429.2873585000634,432.7843594001606,True,5.0,['p'],True,0.2592592592592592,0.3333333333333333,0.2222222222222222,2.0,2.0,0.9327883776363324,-0.0183254353837554,succ_gain,0.0,6.0,,,nx8,1,2022-05-05_14h42.09.553,threat_forest,2021.2.3,59.95171492593129,True,31.0,0.41666666666666663,0.44999999999999996,-0.9675925925925928,-0.8776851851851852,0,0,1,0.8642095060802717,-0.0183254353837554,0.2592592592592592,0.2592592592592592,0.3333333333333333,0.7777777777777778,-1.3333333333333335,-1.1851851851851856,3.8148148148148144,3.8148148148148144,1.0,2.0,-1.0,5.0,0,0,0
11.0,0.0,11.0,0.0,1.0,0.0,1.0,0.0,,,,left,1.2780198003165424,441.6340691000223,nx8,441.6340691000223,None,429.2873585000634,432.7843594001606,True,6.0,['p'],True,0.2592592592592592,0.3333333333333333,0.2222222222222222,2.0,2.0,0.9327883776363324,-0.0893559472090634,unsucc_cost,0.0,4.0,439.215949700214,None,nx8,1,2022-05-05_14h42.09.553,threat_forest,2021.2.3,59.95171492593129,True,31.0,0.41666666666666663,0.44999999999999996,-0.9675925925925928,-0.8776851851851852,0,0,1,0.2453118490407568,-0.0893559472090634,0.2592592592592592,0.2592592592592592,0.3333333333333333,0.7777777777777778,-1.3333333333333335,-1.1851851851851856,4.814814814814815,4.814814814814815,1.0,2.0,1.0,6.0,0,0,0
11.0,0.0,11.0,0.0,2.0,0.0,2.0,0.0,,,,None,,447.07945330021903,nx8,442.949603700079,444.9495275001973,447.07945330021903,None,False,4.0,['p'],False,0.375,0.5,0.25,1.0,2.0,0.9850568223215076,0.0892770475823541,wait_cost,1.0,3.0,444.9495275001973,None,nx8,1,2022-05-05_14h42.09.553,threat_forest,2021.2.3,59.95171492593129,None,31.0,0.41666666666666663,0.44999999999999996,-0.9675925925925928,-0.8776851851851852,1,0,0,,0.0892770475823541,0.375,0.375,0.5,0.75,-0.75,-0.75,3.25,3.25,0.0,2.0,-1.0,4.0,0,0,1
11.0,0.0,11.0,0.0,3.0,0.0,3.0,0.0,,,,left,1.047646400053054,453.9211650001817,nx8,453.9211650001817,None,450.0815531001426,452.0813207998872,True,3.0,['p'],True,0.2592592592592592,0.3333333333333333,0.2222222222222222,2.0,2.0,0.9327883776363324,-0.011359909344652,unsucc_cost,0.0,1.0,452.0813207998872,None,nx8,1,2022-05-05_14h42.09.553,threat_forest,2021.2.3,59.95171492593129,True,31.0,0.41666666666666663,0.44999999999999996,-0.9675925925925928,-0.8776851851851852,0,0,1,0.04654612443560679,-0.011359909344652,0.2592592592592592,0.2592592592592592,0.3333333333333333,0.7777777777777778,-1.3333333333333335,-1.1851851851851856,1.8148148148148144,1.8148148148148144,1.0,2.0,-1.0,3.0,0,0,0
11.0,0.0,11.0,0.0,4.0,0.0,4.0,0.0,,,,right,0.7454066998325288,459.2617544000968,nx8,454.99839060008526,456.99788889987394,459.2617544000968,None,True,1.0,['p'],False,0.375,0.5,0.25,1.0,2.0,0.9850568223215076,0.1720538355195473,succ_gain,1.0,3.0,456.99788889987394,None,nx8,1,2022-05-05_14h42.09.553,threat_forest,2021.2.3,59.95171492593129,True,31.0,0.41666666666666663,0.44999999999999996,-0.9675925925925928,-0.8776851851851852,1,0,1,-0.29382530373947546,0.1720538355195473,1.0,0.375,0.5,0.75,-0.75,-0.75,0.25,0.25,0.0,2.0,-1.0,1.0,1,0,1
11.0,0.0,11.0,0.0,5.0,0.0,5.0,0.0,,,,right,1.0255677998065948,463.3224367001094,nx8,454.99839060008526,456.99788889987394,463.3224367001094,None,True,3.0,['p'],False,0.375,0.5,0.25,1.0,2.0,0.9850568223215076,0.1478587962962964,succ_gain,1.0,5.0,462.0317528001033,None,nx8,1,2022-05-05_14h42.09.553,threat_forest,2021.2.3,59.95171492593129,True,31.0,0.41666666666666663,0.44999999999999996,-0.9675925925925928,-0.8776851851851852,1,0,1,0.025246410246962062,0.1478587962962964,0.375,0.375,0.5,0.75,-0.75,-0.75,2.25,2.25,0.0,2.0,1.0,3.0,0,0,1
11.0,0.0,11.0,0.0,6.0,0.0,6.0,0.0,,,,left,1.205674400087446,470.18968479987234,nx8,470.18968479987234,None,464.378847300075,466.38148850016296,True,5.0,['p'],True,0.2592592592592592,0.3333333333333333,0.2222222222222222,2.0,2.0,0.9327883776363324,0.0,unsucc_cost,0.0,3.0,466.38148850016296,None,nx8,1,2022-05-05_14h42.09.553,threat_forest,2021.2.3,59.95171492593129,True,31.0,0.41666666666666663,0.44999999999999996,-0.9675925925925928,-0.8776851851851852,0,0,1,0.18703907850918666,0.0,0.0,0.2592592592592592,0.3333333333333333,0.7777777777777778,-1.3333333333333335,-1.1851851851851856,3.8148148148148144,3.8148148148148144,1.0,2.0,1.0,5.0,0,0,0
11.0,0.0,11.0,0.0,7.0,0.0,7.0,0.0,,,,right,1.550724699627608,476.7298379000276,nx8,471.4155099000782,473.41507339989766,476.7298379000276,None,True,3.0,['p'],False,0.375,0.5,0.25,1.0,2.0,0.9850568223215076,-0.25,succ_gain,1.0,5.0,473.41507339989766,None,nx8,1,2022-05-05_14h42.09.553,threat_forest,2021.2.3,59.95171492593129,True,31.0,0.41666666666666663,0.44999999999999996,-0.9675925925925928,-0.8776851851851852,1,0,1,0.43872236981142126,-0.25,0.0,0.375,0.5,0.75,-0.75,-0.75,2.25,2.25,0.0,2.0,-1.0,3.0,0,0,1
12.0,0.0,12.0,0.0,0.0,0.0,0.0,0.0,482.7797205001116,486.2714014998637,None,right,0.9636399000883102,488.0009182998911,nx8,482.7797205001116,486.2714014998637,488.0009182998911,None,True,5.0,['p'],False,0.48,0.6,0.2,1.0,1.0,0.9455672104350704,0.0603064788559827,succ_gain,1.0,6.0,,,nx8,1,2022-05-05_14h42.09.553,threat_forest,2021.2.3,59.95171492593129,True,4.0,0.4666666666666667,0.44166666666666665,-0.9911111111111113,-0.979351851851852,1,1,1,-0.0370376017841197,0.0603064788559827,0.48,0.48,0.6,0.8,-0.8000000000000002,-0.7600000000000002,4.24,4.24,0.0,1.0,1.0,5.0,0,1,1
12.0,0.0,12.0,0.0,1.0,0.0,1.0,0.0,,,,left,1.5258508999831977,491.9779501999728,nx8,491.9779501999728,None,488.9969647000544,490.99880089983344,True,6.0,['p'],True,0.2962962962962963,0.3333333333333333,0.1111111111111111,1.0,1.0,0.8325252476189534,-0.1377614848417467,succ_gain,0.0,6.0,490.99880089983344,None,nx8,1,2022-05-05_14h42.09.553,threat_forest,2021.2.3,59.95171492593129,True,4.0,0.4666666666666667,0.44166666666666665,-0.9911111111111113,-0.979351851851852,0,0,1,0.42255222165565176,-0.1377614848417467,0.2962962962962963,0.2962962962962963,0.3333333333333333,0.8888888888888888,-1.3333333333333335,-1.2222222222222223,4.777777777777778,4.777777777777778,1.0,1.0,1.0,6.0,0,0,0
12.0,0.0,12.0,0.0,2.0,0.0,2.0,0.0,,,,right,1.035104500129819,497.5168608999811,nx8,493.5324686001986,495.53200640017167,497.5168608999811,None,True,6.0,['p'],False,0.48,0.6,0.2,1.0,1.0,0.9455672104350704,0.0681665301198575,figh_cost,1.0,3.0,495.53200640017167,None,nx8,1,2022-05-05_14h42.09.553,threat_forest,2021.2.3,59.95171492593129,True,4.0,0.4666666666666667,0.44166666666666665,-0.9911111111111113,-0.979351851851852,1,1,1,0.03450238792958147,0.0681665301198575,0.48,0.48,0.6,0.8,-0.8000000000000002,-0.7600000000000002,5.24,5.24,0.0,1.0,-1.0,6.0,0,1,1
12.0,0.0,12.0,0.0,3.0,0.0,3.0,0.0,,,,left,1.343249199911952,502.37680200021714,nx8,493.5324686001986,495.53200640017167,502.37680200021714,None,False,3.0,['p'],False,0.48,0.6,0.2,1.0,1.0,0.9455672104350704,0.1279737971650663,wait_cost,1.0,2.0,500.5820555998944,None,nx8,1,2022-05-05_14h42.09.553,threat_forest,2021.2.3,59.95171492593129,False,4.0,0.4666666666666667,0.44166666666666665,-0.9911111111111113,-0.979351851851852,1,1,0,0.2950914549906231,0.1279737971650663,0.48,0.48,0.6,0.8,-0.8000000000000002,-0.7600000000000002,2.2399999999999998,2.2399999999999998,0.0,1.0,-1.0,3.0,0,1,1
12.0,0.0,12.0,0.0,4.0,0.0,4.0,0.0,,,,right,1.4484385000541806,508.55720889987424,nx8,493.5324686001986,495.53200640017167,508.55720889987424,None,True,2.0,['p'],False,0.48,0.6,0.2,1.0,1.0,0.9455672104350704,0.1028391330589849,unsucc_cost,1.0,0.0,505.748850800097,None,nx8,1,2022-05-05_14h42.09.553,threat_forest,2021.2.3,59.95171492593129,True,4.0,0.4666666666666667,0.44166666666666665,-0.9911111111111113,-0.979351851851852,1,1,1,0.3704860796484425,0.1028391330589849,0.48,0.48,0.6,0.8,-0.8000000000000002,-0.7600000000000002,1.2399999999999998,1.2399999999999998,0.0,1.0,-1.0,2.0,0,1,1
13.0,0.0,13.0,0.0,0.0,0.0,0.0,0.0,515.6649691001512,519.183815299999,None,right,0.8107714997604489,519.9596235002391,nx8,515.6649691001512,519.183815299999,519.9596235002391,None,True,5.0,['p'],False,0.16,0.2,0.2,2.0,2.0,0.8198746470064713,-0.0083567608970359,succ_gain,1.0,6.0,,,nx8,1,2022-05-05_14h42.09.553,threat_forest,2021.2.3,59.95171492593129,True,63.0,0.26666666666666666,0.3666666666666667,-1.5022222222222226,-1.246666666666667,0,0,1,-0.20976901578621784,-0.0083567608970359,0.16,0.16,0.2,0.8,-1.8000000000000003,-1.5600000000000003,3.4399999999999995,3.4399999999999995,0.0,2.0,-1.0,5.0,0,0,0
13.0,0.0,13.0,0.0,1.0,0.0,1.0,0.0,,,,left,0.8336451002396643,523.9372837999836,nx8,523.9372837999836,None,520.8149136998691,522.8091370002367,True,6.0,['p'],True,0.2222222222222222,0.3333333333333333,0.3333333333333333,2.0,2.0,0.9656336071428248,-0.091241777442147,succ_gain,0.0,6.0,522.8091370002367,None,nx8,1,2022-05-05_14h42.09.553,threat_forest,2021.2.3,59.95171492593129,True,63.0,0.26666666666666666,0.3666666666666667,-1.5022222222222226,-1.246666666666667,0,0,1,-0.18194750647190244,-0.091241777442147,0.2222222222222222,0.2222222222222222,0.3333333333333333,0.6666666666666667,-1.666666666666667,-1.4444444444444446,4.555555555555555,4.555555555555555,1.0,2.0,1.0,6.0,0,0,0
13.0,0.0,13.0,0.0,2.0,0.0,2.0,0.0,,,,right,1.357210900168866,529.6093160999008,nx8,524.8024447998032,526.8012200999074,529.6093160999008,None,True,6.0,['p'],False,0.16,0.2,0.2,2.0,2.0,0.8198746470064713,0.0030000271470811,unsucc_cost,1.0,4.0,526.8012200999074,None,nx8,1,2022-05-05_14h42.09.553,threat_forest,2021.2.3,59.95171492593129,True,63.0,0.26666666666666666,0.3666666666666667,-1.5022222222222226,-1.246666666666667,0,0,1,0.3054317852608989,0.0030000271470811,0.16,0.16,0.2,0.8,-1.8000000000000003,-1.5600000000000003,4.4399999999999995,4.4399999999999995,0.0,2.0,-1.0,6.0,0,0,0
13.0,0.0,13.0,0.0,3.0,0.0,3.0,0.0,,,,left,0.9611814999952912,534.2011732999235,nx8,524.8024447998032,526.8012200999074,534.2011732999235,None,False,4.0,['p'],False,0.16,0.2,0.2,2.0,2.0,0.8198746470064713,0.0087963215363511,wait_cost,1.0,3.0,533.0010346998461,None,nx8,1,2022-05-05_14h42.09.553,threat_forest,2021.2.3,59.95171492593129,False,63.0,0.26666666666666666,0.3666666666666667,-1.5022222222222226,-1.246666666666667,0,0,0,-0.03959202208480844,0.0087963215363511,0.16,0.16,0.2,0.8,-1.8000000000000003,-1.5600000000000003,2.4399999999999995,2.4399999999999995,0.0,2.0,-1.0,4.0,0,0,0
13.0,0.0,13.0,0.0,4.0,0.0,4.0,0.0,,,,right,1.0731303002685308,538.1833307999186,nx8,538.1833307999186,None,535.1829224000685,537.1824830002151,False,3.0,['p'],True,0.2222222222222222,0.3333333333333333,0.3333333333333333,2.0,2.0,0.9656336071428248,0.1004938271604938,wait_cost,0.0,2.0,537.1824830002151,None,nx8,1,2022-05-05_14h42.09.553,threat_forest,2021.2.3,59.95171492593129,False,63.0,0.26666666666666666,0.3666666666666667,-1.5022222222222226,-1.246666666666667,0,0,0,0.07057989175446407,0.1004938271604938,0.2222222222222222,0.2222222222222222,0.3333333333333333,0.6666666666666667,-1.666666666666667,-1.4444444444444446,1.5555555555555554,1.5555555555555554,1.0,2.0,-1.0,3.0,0,0,0
13.0,0.0,13.0,0.0,5.0,0.0,5.0,0.0,,,,right,1.326520100235939,541.9203236000612,nx8,539.2829872998409,541.2826307001524,541.9203236000612,None,True,2.0,['p'],False,0.16,0.2,0.2,2.0,2.0,0.8198746470064713,-0.031111111111111,unsucc_cost,1.0,0.0,541.2826307001524,None,nx8,1,2022-05-05_14h42.09.553,threat_forest,2021.2.3,59.95171492593129,True,63.0,0.26666666666666666,0.3666666666666667,-1.5022222222222226,-1.246666666666667,0,0,1,0.2825590473160891,-0.031111111111111,0.16,0.16,0.2,0.8,-1.8000000000000003,-1.5600000000000003,0.4399999999999997,0.4399999999999997,0.0,2.0,-1.0,2.0,0,0,0
14.0,0.0,14.0,0.0,0.0,0.0,0.0,0.0,546.6636206000112,550.1659359000623,None,right,1.12788480008021,551.8651403002441,nx8,546.6636206000112,550.1659359000623,551.8651403002441,None,True,4.0,['r'],False,0.2222222222222222,0.6666666666666666,0.6666666666666666,2.0,2.0,0.77250688571426,-0.0834227138822206,figh_cost,1.0,1.0,,,nx8,1,2022-05-05_14h42.09.553,threat_forest,2021.2.3,59.95171492593129,True,49.0,0.5833333333333333,0.42499999999999993,-0.888888888888889,-1.1955555555555557,0,0,1,0.12034402027202357,-0.0834227138822206,0.2222222222222222,0.2222222222222222,0.6666666666666666,0.33333333333333337,-1.3333333333333335,-1.777777777777778,2.2222222222222223,2.2222222222222223,0.0,2.0,-1.0,4.0,0,0,0
14.0,0.0,14.0,0.0,1.0,0.0,1.0,0.0,,,,right,0.932046300265938,556.1571185998619,nx8,546.6636206000112,550.1659359000623,556.1571185998619,None,True,1.0,['r'],False,0.2222222222222222,0.6666666666666666,0.6666666666666666,2.0,2.0,0.77250688571426,0.0791966735253772,figh_cost,1.0,0.0,555.0328595000319,None,nx8,1,2022-05-05_14h42.09.553,threat_forest,2021.2.3,59.95171492593129,True,49.0,0.5833333333333333,0.42499999999999993,-0.888888888888889,-1.1955555555555557,0,0,1,-0.07037278713354733,0.0791966735253772,1.0,0.2222222222222222,0.6666666666666666,0.33333333333333337,-1.3333333333333335,-1.777777777777778,-0.7777777777777779,0.0,0.0,2.0,-1.0,1.0,1,0,0
15.0,0.0,15.0,0.0,0.0,0.0,0.0,0.0,560.6652913000435,564.1723385001533,None,left,1.905987299978733,566.1259348001331,nx8,566.1259348001331,None,560.6652913000435,564.1723385001533,True,5.0,['r'],True,0.24,0.3,0.2,2.0,2.0,0.9003120349047065,-0.0006443703968158,unsucc_cost,0.0,3.0,,,nx8,1,2022-05-05_14h42.09.553,threat_forest,2021.2.3,59.95171492593129,True,55.0,0.2928571428571428,0.43809523809523804,-1.0485714285714285,-0.9687301587301587,0,0,1,0.6450001420297132,-0.0006443703968158,0.24,0.24,0.3,0.8,-1.4,-1.24,3.76,3.76,1.0,2.0,-1.0,5.0,0,0,0
15.0,0.0,15.0,0.0,1.0,0.0,1.0,0.0,,,,right,1.6905494001694024,573.603798400145,nx8,568.0527289998718,570.0665326002054,573.603798400145,None,True,3.0,['r'],False,0.2857142857142857,0.2857142857142857,0.0,0.0,2.0,0.5445684476282007,0.0813189773311461,unsucc_cost,1.0,1.0,570.0665326002054,None,nx8,1,2022-05-05_14h42.09.553,threat_forest,2021.2.3,59.95171492593129,True,55.0,0.2928571428571428,0.43809523809523804,-1.0485714285714285,-0.9687301587301587,1,0,1,0.5250535649626833,0.0813189773311461,0.2857142857142857,0.2857142857142857,0.2857142857142857,1.0,-0.8571428571428572,-0.8571428571428572,2.142857142857143,2.142857142857143,0.0,2.0,-1.0,3.0,0,0,1
15.0,0.0,15.0,0.0,2.0,0.0,2.0,0.0,,,,right,1.4258556999266148,580.6582843000069,nx8,568.0527289998718,570.0665326002054,580.6582843000069,None,True,1.0,['r'],False,0.2857142857142857,0.2857142857142857,0.0,0.0,2.0,0.5445684476282007,0.0956938695733919,unsucc_cost,1.0,0.0,577.3165502999909,None,nx8,1,2022-05-05_14h42.09.553,threat_forest,2021.2.3,59.95171492593129,True,55.0,0.2928571428571428,0.43809523809523804,-1.0485714285714285,-0.9687301587301587,1,0,1,0.35477212467450353,0.0956938695733919,1.0,0.2857142857142857,0.2857142857142857,1.0,-0.8571428571428572,-0.8571428571428572,0.1428571428571428,0.1428571428571428,0.0,2.0,-1.0,1.0,1,0,1
16.0,0.0,16.0,0.0,0.0,0.0,0.0,0.0,587.4430056000128,590.937655699905,None,right,1.657883900217712,593.3204883001745,nx8,587.4430056000128,590.937655699905,593.3204883001745,None,True,5.0,['r'],False,0.4285714285714285,0.4285714285714285,0.0,0.0,2.0,0.6216097450797565,0.0526055132283747,succ_gain,1.0,6.0,,,nx8,1,2022-05-05_14h42.09.553,threat_forest,2021.2.3,59.95171492593129,True,52.0,0.43650793650793646,0.3646825396825396,-0.5626102292768962,-0.8055908289241623,1,1,1,0.5055420302671665,0.0526055132283747,0.4285714285714285,0.4285714285714285,0.4285714285714285,1.0,-0.28571428571428603,-0.28571428571428603,4.7142857142857135,4.7142857142857135,0.0,2.0,-1.0,5.0,0,1,1
16.0,0.0,16.0,0.0,1.0,0.0,1.0,0.0,,,,right,2.2937751999124885,597.611716600135,nx8,587.4430056000128,590.937655699905,597.611716600135,None,True,6.0,['r'],False,0.4285714285714285,0.4285714285714285,0.0,0.0,2.0,0.6216097450797565,-0.0377659661652755,succ_gain,1.0,6.0,597.0168046001345,None,nx8,1,2022-05-05_14h42.09.553,threat_forest,2021.2.3,59.95171492593129,True,52.0,0.43650793650793646,0.3646825396825396,-0.5626102292768962,-0.8055908289241623,1,1,1,0.8301990190982637,-0.0377659661652755,0.4285714285714285,0.4285714285714285,0.4285714285714285,1.0,-0.28571428571428603,-0.28571428571428603,5.7142857142857135,5.7142857142857135,0.0,2.0,1.0,6.0,0,1,1
16.0,0.0,16.0,0.0,2.0,0.0,2.0,0.0,,,,left,1.1964344000443816,604.0813255999237,nx8,587.4430056000128,590.937655699905,604.0813255999237,None,False,6.0,['r'],False,0.4285714285714285,0.4285714285714285,0.0,0.0,2.0,0.6216097450797565,0.0595614313946563,wait_cost,1.0,5.0,601.9334101001732,None,nx8,1,2022-05-05_14h42.09.553,threat_forest,2021.2.3,59.95171492593129,False,52.0,0.43650793650793646,0.3646825396825396,-0.5626102292768962,-0.8055908289241623,1,1,0,0.17934580032283637,0.0595614313946563,0.4285714285714285,0.4285714285714285,0.4285714285714285,1.0,-0.28571428571428603,-0.28571428571428603,5.7142857142857135,5.7142857142857135,0.0,2.0,-1.0,6.0,0,1,1
16.0,0.0,16.0,0.0,3.0,0.0,3.0,0.0,,,,right,1.259953500237316,610.6616564998403,nx8,587.4430056000128,590.937655699905,610.6616564998403,None,True,5.0,['r'],False,0.4285714285714285,0.4285714285714285,0.0,0.0,2.0,0.6216097450797565,0.1260005896669204,unsucc_cost,1.0,3.0,607.3168000997975,None,nx8,1,2022-05-05_14h42.09.553,threat_forest,2021.2.3,59.95171492593129,True,52.0,0.43650793650793646,0.3646825396825396,-0.5626102292768962,-0.8055908289241623,1,1,1,0.23107481570883728,0.1260005896669204,0.4285714285714285,0.4285714285714285,0.4285714285714285,1.0,-0.28571428571428603,-0.28571428571428603,4.7142857142857135,4.7142857142857135,0.0,2.0,-1.0,5.0,0,1,1
16.0,0.0,16.0,0.0,4.0,0.0,4.0,0.0,,,,right,1.378260999917984,615.9904097002,nx8,615.9904097002,None,611.9506447999738,613.9503370001912,False,3.0,['r'],True,0.345679012345679,0.4444444444444444,0.2222222222222222,2.0,2.0,0.9685033186841367,0.105107017658458,wait_cost,0.0,2.0,613.9503370001912,None,nx8,1,2022-05-05_14h42.09.553,threat_forest,2021.2.3,59.95171492593129,False,52.0,0.43650793650793646,0.3646825396825396,-0.5626102292768962,-0.8055908289241623,0,0,0,0.3208225595317979,0.105107017658458,0.345679012345679,0.345679012345679,0.4444444444444444,0.7777777777777778,-0.888888888888889,-0.8395061728395062,2.1604938271604937,2.1604938271604937,1.0,2.0,-1.0,3.0,0,0,0
16.0,0.0,16.0,0.0,5.0,0.0,5.0,0.0,,,,right,1.409413699992001,623.0024151001126,nx8,617.3924993001856,619.3916309000924,623.0024151001126,None,True,2.0,['r'],False,0.4285714285714285,0.4285714285714285,0.0,0.0,2.0,0.6216097450797565,0.0414462081128746,unsucc_cost,1.0,0.0,619.3916309000924,None,nx8,1,2022-05-05_14h42.09.553,threat_forest,2021.2.3,59.95171492593129,True,52.0,0.43650793650793646,0.3646825396825396,-0.5626102292768962,-0.8055908289241623,1,1,1,0.3431738023062842,0.0414462081128746,0.4285714285714285,0.4285714285714285,0.4285714285714285,1.0,-0.28571428571428603,-0.28571428571428603,1.714285714285714,1.714285714285714,0.0,2.0,-1.0,2.0,0,1,1
17.0,0.0,17.0,0.0,0.0,0.0,0.0,0.0,629.8541470998898,633.3455551001243,None,left,1.2943056002259254,635.9219821002334,nx8,635.9219821002334,None,629.8541470998898,633.3455551001243,True,4.0,['p'],True,0.2040816326530612,0.2857142857142857,0.2857142857142857,2.0,2.0,0.9335459102197724,-0.0053173066993206,unsucc_cost,0.0,2.0,,,nx8,1,2022-05-05_14h42.09.553,threat_forest,2021.2.3,59.95171492593129,True,21.0,0.47619047619047616,0.4563492063492063,-1.012471655328798,-0.7875409423028471,0,0,1,0.25797433529450997,-0.0053173066993206,0.2040816326530612,0.2040816326530612,0.2857142857142857,0.7142857142857143,-1.7142857142857144,-1.4693877551020407,2.5306122448979593,2.5306122448979593,1.0,2.0,-1.0,4.0,0,0,0
17.0,0.0,17.0,0.0,1.0,0.0,1.0,0.0,,,,left,1.4744462999515235,641.4787077000365,nx8,641.4787077000365,None,629.8541470998898,633.3455551001243,True,2.0,['p'],True,0.2040816326530612,0.2857142857142857,0.2857142857142857,2.0,2.0,0.9335459102197724,-0.0408706459445926,unsucc_cost,0.0,0.0,639.250831999816,None,nx8,1,2022-05-05_14h42.09.553,threat_forest,2021.2.3,59.95171492593129,True,21.0,0.47619047619047616,0.4563492063492063,-1.012471655328798,-0.7875409423028471,0,0,1,0.38828252945199654,-0.0408706459445926,0.2040816326530612,0.2040816326530612,0.2857142857142857,0.7142857142857143,-1.7142857142857144,-1.4693877551020407,0.5306122448979593,0.5306122448979593,1.0,2.0,-1.0,2.0,0,0,0
0.0,0.0,0.0,0.0,0.0,0.0,0.0,0.0,25.1335360002704,28.64868300035596,None,left,1.5654528001323342,29.218030800111592,nx8,29.218030800111592,None,25.1335360002704,28.64868300035596,True,5.0,['r'],True,0.4444444444444445,0.6666666666666666,0.3333333333333333,1.0,2.0,0.9656336071428248,0.0253010211857948,fight_cost,0.0,2.0,,,nx8,2,2022-05-05_14h53.09.351,threat_forest,2021.2.3,59.995164422770365,True,25.0,0.4444444444444444,0.4603174603174603,-0.8333333333333334,-0.9229024943310657,1,0,1,0.4481751113025484,0.0253010211857948,0.4444444444444445,0.4444444444444445,0.6666666666666666,0.6666666666666667,-0.3333333333333335,-0.5555555555555556,4.444444444444445,4.444444444444445,1.0,2.0,-1.0,5.0,0,0,1
0.0,0.0,0.0,0.0,1.0,0.0,1.0,0.0,,,,right,0.8809342002496123,36.60178170027211,nx8,30.81176650011912,32.81174830021337,36.60178170027211,None,True,2.0,['r'],False,0.2222222222222222,0.2222222222222222,0.0,0.0,2.0,0.4821593609696809,-0.035893918609968,unsucc_cost,1.0,0.0,32.81174830021337,None,nx8,2,2022-05-05_14h53.09.351,threat_forest,2021.2.3,59.995164422770365,True,25.0,0.4444444444444444,0.4603174603174603,-0.8333333333333334,-0.9229024943310657,0,0,1,-0.12677234340659524,-0.035893918609968,0.2222222222222222,0.2222222222222222,0.2222222222222222,1.0,-1.1111111111111112,-1.1111111111111112,0.8888888888888888,0.8888888888888888,0.0,2.0,-1.0,2.0,0,0,0
1.0,0.0,1.0,0.0,0.0,0.0,0.0,0.0,42.05964140035212,45.550660100299865,None,right,1.5411286000162363,46.512179099954665,nx8,42.05964140035212,45.550660100299865,46.512179099954665,None,True,5.0,['p'],False,0.375,0.5,0.25,1.0,1.0,0.9850568223215076,0.0363579936230754,succ_gain,1.0,6.0,,,nx8,2,2022-05-05_14h53.09.351,threat_forest,2021.2.3,59.995164422770365,True,3.0,0.35,0.3972222222222222,-1.4225000000000003,-1.127916666666667,1,0,1,0.43251500517026314,0.0363579936230754,0.375,0.375,0.5,0.75,-1.25,-1.125,3.875,3.875,0.0,1.0,-1.0,5.0,0,0,1
1.0,0.0,1.0,0.0,1.0,0.0,1.0,0.0,,,,right,1.0283724004402757,51.2241150001064,nx8,42.05964140035212,45.550660100299865,51.2241150001064,None,True,6.0,['p'],False,0.375,0.5,0.25,1.0,1.0,0.9850568223215076,-0.1236164205474853,unsucc_cost,1.0,4.0,50.07861000020057,None,nx8,2,2022-05-05_14h53.09.351,threat_forest,2021.2.3,59.995164422770365,True,3.0,0.35,0.3972222222222222,-1.4225000000000003,-1.127916666666667,1,0,1,0.027977358671284577,-0.1236164205474853,0.375,0.375,0.5,0.75,-1.25,-1.125,4.875,4.875,0.0,1.0,1.0,6.0,0,0,1
1.0,0.0,1.0,0.0,2.0,0.0,2.0,0.0,,,,right,2.467406600248069,55.37690890021622,nx8,55.37690890021622,None,52.279096600133926,54.2786926003173,False,4.0,['p'],True,0.16,0.2,0.2,2.0,1.0,0.8198746470064713,-0.0090311332031252,wait_cost,0.0,3.0,54.2786926003173,None,nx8,2,2022-05-05_14h53.09.351,threat_forest,2021.2.3,59.995164422770365,False,3.0,0.35,0.3972222222222222,-1.4225000000000003,-1.127916666666667,0,0,0,0.903167639632629,-0.0090311332031252,0.16,0.16,0.2,0.8,-2.0,-1.7200000000000004,2.2799999999999994,2.2799999999999994,1.0,1.0,-1.0,4.0,0,0,0
1.0,0.0,1.0,0.0,3.0,0.0,3.0,0.0,,,,None,,61.28367210039869,nx8,57.89069470018149,59.8804977000691,61.28367210039869,None,False,3.0,['p'],False,0.375,0.5,0.25,1.0,1.0,0.9850568223215076,0.086186767578125,wait_cost,1.0,2.0,59.8804977000691,None,nx8,2,2022-05-05_14h53.09.351,threat_forest,2021.2.3,59.995164422770365,None,3.0,0.35,0.3972222222222222,-1.4225000000000003,-1.127916666666667,1,0,0,,0.086186767578125,0.375,0.375,0.5,0.75,-1.25,-1.125,1.875,1.875,0.0,1.0,-1.0,3.0,0,0,1
1.0,0.0,1.0,0.0,4.0,0.0,4.0,0.0,,,,right,1.3210983998142185,68.62543420027941,nx8,68.62543420027941,None,64.29575930023566,66.29540120018646,False,2.0,['p'],True,0.16,0.2,0.2,2.0,1.0,0.8198746470064713,-0.0214133749999999,wait_cost,0.0,1.0,66.29540120018646,None,nx8,2,2022-05-05_14h53.09.351,threat_forest,2021.2.3,59.995164422770365,False,3.0,0.35,0.3972222222222222,-1.4225000000000003,-1.127916666666667,0,0,0,0.27846351164885924,-0.0214133749999999,0.16,0.16,0.2,0.8,-2.0,-1.7200000000000004,0.2799999999999996,0.2799999999999996,1.0,1.0,-1.0,2.0,0,0,0
1.0,0.0,1.0,0.0,5.0,0.0,5.0,0.0,,,,left,1.8886911999434235,75.00001780036837,nx8,75.00001780036837,None,64.29575930023566,66.29540120018646,True,1.0,['p'],True,0.16,0.2,0.2,2.0,1.0,0.8198746470064713,0.0513999999999998,fight_cost,0.0,0.0,71.99539640033618,None,nx8,2,2022-05-05_14h53.09.351,threat_forest,2021.2.3,59.995164422770365,True,3.0,0.35,0.3972222222222222,-1.4225000000000003,-1.127916666666667,0,0,1,0.6358841023893951,0.0513999999999998,1.0,0.16,0.2,0.8,-2.0,-1.7200000000000004,-0.7200000000000004,0.0,1.0,1.0,-1.0,1.0,1,0,0
2.0,0.0,2.0,0.0,0.0,0.0,0.0,0.0,81.9795310003683,85.49096410023049,None,left,2.2198310997337103,87.24887600028887,nx8,81.9795310003683,85.49096410023049,87.24887600028887,None,False,5.0,['p'],False,0.24,0.4,0.4,2.0,1.0,0.9801625908629508,-0.0104347549751131,wait_cost,1.0,4.0,,,nx8,2,2022-05-05_14h53.09.351,threat_forest,2021.2.3,59.995164422770365,False,28.0,0.3666666666666667,0.35833333333333334,-1.3400000000000003,-1.3812500000000003,0,0,0,0.7974311117888353,-0.0104347549751131,0.24,0.24,0.4,0.6,-2.0,-1.6800000000000002,3.32,3.32,0.0,1.0,-1.0,5.0,0,0,0
2.0,0.0,2.0,0.0,1.0,0.0,1.0,0.0,,,,right,1.0811785999685526,92.27327940007672,nx8,81.9795310003683,85.49096410023049,92.27327940007672,None,True,4.0,['p'],False,0.24,0.4,0.4,2.0,1.0,0.9801625908629508,0.0034755885168724,fight_cost,1.0,1.0,91.51244379999116,None,nx8,2,2022-05-05_14h53.09.351,threat_forest,2021.2.3,59.995164422770365,True,28.0,0.3666666666666667,0.35833333333333334,-1.3400000000000003,-1.3812500000000003,0,0,1,0.07805174237239926,0.0034755885168724,0.24,0.24,0.4,0.6,-2.0,-1.6800000000000002,2.32,2.32,0.0,1.0,-1.0,4.0,0,0,0
2.0,0.0,2.0,0.0,2.0,0.0,2.0,0.0,,,,right,1.8188897999934848,96.60835670027882,nx8,96.60835670027882,None,93.38830840028822,95.39577640034258,False,1.0,['p'],True,0.3333333333333333,0.3333333333333333,0.0,0.0,1.0,0.5793801642856949,0.0343271604938271,wait_cost,0.0,0.0,95.39577640034258,None,nx8,2,2022-05-05_14h53.09.351,threat_forest,2021.2.3,59.995164422770365,False,28.0,0.3666666666666667,0.35833333333333334,-1.3400000000000003,-1.3812500000000003,1,0,0,0.598226314959427,0.0343271604938271,1.0,0.3333333333333333,0.3333333333333333,1.0,-1.0000000000000002,-1.0000000000000002,-2.220446049250313e-16,0.0,1.0,1.0,-1.0,1.0,1,0,1
3.0,0.0,3.0,0.0,0.0,0.0,0.0,0.0,103.30269920034334,106.79747080011292,None,left,1.3427594997920096,107.653949000407,nx8,107.653949000407,None,103.30269920034334,106.79747080011293,True,4.0,['r'],True,0.1728395061728395,0.2222222222222222,0.2222222222222222,2.0,2.0,0.8571721972794328,-0.0108631914718901,unsucc_cost,0.0,2.0,,,nx8,2,2022-05-05_14h53.09.351,threat_forest,2021.2.3,59.995164422770365,True,59.0,0.3611111111111111,0.36388888888888893,-1.1404320987654322,-1.2402160493827163,0,0,1,0.2947268246560884,-0.0108631914718901,0.1728395061728395,0.1728395061728395,0.2222222222222222,0.7777777777777778,-1.7777777777777777,-1.5308641975308643,2.4691358024691357,2.4691358024691357,1.0,2.0,-1.0,4.0,0,0,0
3.0,0.0,3.0,0.0,1.0,0.0,1.0,0.0,,,,left,1.0841884999535978,114.3318566000089,nx8,114.3318566000089,None,103.30269920034334,106.79747080011293,True,2.0,['r'],True,0.1728395061728395,0.2222222222222222,0.2222222222222222,2.0,2.0,0.8571721972794328,-0.0298469984512649,unsucc_cost,0.0,0.0,111.02470110030843,None,nx8,2,2022-05-05_14h53.09.351,threat_forest,2021.2.3,59.995164422770365,True,59.0,0.3611111111111111,0.36388888888888893,-1.1404320987654322,-1.2402160493827163,0,0,1,0.08083178084595206,-0.0298469984512649,0.1728395061728395,0.1728395061728395,0.2222222222222222,0.7777777777777778,-1.7777777777777777,-1.5308641975308643,0.46913580246913567,0.46913580246913567,1.0,2.0,-1.0,2.0,0,0,0
4.0,0.0,4.0,0.0,0.0,0.0,0.0,0.0,119.99901919998229,123.51089410018176,None,left,0.9477558000944556,124.05069170007482,nx8,124.05069170007482,None,119.99901919998229,123.51089410018176,True,4.0,['r'],True,0.2777777777777778,0.3333333333333333,0.1666666666666666,1.0,2.0,0.8929352898779304,0.0216341378184502,unsucc_cost,0.0,2.0,,,nx8,2,2022-05-05_14h53.09.351,threat_forest,2021.2.3,59.995164422770365,True,37.0,0.26666666666666666,0.3138888888888889,-1.1277777777777778,-1.134104938271605,1,0,1,-0.05365840474743613,0.0216341378184502,0.2777777777777778,0.2777777777777778,0.3333333333333333,0.8333333333333334,-1.1666666666666665,-1.0555555555555556,2.9444444444444446,2.9444444444444446,1.0,2.0,-1.0,4.0,0,0,1
4.0,0.0,4.0,0.0,1.0,0.0,1.0,0.0,,,,right,0.9842404001392424,130.3839134001173,nx8,125.03395309997724,127.04643040010706,130.3839134001173,None,True,2.0,['r'],False,0.2,0.2,0.0,0.0,2.0,0.4554859150035951,-0.0068111376780299,unsucc_cost,1.0,0.0,127.04643040010706,None,nx8,2,2022-05-05_14h53.09.351,threat_forest,2021.2.3,59.995164422770365,True,37.0,0.26666666666666666,0.3138888888888889,-1.1277777777777778,-1.134104938271605,0,0,1,-0.015885102683892295,-0.0068111376780299,0.2,0.2,0.2,1.0,-1.2000000000000002,-1.2000000000000002,0.7999999999999998,0.7999999999999998,0.0,2.0,-1.0,2.0,0,0,0
5.0,0.0,5.0,0.0,0.0,0.0,0.0,0.0,136.3336527002975,139.84635480027646,None,right,1.4169942000880835,142.06206430029124,nx8,136.3336527002975,139.84635480027646,142.06206430029124,None,True,5.0,['r'],False,0.25,0.25,0.0,0.0,1.0,0.5118595071429148,0.0161331298904485,unsucc_cost,1.0,3.0,,,nx8,2,2022-05-05_14h53.09.351,threat_forest,2021.2.3,59.995164422770365,True,20.0,0.4583333333333333,0.3625,-1.625,-1.3763888888888889,1,0,1,0.3485378676077768,0.0161331298904485,0.25,0.25,0.25,1.0,-1.25,-1.25,3.75,3.75,0.0,1.0,-1.0,5.0,0,0,1
5.0,0.0,5.0,0.0,1.0,0.0,1.0,0.0,,,,right,2.176922999788076,149.17790200002491,nx8,149.17790200002491,None,143.49660970037803,145.49647659994662,False,3.0,['r'],True,0.2222222222222222,0.6666666666666666,0.6666666666666666,2.0,1.0,0.77250688571426,0.0040941517969483,wait_cost,0.0,2.0,145.49647659994662,None,nx8,2,2022-05-05_14h53.09.351,threat_forest,2021.2.3,59.995164422770365,False,20.0,0.4583333333333333,0.3625,-1.625,-1.3763888888888889,0,0,0,0.7779124117546153,0.0040941517969483,0.2222222222222222,0.2222222222222222,0.6666666666666666,0.33333333333333337,-2.0,-2.0,1.0,1.0,1.0,1.0,-1.0,3.0,0,0,0
5.0,0.0,5.0,0.0,2.0,0.0,2.0,0.0,,,,right,1.6056309998966751,154.84188710013404,nx8,151.38488720031455,153.39651100011542,154.84188710013404,None,True,2.0,['r'],False,0.25,0.25,0.0,0.0,1.0,0.5118595071429148,0.0100745497780444,unsucc_cost,1.0,0.0,153.39651100011542,None,nx8,2,2022-05-05_14h53.09.351,threat_forest,2021.2.3,59.995164422770365,True,20.0,0.4583333333333333,0.3625,-1.625,-1.3763888888888889,1,0,1,0.4735168256732698,0.0100745497780444,0.25,0.25,0.25,1.0,-1.25,-1.25,0.75,0.75,0.0,1.0,-1.0,2.0,0,0,1
6.0,0.0,6.0,0.0,0.0,0.0,0.0,0.0,161.88700610026717,165.3969248002395,None,left,1.4616918000392616,168.93686769995838,nx8,168.93686769995838,None,161.88700610026717,165.3969248002395,True,5.0,['p'],True,0.4081632653061224,0.5714285714285714,0.2857142857142857,2.0,1.0,0.9885754083994552,-0.0004231906775603,unsucc_cost,0.0,3.0,,,nx8,2,2022-05-05_14h53.09.351,threat_forest,2021.2.3,59.995164422770365,True,35.0,0.5357142857142857,0.49702380952380953,-0.7806122448979592,-1.2028061224489797,1,0,1,0.37959453201796123,-0.0004231906775603,0.4081632653061224,0.4081632653061224,0.5714285714285714,0.7142857142857143,-1.1428571428571428,-1.0612244897959184,3.9387755102040813,3.9387755102040813,1.0,1.0,-1.0,5.0,0,0,1
6.0,0.0,6.0,0.0,1.0,0.0,1.0,0.0,,,,left,1.0015019997954369,175.49745819997042,nx8,175.49745819997042,None,161.88700610026717,165.3969248002395,True,3.0,['p'],True,0.4081632653061224,0.5714285714285714,0.2857142857142857,2.0,1.0,0.9885754083994552,0.0362058160775727,unsucc_cost,0.0,1.0,172.43012720020488,None,nx8,2,2022-05-05_14h53.09.351,threat_forest,2021.2.3,59.995164422770365,True,35.0,0.5357142857142857,0.49702380952380953,-0.7806122448979592,-1.2028061224489797,1,0,1,0.0015008729219787933,0.0362058160775727,0.4081632653061224,0.4081632653061224,0.5714285714285714,0.7142857142857143,-1.1428571428571428,-1.0612244897959184,1.9387755102040816,1.9387755102040816,1.0,1.0,-1.0,3.0,0,0,1
6.0,0.0,6.0,0.0,2.0,0.0,2.0,0.0,,,,left,0.66504509979859,180.02454220037907,nx8,180.02454220037907,None,161.88700610026717,165.3969248002395,True,1.0,['p'],True,0.4081632653061224,0.5714285714285714,0.2857142857142857,2.0,1.0,0.9885754083994552,0.1005789475105038,unsucc_cost,0.0,0.0,178.53024050034583,None,nx8,2,2022-05-05_14h53.09.351,threat_forest,2021.2.3,59.995164422770365,True,35.0,0.5357142857142857,0.49702380952380953,-0.7806122448979592,-1.2028061224489797,1,0,1,-0.40790042137990407,0.1005789475105038,1.0,0.4081632653061224,0.5714285714285714,0.7142857142857143,-1.1428571428571428,-1.0612244897959184,-0.061224489795918435,0.0,1.0,1.0,-1.0,1.0,1,0,1
7.0,0.0,7.0,0.0,0.0,0.0,0.0,0.0,183.4798655002378,186.9867638000287,None,right,0.90532479993999,188.5128456000239,nx8,183.4798655002378,186.9867638000287,188.5128456000239,None,True,5.0,['r'],False,0.6,0.6,0.0,0.0,2.0,0.6126016192893442,0.0562706701368849,succ_gain,1.0,6.0,,,nx8,2,2022-05-05_14h53.09.351,threat_forest,2021.2.3,59.995164422770365,True,62.0,0.6125,0.5741071428571429,0.012499999999999956,-0.38405612244897963,1,1,1,-0.09946150470828752,0.0562706701368849,0.6,0.6,0.6,1.0,0.3999999999999999,0.3999999999999999,5.4,5.4,0.0,2.0,-1.0,5.0,0,1,1
7.0,0.0,7.0,0.0,1.0,0.0,1.0,0.0,,,,None,,192.6549772000872,nx8,192.6549772000872,None,189.4476833003573,191.44708770001307,False,6.0,['r'],True,0.46875,0.625,0.25,2.0,2.0,0.9634951148421658,-0.056437416691035,wait_cost,0.0,5.0,191.44708770001307,None,nx8,2,2022-05-05_14h53.09.351,threat_forest,2021.2.3,59.995164422770365,None,62.0,0.6125,0.5741071428571429,0.012499999999999956,-0.38405612244897963,1,0,0,,-0.056437416691035,0.46875,0.46875,0.625,0.75,-0.25,-0.375,5.625,5.625,1.0,2.0,1.0,6.0,0,0,1
7.0,0.0,7.0,0.0,2.0,0.0,2.0,0.0,,,,right,1.725926599930972,198.89739210018888,nx8,195.66436160029843,197.66388250002638,198.89739210018888,None,True,5.0,['r'],False,0.6,0.6,0.0,0.0,2.0,0.6126016192893442,0.0904835319900512,unsucc_cost,1.0,3.0,197.6638825000264,None,nx8,2,2022-05-05_14h53.09.351,threat_forest,2021.2.3,59.995164422770365,True,62.0,0.6125,0.5741071428571429,0.012499999999999956,-0.38405612244897963,1,1,1,0.54576406564514,0.0904835319900512,0.6,0.6,0.6,1.0,0.3999999999999999,0.3999999999999999,5.4,5.4,0.0,2.0,-1.0,5.0,0,1,1
7.0,0.0,7.0,0.0,3.0,0.0,3.0,0.0,,,,right,1.7391695999540389,204.47524840012196,nx8,195.66436160029843,197.66388250002638,204.47524840012196,None,True,3.0,['r'],False,0.6,0.6,0.0,0.0,2.0,0.6126016192893442,0.1859422485351562,unsucc_cost,1.0,1.0,202.66409250022843,None,nx8,2,2022-05-05_14h53.09.351,threat_forest,2021.2.3,59.995164422770365,True,62.0,0.6125,0.5741071428571429,0.012499999999999956,-0.38405612244897963,1,1,1,0.5534077579047881,0.1859422485351562,0.6,0.6,0.6,1.0,0.3999999999999999,0.3999999999999999,3.4,3.4,0.0,2.0,-1.0,3.0,0,1,1
7.0,0.0,7.0,0.0,4.0,0.0,4.0,0.0,,,,right,1.544741699937731,211.29917370015755,nx8,211.29917370015755,None,206.2339854999445,208.24740230012685,False,1.0,['r'],True,0.46875,0.625,0.25,2.0,2.0,0.9634951148421658,0.3358108520507812,wait_cost,0.0,0.0,208.24740230012685,None,nx8,2,2022-05-05_14h53.09.351,threat_forest,2021.2.3,59.995164422770365,False,62.0,0.6125,0.5741071428571429,0.012499999999999956,-0.38405612244897963,1,0,0,0.43485671186649844,0.3358108520507812,1.0,0.46875,0.625,0.75,-0.25,-0.375,0.625,0.625,1.0,2.0,-1.0,1.0,1,0,1
8.0,0.0,8.0,0.0,0.0,0.0,0.0,0.0,215.4507019999437,218.9475352000445,None,left,1.9892281000502408,221.9439519001171,nx8,221.9439519001171,None,215.4507019999437,218.9475352000445,True,5.0,['p'],True,0.5,0.5,0.0,0.0,1.0,0.6309297535714574,0.07495910506875,unsucc_cost,0.0,3.0,,,nx8,2,2022-05-05_14h53.09.351,threat_forest,2021.2.3,59.995164422770365,True,0.0,0.55,0.58125,-0.9100000000000001,-0.4487500000000001,0,0,1,0.6877466740658502,0.07495910506875,0.5,0.5,0.5,1.0,-0.5,-0.5,4.5,4.5,1.0,1.0,-1.0,5.0,0,0,0
8.0,0.0,8.0,0.0,1.0,0.0,1.0,0.0,,,,left,1.3796857995912433,228.0208001001738,nx8,228.0208001001738,None,215.4507019999437,218.9475352000445,True,3.0,['p'],True,0.5,0.5,0.0,0.0,1.0,0.6309297535714574,0.103973876875,succ_gain,0.0,4.0,225.96433730004355,None,nx8,2,2022-05-05_14h53.09.351,threat_forest,2021.2.3,59.995164422770365,True,0.0,0.55,0.58125,-0.9100000000000001,-0.4487500000000001,0,0,1,0.32185579179013496,0.103973876875,0.5,0.5,0.5,1.0,-0.5,-0.5,2.5,2.5,1.0,1.0,-1.0,3.0,0,0,0
8.0,0.0,8.0,0.0,2.0,0.0,2.0,0.0,,,,left,1.0301947998814285,232.0867024003528,nx8,229.43398640025407,231.44820300024003,232.0867024003528,None,False,4.0,['p'],False,0.36,0.6,0.4,2.0,1.0,0.9801625908629508,-0.001790475,wait_cost,1.0,3.0,231.44820300024003,None,nx8,2,2022-05-05_14h53.09.351,threat_forest,2021.2.3,59.995164422770365,False,0.0,0.55,0.58125,-0.9100000000000001,-0.4487500000000001,0,0,0,0.029747910457932705,-0.001790475,0.36,0.36,0.6,0.6,-1.4000000000000004,-1.3200000000000003,2.6799999999999997,2.6799999999999997,0.0,1.0,1.0,4.0,0,0,0
8.0,0.0,8.0,0.0,3.0,0.0,3.0,0.0,,,,left,1.587737999856472,237.8796125999652,nx8,237.8796125999652,None,233.14829300018027,235.1526636001654,True,3.0,['p'],True,0.5,0.5,0.0,0.0,1.0,0.6309297535714574,0.1769,unsucc_cost,0.0,1.0,235.1526636001654,None,nx8,2,2022-05-05_14h53.09.351,threat_forest,2021.2.3,59.995164422770365,True,0.0,0.55,0.58125,-0.9100000000000001,-0.4487500000000001,0,0,1,0.46231036171708545,0.1769,0.5,0.5,0.5,1.0,-0.5,-0.5,2.5,2.5,1.0,1.0,-1.0,3.0,0,0,0
8.0,0.0,8.0,0.0,4.0,0.0,4.0,0.0,,,,left,1.194248300045729,244.1295017004013,nx8,239.49805720010767,241.4983598003164,244.1295017004013,None,False,1.0,['p'],False,0.36,0.6,0.4,2.0,1.0,0.9801625908629508,0.1674,wait_cost,1.0,0.0,241.4983598003164,None,nx8,2,2022-05-05_14h53.09.351,threat_forest,2021.2.3,59.995164422770365,False,0.0,0.55,0.58125,-0.9100000000000001,-0.4487500000000001,0,0,0,0.17751694983766747,0.1674,1.0,0.36,0.6,0.6,-1.4000000000000004,-1.3200000000000003,-0.3200000000000003,0.0,0.0,1.0,-1.0,1.0,1,0,0
9.0,0.0,9.0,0.0,0.0,0.0,0.0,0.0,249.964533300139,253.4649241003208,None,right,1.177292199805379,254.46280830027536,nx8,249.964533300139,253.4649241003208,254.46280830027536,None,True,4.0,['r'],False,0.375,0.5,0.25,1.0,1.0,0.9850568223215076,0.0289878283625659,unsucc_cost,1.0,2.0,,,nx8,2,2022-05-05_14h53.09.351,threat_forest,2021.2.3,59.995164422770365,True,69.0,0.39285714285714285,0.4714285714285714,-1.2665816326530612,-1.0882908163265306,0,0,1,0.16321705558561106,0.0289878283625659,0.375,0.375,0.5,0.75,-1.25,-1.125,2.875,2.875,0.0,1.0,-1.0,4.0,0,0,0
9.0,0.0,9.0,0.0,1.0,0.0,1.0,0.0,,,,right,1.531994600314647,260.48826050013304,nx8,249.964533300139,253.4649241003208,260.48826050013304,None,True,2.0,['r'],False,0.375,0.5,0.25,1.0,1.0,0.9850568223215076,0.0182447652734547,unsucc_cost,1.0,0.0,257.6815703003668,None,nx8,2,2022-05-05_14h53.09.351,threat_forest,2021.2.3,59.995164422770365,True,69.0,0.39285714285714285,0.4714285714285714,-1.2665816326530612,-1.0882908163265306,0,0,1,0.42657054671339373,0.0182447652734547,0.375,0.375,0.5,0.75,-1.25,-1.125,0.875,0.875,0.0,1.0,-1.0,2.0,0,0,0
10.0,0.0,10.0,0.0,0.0,0.0,0.0,0.0,267.7560558002442,271.2650732002221,None,right,1.3412337000481784,274.980734300334,nx8,267.7560558002442,271.2650732002221,274.980734300334,None,True,5.0,['p'],False,0.4444444444444445,0.6666666666666666,0.3333333333333333,1.0,1.0,0.9656336071428248,0.0492535467687539,succ_gain,1.0,6.0,,,nx8,2,2022-05-05_14h53.09.351,threat_forest,2021.2.3,59.995164422770365,True,39.0,0.43333333333333335,0.41309523809523807,-1.2000000000000002,-1.2332908163265306,1,1,1,0.2935898620823481,0.0492535467687539,0.4444444444444445,0.4444444444444445,0.6666666666666666,0.6666666666666667,-1.0,-1.0,4.0,4.0,0.0,1.0,-1.0,5.0,0,1,1
10.0,0.0,10.0,0.0,1.0,0.0,1.0,0.0,,,,right,1.0783143998123703,279.4099024003372,nx8,267.7560558002442,271.2650732002221,279.4099024003372,None,True,6.0,['p'],False,0.4444444444444445,0.6666666666666666,0.3333333333333333,1.0,1.0,0.9656336071428248,-0.1196776426734105,succ_gain,1.0,6.0,278.3484129002318,None,nx8,2,2022-05-05_14h53.09.351,threat_forest,2021.2.3,59.995164422770365,True,39.0,0.43333333333333335,0.41309523809523807,-1.2000000000000002,-1.2332908163265306,1,1,1,0.07539908099679413,-0.1196776426734105,0.4444444444444445,0.4444444444444445,0.6666666666666666,0.6666666666666667,-1.0,-1.0,5.0,5.0,0.0,1.0,1.0,6.0,0,1,1
10.0,0.0,10.0,0.0,2.0,0.0,2.0,0.0,,,,right,1.071476699784398,285.92597030010074,nx8,267.7560558002442,271.2650732002221,285.92597030010074,None,True,6.0,['p'],False,0.4444444444444445,0.6666666666666666,0.3333333333333333,1.0,1.0,0.9656336071428248,0.0599119629460279,succ_gain,1.0,6.0,282.5151941003278,None,nx8,2,2022-05-05_14h53.09.351,threat_forest,2021.2.3,59.995164422770365,True,39.0,0.43333333333333335,0.41309523809523807,-1.2000000000000002,-1.2332908163265306,1,1,1,0.06903779027685904,0.0599119629460279,0.4444444444444445,0.4444444444444445,0.6666666666666666,0.6666666666666667,-1.0,-1.0,5.0,5.0,0.0,1.0,-1.0,6.0,0,1,1
10.0,0.0,10.0,0.0,3.0,0.0,3.0,0.0,,,,left,1.1740227998234332,292.3582619000226,nx8,292.3582619000226,None,287.03398680035025,289.03192780027166,True,6.0,['p'],True,0.2,0.2,0.0,0.0,1.0,0.4554859150035951,-0.3690123456790124,unsucc_cost,0.0,4.0,289.03192780027166,None,nx8,2,2022-05-05_14h53.09.351,threat_forest,2021.2.3,59.995164422770365,True,39.0,0.43333333333333335,0.41309523809523807,-1.2000000000000002,-1.2332908163265306,0,0,1,0.16043614185057467,-0.3690123456790124,0.0,0.2,0.2,1.0,-1.4000000000000001,-1.4000000000000001,4.6,4.6,1.0,1.0,-1.0,6.0,0,0,0
10.0,0.0,10.0,0.0,4.0,0.0,4.0,0.0,,,,right,1.8698231000453236,296.750500000082,nx8,293.57657640008256,295.5656110001728,296.750500000082,None,True,4.0,['p'],False,0.4444444444444445,0.6666666666666666,0.3333333333333333,1.0,1.0,0.9656336071428248,0.0838888888888889,succ_gain,1.0,5.0,295.5656110001728,None,nx8,2,2022-05-05_14h53.09.351,threat_forest,2021.2.3,59.995164422770365,True,39.0,0.43333333333333335,0.41309523809523807,-1.2000000000000002,-1.2332908163265306,1,1,1,0.6258438274854925,0.0838888888888889,0.4444444444444445,0.4444444444444445,0.6666666666666666,0.6666666666666667,-1.0,-1.0,3.0,3.0,0.0,1.0,-1.0,4.0,0,1,1
10.0,0.0,10.0,0.0,5.0,0.0,5.0,0.0,,,,right,1.284276700112969,302.3542774999514,nx8,302.3542774999514,None,298.649062700104,300.64874540036544,False,5.0,['p'],True,0.2,0.2,0.0,0.0,1.0,0.4554859150035951,0.0,wait_cost,0.0,4.0,300.64874540036544,None,nx8,2,2022-05-05_14h53.09.351,threat_forest,2021.2.3,59.995164422770365,False,39.0,0.43333333333333335,0.41309523809523807,-1.2000000000000002,-1.2332908163265306,0,0,0,0.2501956805816461,0.0,0.0,0.2,0.2,1.0,-1.4000000000000001,-1.4000000000000001,3.5999999999999996,3.5999999999999996,1.0,1.0,1.0,5.0,0,0,0
10.0,0.0,10.0,0.0,6.0,0.0,6.0,0.0,,,,left,1.8378335000015795,308.5360821001232,nx8,308.5360821001232,None,298.649062700104,300.64874540036544,True,4.0,['p'],True,0.2,0.2,0.0,0.0,1.0,0.4554859150035951,0.0,unsucc_cost,0.0,2.0,305.66561840008944,None,nx8,2,2022-05-05_14h53.09.351,threat_forest,2021.2.3,59.995164422770365,True,39.0,0.43333333333333335,0.41309523809523807,-1.2000000000000002,-1.2332908163265306,0,0,1,0.6085874322358386,0.0,0.0,0.2,0.2,1.0,-1.4000000000000001,-1.4000000000000001,2.5999999999999996,2.5999999999999996,1.0,1.0,-1.0,4.0,0,0,0
10.0,0.0,10.0,0.0,7.0,0.0,7.0,0.0,,,,right,1.2799690999090672,315.6477300999686,nx8,315.6477300999686,None,298.649062700104,300.64874540036544,False,2.0,['p'],True,0.2,0.2,0.0,0.0,1.0,0.4554859150035951,-0.8,wait_cost,0.0,1.0,312.3957632002421,None,nx8,2,2022-05-05_14h53.09.351,threat_forest,2021.2.3,59.995164422770365,False,39.0,0.43333333333333335,0.41309523809523807,-1.2000000000000002,-1.2332908163265306,0,0,0,0.24683593694409323,-0.8,0.0,0.2,0.2,1.0,-1.4000000000000001,-1.4000000000000001,0.5999999999999999,0.5999999999999999,1.0,1.0,-1.0,2.0,0,0,0
11.0,0.0,11.0,0.0,0.0,0.0,0.0,0.0,320.389301400166,323.89138319995254,None,left,2.143972699996084,326.5464981002733,nx8,326.5464981002733,None,320.389301400166,323.89138319995254,True,5.0,['r'],True,0.3333333333333333,0.3333333333333333,0.0,0.0,2.0,0.5793801642856949,0.0388172421765338,unsucc_cost,0.0,3.0,,,nx8,2,2022-05-05_14h53.09.351,threat_forest,2021.2.3,59.995164422770365,True,40.0,0.35416666666666663,0.39375,-0.8958333333333335,-1.0479166666666668,1,0,1,0.7626605099167059,0.0388172421765338,0.3333333333333333,0.3333333333333333,0.3333333333333333,1.0,-0.6666666666666669,-0.6666666666666669,4.333333333333333,4.333333333333333,1.0,2.0,-1.0,5.0,0,0,1
11.0,0.0,11.0,0.0,1.0,0.0,1.0,0.0,,,,left,1.9911206001415849,332.0869175000116,nx8,332.0869175000116,None,320.389301400166,323.89138319995254,True,3.0,['r'],True,0.3333333333333333,0.3333333333333333,0.0,0.0,2.0,0.5793801642856949,0.1051879490716752,succ_gain,0.0,5.0,330.7326967003755,None,nx8,2,2022-05-05_14h53.09.351,threat_forest,2021.2.3,59.995164422770365,True,40.0,0.35416666666666663,0.39375,-0.8958333333333335,-1.0479166666666668,1,0,1,0.6886975958953176,0.1051879490716752,0.3333333333333333,0.3333333333333333,0.3333333333333333,1.0,-0.6666666666666669,-0.6666666666666669,2.333333333333333,2.333333333333333,1.0,2.0,-1.0,3.0,0,0,1
11.0,0.0,11.0,0.0,2.0,0.0,2.0,0.0,,,,None,,339.6742289001122,nx8,334.1002210001461,336.0994212003425,339.6742289001122,None,False,5.0,['r'],False,0.28125,0.375,0.25,2.0,2.0,0.9634951148421658,-0.0090943703910818,wait_cost,1.0,4.0,336.0994212003425,None,nx8,2,2022-05-05_14h53.09.351,threat_forest,2021.2.3,59.995164422770365,None,40.0,0.35416666666666663,0.39375,-0.8958333333333335,-1.0479166666666668,0,0,0,,-0.0090943703910818,0.28125,0.28125,0.375,0.75,-1.25,-1.125,3.875,3.875,0.0,2.0,1.0,5.0,0,0,0
11.0,0.0,11.0,0.0,3.0,0.0,3.0,0.0,,,,right,1.0455009997822344,347.18431450007483,nx8,334.1002210001461,336.0994212003425,347.18431450007483,None,True,4.0,['r'],False,0.28125,0.375,0.25,2.0,2.0,0.9634951148421658,-0.0133382655956126,unsucc_cost,1.0,2.0,344.68286920012906,None,nx8,2,2022-05-05_14h53.09.351,threat_forest,2021.2.3,59.995164422770365,True,40.0,0.35416666666666663,0.39375,-0.8958333333333335,-1.0479166666666668,0,0,1,0.04449619615795858,-0.0133382655956126,0.28125,0.28125,0.375,0.75,-1.25,-1.125,2.875,2.875,0.0,2.0,-1.0,4.0,0,0,0
11.0,0.0,11.0,0.0,4.0,0.0,4.0,0.0,,,,left,0.9966110000386834,353.2291234000586,nx8,353.2291234000586,None,348.25006120000035,350.2498717000708,True,2.0,['r'],True,0.3333333333333333,0.3333333333333333,0.0,0.0,2.0,0.5793801642856949,0.0260416666666666,unsucc_cost,0.0,0.0,350.2498717000708,None,nx8,2,2022-05-05_14h53.09.351,threat_forest,2021.2.3,59.995164422770365,True,40.0,0.35416666666666663,0.39375,-0.8958333333333335,-1.0479166666666668,1,0,1,-0.0033947556293371446,0.0260416666666666,0.3333333333333333,0.3333333333333333,0.3333333333333333,1.0,-0.6666666666666669,-0.6666666666666669,1.333333333333333,1.333333333333333,1.0,2.0,-1.0,2.0,0,0,1
12.0,0.0,12.0,0.0,0.0,0.0,0.0,0.0,357.7352385004051,361.2360767000355,None,left,1.2751759998500347,362.817550400272,nx8,362.817550400272,None,357.7352385004051,361.2360767000355,True,4.0,['r'],True,0.5555555555555556,0.6666666666666666,0.1666666666666666,1.0,2.0,0.8929352898779306,0.0812153123697358,unsucc_cost,0.0,2.0,,,nx8,2,2022-05-05_14h53.09.351,threat_forest,2021.2.3,59.995164422770365,True,51.0,0.5555555555555556,0.4548611111111111,-0.2376543209876542,-0.5667438271604939,1,1,1,0.2430842081819363,0.0812153123697358,0.5555555555555556,0.5555555555555556,0.6666666666666666,0.8333333333333334,0.16666666666666674,0.05555555555555569,4.055555555555555,4.055555555555555,1.0,2.0,-1.0,4.0,0,1,1
12.0,0.0,12.0,0.0,1.0,0.0,1.0,0.0,,,,right,1.6501103998161852,367.3413398000412,nx8,364.1170995002613,366.1166505999863,367.3413398000412,None,True,2.0,['r'],False,0.3950617283950617,0.4444444444444444,0.1111111111111111,1.0,2.0,0.8733423231021583,-0.0231778299038606,succ_gain,1.0,4.0,366.1166505999863,None,nx8,2,2022-05-05_14h53.09.351,threat_forest,2021.2.3,59.995164422770365,True,51.0,0.5555555555555556,0.4548611111111111,-0.2376543209876542,-0.5667438271604939,1,0,1,0.5008421946536895,-0.0231778299038606,0.3950617283950617,0.3950617283950617,0.4444444444444444,0.8888888888888888,-0.5555555555555556,-0.5308641975308641,1.4691358024691359,1.4691358024691359,0.0,2.0,-1.0,2.0,0,0,1
12.0,0.0,12.0,0.0,2.0,0.0,2.0,0.0,,,,left,1.7870908002369106,372.43807100038975,nx8,372.43807100038975,None,369.0171660999768,371.02385350037366,True,4.0,['r'],True,0.5555555555555556,0.6666666666666666,0.1666666666666666,1.0,2.0,0.8929352898779306,0.1122359133202038,unsucc_cost,0.0,2.0,371.02385350037366,None,nx8,2,2022-05-05_14h53.09.351,threat_forest,2021.2.3,59.995164422770365,True,51.0,0.5555555555555556,0.4548611111111111,-0.2376543209876542,-0.5667438271604939,1,1,1,0.5805890464347832,0.1122359133202038,0.5555555555555556,0.5555555555555556,0.6666666666666666,0.8333333333333334,0.16666666666666674,0.05555555555555569,4.055555555555555,4.055555555555555,1.0,2.0,1.0,4.0,0,1,1
12.0,0.0,12.0,0.0,3.0,0.0,3.0,0.0,,,,left,1.1312195002101362,379.8275506002829,nx8,379.8275506002829,None,369.0171660999768,371.02385350037366,True,2.0,['r'],True,0.5555555555555556,0.6666666666666666,0.1666666666666666,1.0,2.0,0.8929352898779306,0.0981322479823725,succ_gain,0.0,4.0,376.250104600098,None,nx8,2,2022-05-05_14h53.09.351,threat_forest,2021.2.3,59.995164422770365,True,51.0,0.5555555555555556,0.4548611111111111,-0.2376543209876542,-0.5667438271604939,1,1,1,0.12329625452832964,0.0981322479823725,0.5555555555555556,0.5555555555555556,0.6666666666666666,0.8333333333333334,0.16666666666666674,0.05555555555555569,2.055555555555556,2.055555555555556,1.0,2.0,-1.0,2.0,0,1,1
12.0,0.0,12.0,0.0,4.0,0.0,4.0,0.0,,,,right,2.612790099810809,384.5415638000704,nx8,380.9837550004013,382.9837215002626,384.5415638000704,None,True,4.0,['r'],False,0.3950617283950617,0.4444444444444444,0.1111111111111111,1.0,2.0,0.8733423231021583,0.0437242798353909,unsucc_cost,1.0,2.0,382.9837215002626,None,nx8,2,2022-05-05_14h53.09.351,threat_forest,2021.2.3,59.995164422770365,True,51.0,0.5555555555555556,0.4548611111111111,-0.2376543209876542,-0.5667438271604939,1,0,1,0.9604186541158963,0.0437242798353909,0.3950617283950617,0.3950617283950617,0.4444444444444444,0.8888888888888888,-0.5555555555555556,-0.5308641975308641,3.469135802469136,3.469135802469136,0.0,2.0,1.0,4.0,0,0,1
12.0,0.0,12.0,0.0,5.0,0.0,5.0,0.0,,,,right,2.072058199904859,392.23032610025257,nx8,380.9837550004013,382.9837215002626,392.23032610025257,None,True,2.0,['r'],False,0.3950617283950617,0.4444444444444444,0.1111111111111111,1.0,2.0,0.8733423231021583,-0.0802469135802469,unsucc_cost,1.0,0.0,389.2002515001223,None,nx8,2,2022-05-05_14h53.09.351,threat_forest,2021.2.3,59.995164422770365,True,51.0,0.5555555555555556,0.4548611111111111,-0.2376543209876542,-0.5667438271604939,1,0,1,0.7285424127599263,-0.0802469135802469,0.3950617283950617,0.3950617283950617,0.4444444444444444,0.8888888888888888,-0.5555555555555556,-0.5308641975308641,1.4691358024691359,1.4691358024691359,0.0,2.0,-1.0,2.0,0,0,1
13.0,0.0,13.0,0.0,0.0,0.0,0.0,0.0,399.3776335003786,402.88275030022487,None,left,1.2311466000974178,405.82138980040327,nx8,405.82138980040327,None,399.3776335003786,402.88275030022487,True,4.0,['p'],True,0.3333333333333333,0.5,0.3333333333333333,2.0,1.0,1.0,0.0143529277549154,succ_gain,0.0,5.0,,,nx8,2,2022-05-05_14h53.09.351,threat_forest,2021.2.3,59.995164422770365,True,7.0,0.45,0.5027777777777778,-1.0666666666666667,-0.6521604938271605,0,0,1,0.20794593036136577,0.0143529277549154,0.3333333333333333,0.3333333333333333,0.5,0.6666666666666667,-1.5,-1.3333333333333335,2.6666666666666665,2.6666666666666665,1.0,1.0,-1.0,4.0,0,0,0
13.0,0.0,13.0,0.0,1.0,0.0,1.0,0.0,,,,right,1.878489899914712,409.6537665999495,nx8,407.0935740000568,409.0874271001667,409.6537665999495,None,True,5.0,['p'],False,0.4,0.4,0.0,0.0,1.0,0.6126016192893442,0.0741962263374487,succ_gain,1.0,6.0,409.0874271001667,None,nx8,2,2022-05-05_14h53.09.351,threat_forest,2021.2.3,59.995164422770365,True,7.0,0.45,0.5027777777777778,-1.0666666666666667,-0.6521604938271605,0,0,1,0.6304682093417399,0.0741962263374487,0.4,0.4,0.4,1.0,-0.7999999999999999,-0.7999999999999999,4.2,4.2,0.0,1.0,1.0,5.0,0,0,0
13.0,0.0,13.0,0.0,2.0,0.0,2.0,0.0,,,,right,1.7729899999685583,414.6282163001597,nx8,407.0935740000568,409.0874271001667,414.6282163001597,None,True,6.0,['p'],False,0.4,0.4,0.0,0.0,1.0,0.6126016192893442,0.0671729629629629,unsucc_cost,1.0,4.0,413.55059510003775,None,nx8,2,2022-05-05_14h53.09.351,threat_forest,2021.2.3,59.995164422770365,True,7.0,0.45,0.5027777777777778,-1.0666666666666667,-0.6521604938271605,0,0,1,0.572667386900507,0.0671729629629629,0.4,0.4,0.4,1.0,-0.7999999999999999,-0.7999999999999999,5.2,5.2,0.0,1.0,1.0,6.0,0,0,0
13.0,0.0,13.0,0.0,3.0,0.0,3.0,0.0,,,,right,2.9349099001847208,420.3501705001108,nx8,407.0935740000568,409.0874271001667,420.3501705001108,None,True,4.0,['p'],False,0.4,0.4,0.0,0.0,1.0,0.6126016192893442,0.0844777777777778,unsucc_cost,1.0,2.0,418.41986460005865,None,nx8,2,2022-05-05_14h53.09.351,threat_forest,2021.2.3,59.995164422770365,True,7.0,0.45,0.5027777777777778,-1.0666666666666667,-0.6521604938271605,0,0,1,1.076676754405011,0.0844777777777778,0.4,0.4,0.4,1.0,-0.7999999999999999,-0.7999999999999999,3.2,3.2,0.0,1.0,-1.0,4.0,0,0,0
13.0,0.0,13.0,0.0,4.0,0.0,4.0,0.0,,,,left,1.8122442001476884,428.6360432002693,nx8,428.6360432002693,None,423.3233696003445,425.3342261002399,True,2.0,['p'],True,0.3333333333333333,0.5,0.3333333333333333,2.0,1.0,1.0,0.0387037037037036,unsucc_cost,0.0,0.0,425.3342261002399,None,nx8,2,2022-05-05_14h53.09.351,threat_forest,2021.2.3,59.995164422770365,True,7.0,0.45,0.5027777777777778,-1.0666666666666667,-0.6521604938271605,0,0,1,0.5945659668337833,0.0387037037037036,0.3333333333333333,0.3333333333333333,0.5,0.6666666666666667,-1.5,-1.3333333333333335,0.6666666666666665,0.6666666666666665,1.0,1.0,-1.0,2.0,0,0,0
14.0,0.0,14.0,0.0,0.0,0.0,0.0,0.0,435.430958500132,438.9239461002872,None,right,0.8330032997764647,440.2913959999569,nx8,435.430958500132,438.92394610028714,440.2913959999569,None,True,4.0,['r'],False,0.1875,0.25,0.25,2.0,1.0,0.895754137500101,-0.0017291066874999,succ_gain,1.0,5.0,,,nx8,2,2022-05-05_14h53.09.351,threat_forest,2021.2.3,59.995164422770365,True,57.0,0.4583333333333333,0.45416666666666666,-1.34375,-1.2052083333333332,0,0,1,-0.1827176755068562,-0.0017291066874999,0.1875,0.1875,0.25,0.75,-2.0,-1.6875,2.3125,2.3125,0.0,1.0,-1.0,4.0,0,0,0
14.0,0.0,14.0,0.0,1.0,0.0,1.0,0.0,,,,right,0.852114399895072,444.5514035001397,nx8,435.430958500132,438.92394610028714,444.5514035001397,None,True,5.0,['r'],False,0.1875,0.25,0.25,2.0,1.0,0.895754137500101,-0.0185319872241142,fight_cost,1.0,2.0,443.1645696000196,None,nx8,2,2022-05-05_14h53.09.351,threat_forest,2021.2.3,59.995164422770365,True,57.0,0.4583333333333333,0.45416666666666666,-1.34375,-1.2052083333333332,0,0,1,-0.16003448898920875,-0.0185319872241142,0.1875,0.1875,0.25,0.75,-2.0,-1.6875,3.3125,3.3125,0.0,1.0,1.0,5.0,0,0,0
14.0,0.0,14.0,0.0,2.0,0.0,2.0,0.0,,,,left,0.5151030998677015,449.18330440018326,nx8,435.430958500132,438.92394610028714,449.18330440018326,None,False,2.0,['r'],False,0.1875,0.25,0.25,2.0,1.0,0.895754137500101,-0.0114500663971287,wait_cost,1.0,1.0,447.45114709995687,None,nx8,2,2022-05-05_14h53.09.351,threat_forest,2021.2.3,59.995164422770365,False,57.0,0.4583333333333333,0.45416666666666666,-1.34375,-1.2052083333333332,0,0,0,-0.6633882044366622,-0.0114500663971287,0.1875,0.1875,0.25,0.75,-2.0,-1.6875,0.3125,0.3125,0.0,1.0,-1.0,2.0,0,0,0
14.0,0.0,14.0,0.0,3.0,0.0,3.0,0.0,,,,right,1.4443589998409152,455.2971349,nx8,435.430958500132,438.92394610028714,455.2971349,None,True,1.0,['r'],False,0.1875,0.25,0.25,2.0,1.0,0.895754137500101,0.0299057823149755,unsucc_cost,1.0,0.0,451.7344684000127,None,nx8,2,2022-05-05_14h53.09.351,threat_forest,2021.2.3,59.995164422770365,True,57.0,0.4583333333333333,0.45416666666666666,-1.34375,-1.2052083333333332,0,0,1,0.3676656244193636,0.0299057823149755,1.0,0.1875,0.25,0.75,-2.0,-1.6875,-0.6875,0.0,0.0,1.0,-1.0,1.0,1,0,0
15.0,0.0,15.0,0.0,0.0,0.0,0.0,0.0,459.5215039001778,463.0194916999899,None,left,1.04442790010944,466.5307944002561,nx8,466.5307944002561,None,459.5215039001778,463.0194916999899,True,4.0,['p'],True,0.3333333333333333,0.3333333333333333,0.0,0.0,2.0,0.5793801642856949,0.0625547744246303,succ_gain,0.0,6.0,,,nx8,2,2022-05-05_14h53.09.351,threat_forest,2021.2.3,59.995164422770365,True,68.0,0.5,0.47916666666666663,-1.2222222222222223,-1.2829861111111112,1,0,1,0.043469271493530776,0.0625547744246303,0.3333333333333333,0.3333333333333333,0.3333333333333333,1.0,-0.6666666666666669,-0.6666666666666669,3.333333333333333,3.333333333333333,1.0,2.0,-1.0,4.0,0,0,1
15.0,0.0,15.0,0.0,1.0,0.0,1.0,0.0,,,,right,1.0634145997464657,471.5197599004023,nx8,467.6087627001107,469.61808930011466,471.5197599004023,None,True,6.0,['p'],False,0.2222222222222222,0.6666666666666666,0.6666666666666666,2.0,2.0,0.77250688571426,-0.2138203017832646,unsucc_cost,1.0,4.0,469.61808930011466,None,nx8,2,2022-05-05_14h53.09.351,threat_forest,2021.2.3,59.995164422770365,True,68.0,0.5,0.47916666666666663,-1.2222222222222223,-1.2829861111111112,0,0,1,0.061485051302173264,-0.2138203017832646,0.2222222222222222,0.2222222222222222,0.6666666666666666,0.33333333333333337,-1.3333333333333335,-1.777777777777778,4.222222222222222,4.222222222222222,0.0,2.0,1.0,6.0,0,0,0
15.0,0.0,15.0,0.0,2.0,0.0,2.0,0.0,,,,left,1.227078199852258,475.6058948002756,nx8,475.6058948002756,None,472.6019236999564,474.6014193999581,True,4.0,['p'],True,0.3333333333333333,0.3333333333333333,0.0,0.0,2.0,0.5793801642856949,0.0682441700960219,succ_gain,0.0,6.0,474.6014193999581,None,nx8,2,2022-05-05_14h53.09.351,threat_forest,2021.2.3,59.995164422770365,True,68.0,0.5,0.47916666666666663,-1.2222222222222223,-1.2829861111111112,1,0,1,0.20463589625886844,0.0682441700960219,0.3333333333333333,0.3333333333333333,0.3333333333333333,1.0,-0.6666666666666669,-0.6666666666666669,3.333333333333333,3.333333333333333,1.0,2.0,-1.0,4.0,0,0,1
15.0,0.0,15.0,0.0,3.0,0.0,3.0,0.0,,,,right,1.1295121000148356,479.49416490038857,nx8,479.49416490038857,None,472.6019236999564,474.6014193999581,False,6.0,['p'],True,0.3333333333333333,0.3333333333333333,0.0,0.0,2.0,0.5793801642856949,-0.3405349794238684,wait_cost,0.0,5.0,478.8516216999851,None,nx8,2,2022-05-05_14h53.09.351,threat_forest,2021.2.3,59.995164422770365,False,68.0,0.5,0.47916666666666663,-1.2222222222222223,-1.2829861111111112,1,0,0,0.12178576958641142,-0.3405349794238684,0.0,0.3333333333333333,0.3333333333333333,1.0,-0.6666666666666669,-0.6666666666666669,5.333333333333333,5.333333333333333,1.0,2.0,1.0,6.0,0,0,1
15.0,0.0,15.0,0.0,4.0,0.0,4.0,0.0,,,,right,1.5733149996958673,485.6047395002097,nx8,480.65466630039737,482.6683486001566,485.6047395002097,None,True,5.0,['p'],False,0.2222222222222222,0.6666666666666666,0.6666666666666666,2.0,2.0,0.77250688571426,-0.5282921810699589,unsucc_cost,1.0,3.0,482.6683486001566,None,nx8,2,2022-05-05_14h53.09.351,threat_forest,2021.2.3,59.995164422770365,True,68.0,0.5,0.47916666666666663,-1.2222222222222223,-1.2829861111111112,0,0,1,0.45318485812578313,-0.5282921810699589,0.0,0.2222222222222222,0.6666666666666666,0.33333333333333337,-1.3333333333333335,-1.777777777777778,3.2222222222222223,3.2222222222222223,0.0,2.0,-1.0,5.0,0,0,0
15.0,0.0,15.0,0.0,5.0,0.0,5.0,0.0,,,,right,1.4625421999953687,492.79350690031424,nx8,480.65466630039737,482.6683486001566,492.79350690031424,None,True,3.0,['p'],False,0.2222222222222222,0.6666666666666666,0.6666666666666666,2.0,2.0,0.77250688571426,-0.052469135802469,fight_cost,1.0,0.0,489.2182225002907,None,nx8,2,2022-05-05_14h53.09.351,threat_forest,2021.2.3,59.995164422770365,True,68.0,0.5,0.47916666666666663,-1.2222222222222223,-1.2829861111111112,0,0,1,0.38017615440527375,-0.052469135802469,0.2222222222222222,0.2222222222222222,0.6666666666666666,0.33333333333333337,-1.3333333333333335,-1.777777777777778,1.222222222222222,1.222222222222222,0.0,2.0,-1.0,3.0,0,0,0
16.0,0.0,16.0,0.0,0.0,0.0,0.0,0.0,498.24741420010105,501.7401261003688,None,left,1.2274758000858128,504.7312245001085,nx8,504.7312245001085,None,498.24741420010105,501.7401261003688,True,5.0,['p'],True,0.5,0.5,0.0,0.0,1.0,0.6309297535714574,0.0653299800297634,unsucc_cost,0.0,3.0,,,nx8,2,2022-05-05_14h53.09.351,threat_forest,2021.2.3,59.995164422770365,True,27.0,0.5357142857142857,0.5178571428571428,-0.7806122448979592,-1.0014172335600908,1,0,1,0.2049598656944909,0.0653299800297634,0.5,0.5,0.5,1.0,-0.5,-0.5,4.5,4.5,1.0,1.0,-1.0,5.0,0,0,1
16.0,0.0,16.0,0.0,1.0,0.0,1.0,0.0,,,,left,1.5777982999570668,511.5724857002497,nx8,505.9883600999601,508.00209850026295,511.5724857002497,None,False,3.0,['p'],False,0.4081632653061224,0.5714285714285714,0.2857142857142857,2.0,1.0,0.9885754083994552,0.0362058160775727,wait_cost,1.0,2.0,508.00209850026295,None,nx8,2,2022-05-05_14h53.09.351,threat_forest,2021.2.3,59.995164422770365,False,27.0,0.5357142857142857,0.5178571428571428,-0.7806122448979592,-1.0014172335600908,0,0,0,0.4560303942014475,0.0362058160775727,0.4081632653061224,0.4081632653061224,0.5714285714285714,0.7142857142857143,-1.1428571428571428,-1.0612244897959184,1.9387755102040816,1.9387755102040816,0.0,1.0,-1.0,3.0,0,0,0
16.0,0.0,16.0,0.0,2.0,0.0,2.0,0.0,,,,left,1.2739376998506486,518.6611974001862,nx8,518.6611974001862,None,513.1690062000416,515.168595300056,True,2.0,['p'],True,0.5,0.5,0.0,0.0,1.0,0.6309297535714574,0.0684515063919812,succ_gain,0.0,3.0,515.168595300056,None,nx8,2,2022-05-05_14h53.09.351,threat_forest,2021.2.3,59.995164422770365,True,27.0,0.5357142857142857,0.5178571428571428,-0.7806122448979592,-1.0014172335600908,1,0,1,0.24211265473813678,0.0684515063919812,0.5,0.5,0.5,1.0,-0.5,-0.5,1.5,1.5,1.0,1.0,-1.0,2.0,0,0,1
16.0,0.0,16.0,0.0,3.0,0.0,3.0,0.0,,,,right,1.6267734998837111,523.3401887002401,nx8,519.9552359003574,521.9688137001358,523.3401887002401,None,True,3.0,['p'],False,0.4081632653061224,0.5714285714285714,0.2857142857142857,2.0,1.0,0.9885754083994552,0.0577532267592585,succ_gain,1.0,4.0,521.9688137001358,None,nx8,2,2022-05-05_14h53.09.351,threat_forest,2021.2.3,59.995164422770365,True,27.0,0.5357142857142857,0.5178571428571428,-0.7806122448979592,-1.0014172335600908,0,0,1,0.48659860519838083,0.0577532267592585,0.4081632653061224,0.4081632653061224,0.5714285714285714,0.7142857142857143,-1.1428571428571428,-1.0612244897959184,1.9387755102040816,1.9387755102040816,0.0,1.0,1.0,3.0,0,0,0
16.0,0.0,16.0,0.0,4.0,0.0,4.0,0.0,,,,right,1.17475980008021,528.7650721999817,nx8,519.9552359003574,521.9688137001358,528.7650721999817,None,True,4.0,['p'],False,0.4081632653061224,0.5714285714285714,0.2857142857142857,2.0,1.0,0.9885754083994552,-0.0210180282025346,fight_cost,1.0,1.0,526.9854526002891,None,nx8,2,2022-05-05_14h53.09.351,threat_forest,2021.2.3,59.995164422770365,True,27.0,0.5357142857142857,0.5178571428571428,-0.7806122448979592,-1.0014172335600908,0,0,1,0.16106370123473804,-0.0210180282025346,0.4081632653061224,0.4081632653061224,0.5714285714285714,0.7142857142857143,-1.1428571428571428,-1.0612244897959184,2.9387755102040813,2.9387755102040813,0.0,1.0,1.0,4.0,0,0,0
16.0,0.0,16.0,0.0,5.0,0.0,5.0,0.0,,,,left,1.6493714000098407,533.3632486001588,nx8,519.9552359003574,521.9688137001358,533.3632486001588,None,False,1.0,['p'],False,0.4081632653061224,0.5714285714285714,0.2857142857142857,2.0,1.0,0.9885754083994552,0.1947105372761349,wait_cost,1.0,0.0,531.9689450999722,None,nx8,2,2022-05-05_14h53.09.351,threat_forest,2021.2.3,59.995164422770365,False,27.0,0.5357142857142857,0.5178571428571428,-0.7806122448979592,-1.0014172335600908,0,0,0,0.5003942456340946,0.1947105372761349,1.0,0.4081632653061224,0.5714285714285714,0.7142857142857143,-1.1428571428571428,-1.0612244897959184,-0.061224489795918435,0.0,0.0,1.0,-1.0,1.0,1,0,0
17.0,0.0,17.0,0.0,0.0,0.0,0.0,0.0,540.1736205001362,543.6856964002363,None,right,0.9955310998484492,546.9508998002857,nx8,546.9508998002857,None,540.1736205001362,543.6856964002363,False,4.0,['p'],True,0.4444444444444445,0.6666666666666666,0.3333333333333333,1.0,1.0,0.9656336071428248,0.0433478243421047,wait_cost,0.0,3.0,,,nx8,2,2022-05-05_14h53.09.351,threat_forest,2021.2.3,59.995164422770365,False,13.0,0.47619047619047616,0.5059523809523809,-1.2040816326530612,-0.9923469387755102,0,0,0,-0.004478915535472186,0.0433478243421047,0.4444444444444445,0.4444444444444445,0.6666666666666666,0.6666666666666667,-1.0,-1.0,3.0,3.0,1.0,1.0,-1.0,4.0,0,0,0
17.0,0.0,17.0,0.0,1.0,0.0,1.0,0.0,,,,left,0.9402351998724044,553.4758467003703,nx8,553.4758467003703,None,540.1736205001362,543.6856964002363,True,3.0,['p'],True,0.4444444444444445,0.6666666666666666,0.3333333333333333,1.0,1.0,0.9656336071428248,0.0524754383062191,fight_cost,0.0,0.0,549.969434000086,None,nx8,2,2022-05-05_14h53.09.351,threat_forest,2021.2.3,59.995164422770365,True,13.0,0.47619047619047616,0.5059523809523809,-1.2040816326530612,-0.9923469387755102,0,0,1,-0.06162522238582948,0.0524754383062191,0.4444444444444445,0.4444444444444445,0.6666666666666666,0.6666666666666667,-1.0,-1.0,2.0,2.0,1.0,1.0,-1.0,3.0,0,0,0
0.0,0.0,0.0,0.0,0.0,0.0,0.0,0.0,23.506329899653792,27.003915200009946,None,right,0.971621099859476,30.405875799711797,nx8,23.506329899653792,27.003915200009942,30.405875799711797,None,True,5.0,['p'],False,0.2040816326530612,0.2857142857142857,0.2857142857142857,2.0,2.0,0.9335459102197724,-0.0078150263394839,unsucc_cost,1.0,3.0,,,nx8,3,2022-05-05_15h02.47.569,threat_forest,2021.2.3,59.90660562992089,True,17.0,0.26785714285714285,0.37202380952380953,-1.2346938775510203,-1.2193877551020407,0,0,1,-0.028789365478686754,-0.0078150263394839,0.2040816326530612,0.2040816326530612,0.2857142857142857,0.7142857142857143,-1.7142857142857144,-1.4693877551020407,3.5306122448979593,3.5306122448979593,0.0,2.0,-1.0,5.0,0,0,0
