miniblock.thisRepN,miniblock.thisTrialN,miniblock.thisN,miniblock.thisIndex,day.thisRepN,day.thisTrialN,day.thisN,day.thisIndex,forest.started,fixation_forest.started,fixation_forest.stopped,key_resp.keys,key_resp.rt,key_resp.started,Subject_ID,weather_left.started,weather_left.stopped,weather_right.started,weather_right.stopped,foraging T/F,in_LP,p/r heuristic,good_weather.T/F,p_succ_correct,p_succ_uncorrected,r_threat,n_oponents,gain_if_succ,weather_entropy,OP_value_difference,action_outcome,forest_side_L=0_R=1,out_LP,fixation_day.started,fixation_day.stopped,participant,session,date,expName,psychopyVersion,frameRate,foraging T/F NaNs,fora_NR,forest_mean_p,mvt_cutoff_p,forest_mean_ev,mvt_cutoff_ev,mvt_policy_eg,mvt_policy_p,fora_response,logRT,optimal policy values,multi-heuristic policy,** $\mathit{p}$ success,* $\mathit{p}$ gain,* $\mathit{r}$ predator,expected gain naive,expected gain correct,expected state no bounds,expected state with bounds,weather type,gain magnitude,win stay lose shift,continuous energy state,** binary energy state,** wait when safe,$\mathit{p}$ success based MVT,marginal value,$\mathit{OP}$ values + cap
0.0,0.0,0.0,0.0,0.0,0.0,0.0,0.0,25.68084250018001,29.189737300388515,,left,1.5764535004273057,30.02876350004226,ti14,30.02876350004226,,25.68084250018001,29.189737300388515,True,5.0,['r'],True,0.625,0.625,0.0,0.0,2.0,0.6021808102656677,0.0512514556375116,succ_gain,0.0,6.0,,,ti14,1,2022-05-05_11h29.17.852,threat_forest,2021.2.3,59.99196104394372,True,60.0,0.6458333333333333,0.6458333333333333,0.17592592592592587,0.17592592592592587,1,0,1,0.4551777041206628,0.0512514556375116,0.625,0.625,0.625,0.0,1.5,1.5,6.5,6.5,1.0,2.0,,5.0,0,1,0,1,0.0512514556375116
0.0,0.0,0.0,0.0,1.0,0.0,1.0,0.0,,,,left,1.0233017997816205,35.85933759994805,ti14,35.85933759994805,,25.68084250018001,29.189737300388515,True,6.0,['r'],True,0.625,0.625,0.0,0.0,2.0,0.6021808102656677,0.0055837052896026,succ_gain,0.0,6.0,33.63684380007908,,ti14,1,2022-05-05_11h29.17.852,threat_forest,2021.2.3,59.99196104394372,True,60.0,0.6458333333333333,0.6458333333333333,0.17592592592592587,0.17592592592592587,1,0,1,0.023034457910570513,0.0055837052896026,0.625,0.625,0.625,0.0,1.5,1.5,7.5,7.0,1.0,2.0,1.0,6.0,0,1,0,1,0.0055837052896026
0.0,0.0,0.0,0.0,2.0,0.0,2.0,0.0,,,,right,1.8997348002158103,40.49963360000402,ti14,36.90398790035397,38.903662899974734,40.49963360000402,,True,6.0,['r'],False,0.5185185185185185,0.6666666666666666,0.2222222222222222,2.0,2.0,0.9327883776363328,0.0086858794239948,succ_gain,1.0,6.0,38.903662899974734,,ti14,1,2022-05-05_11h29.17.852,threat_forest,2021.2.3,59.99196104394372,True,60.0,0.6458333333333333,0.6458333333333333,0.17592592592592587,0.17592592592592587,0,0,1,0.6417142975965788,0.0086858794239948,0.5185185185185185,0.5185185185185185,0.6666666666666666,0.2222222222222222,0.9999999999999999,0.8518518518518517,6.851851851851852,6.851851851851852,0.0,2.0,-1.0,6.0,0,1,0,0,0.0086858794239948
0.0,0.0,0.0,0.0,3.0,0.0,3.0,0.0,,,,right,1.094325799960643,47.81424490036443,ti14,36.90398790035397,38.903662899974734,47.81424490036443,,True,6.0,['r'],False,0.5185185185185185,0.6666666666666666,0.2222222222222222,2.0,2.0,0.9327883776363328,-0.1002277703157547,succ_gain,1.0,6.0,44.43705700011924,,ti14,1,2022-05-05_11h29.17.852,threat_forest,2021.2.3,59.99196104394372,True,60.0,0.6458333333333333,0.6458333333333333,0.17592592592592587,0.17592592592592587,0,0,1,0.09013846584407799,-0.1002277703157547,0.0,0.5185185185185185,0.6666666666666666,0.2222222222222222,0.9999999999999999,0.8518518518518517,6.851851851851852,6.851851851851852,0.0,2.0,-1.0,6.0,0,0,0,0,-0.84
0.0,0.0,0.0,0.0,4.0,0.0,4.0,0.0,,,,right,1.0552936000749469,52.04324690019712,ti14,36.90398790035397,38.903662899974734,52.04324690019712,,True,6.0,['r'],False,0.5185185185185185,0.6666666666666666,0.2222222222222222,2.0,2.0,0.9327883776363328,-0.0548708752476756,unsucc_cost,1.0,4.0,50.937207700219005,,ti14,1,2022-05-05_11h29.17.852,threat_forest,2021.2.3,59.99196104394372,True,60.0,0.6458333333333333,0.6458333333333333,0.17592592592592587,0.17592592592592587,0,0,1,0.05381902212136482,-0.0548708752476756,0.0,0.5185185185185185,0.6666666666666666,0.2222222222222222,0.9999999999999999,0.8518518518518517,6.851851851851852,6.851851851851852,0.0,2.0,-1.0,6.0,0,0,0,0,-0.84
0.0,0.0,0.0,0.0,5.0,0.0,5.0,0.0,,,,left,1.0335554997436702,56.87846560031176,ti14,56.87846560031176,,53.12103200005368,55.12048610020429,True,4.0,['r'],True,0.625,0.625,0.0,0.0,2.0,0.6021808102656677,-0.1506076388888889,unsucc_cost,0.0,2.0,55.12048610020429,,ti14,1,2022-05-05_11h29.17.852,threat_forest,2021.2.3,59.99196104394372,True,60.0,0.6458333333333333,0.6458333333333333,0.17592592592592587,0.17592592592592587,1,0,1,0.033004799465795376,-0.1506076388888889,0.0,0.625,0.625,0.0,1.5,1.5,5.5,5.5,1.0,2.0,-1.0,4.0,0,0,0,1,-0.84
0.0,0.0,0.0,0.0,6.0,0.0,6.0,0.0,,,,right,0.6332030999474227,61.8129559000954,ti14,57.94320420036093,59.95433880016208,61.8129559000954,,True,2.0,['r'],False,0.5185185185185185,0.6666666666666666,0.2222222222222222,2.0,2.0,0.9327883776363328,-0.0532407407407407,succ_gain,1.0,4.0,59.95433880016208,,ti14,1,2022-05-05_11h29.17.852,threat_forest,2021.2.3,59.99196104394372,True,60.0,0.6458333333333333,0.6458333333333333,0.17592592592592587,0.17592592592592587,0,0,1,-0.456964055302768,-0.0532407407407407,0.5185185185185185,0.5185185185185185,0.6666666666666666,0.2222222222222222,0.9999999999999999,0.8518518518518517,2.8518518518518516,2.8518518518518516,0.0,2.0,-1.0,2.0,0,1,0,0,-0.0532407407407407
0.0,0.0,0.0,0.0,7.0,0.0,7.0,0.0,,,,right,1.47049369988963,65.89388660015538,ti14,65.89388660015538,,62.47127630002797,64.4708525002934,False,4.0,['r'],True,0.625,0.625,0.0,0.0,2.0,0.6021808102656677,0.0,wait_cost,0.0,3.0,64.4708525002934,,ti14,1,2022-05-05_11h29.17.852,threat_forest,2021.2.3,59.99196104394372,False,60.0,0.6458333333333333,0.6458333333333333,0.17592592592592587,0.17592592592592587,1,0,0,0.3855981946706234,0.0,0.0,0.625,0.625,0.0,1.5,1.5,5.5,5.5,1.0,2.0,1.0,4.0,0,0,0,1,-0.84
1.0,0.0,1.0,0.0,0.0,0.0,0.0,0.0,70.64038750017062,74.15430340031162,,left,1.5412213001400232,75.97969070030376,ti14,70.64038750017062,74.15430340031162,75.97969070030376,,False,4.0,['r'],False,0.4081632653061224,0.5714285714285714,0.2857142857142857,2.0,1.0,0.9885754083994552,0.0257810571799274,wait_cost,1.0,3.0,,,ti14,1,2022-05-05_11h29.17.852,threat_forest,2021.2.3,59.99196104394372,False,35.0,0.5357142857142857,0.5907738095238095,-0.7806122448979592,-0.30234315948601664,0,0,0,0.43257515416490533,0.0257810571799274,0.4081632653061224,0.4081632653061224,0.5714285714285714,0.2857142857142857,-0.1428571428571428,-0.061224489795918435,3.9387755102040813,3.9387755102040813,0.0,1.0,-1.0,4.0,0,1,0,0,0.0257810571799274
1.0,0.0,1.0,0.0,1.0,0.0,1.0,0.0,,,,left,1.6979684997349975,80.67549009993672,ti14,80.67549009993672,,77.53803870035335,79.5386331002228,True,3.0,['r'],True,0.5,0.5,0.0,0.0,1.0,0.6309297535714574,0.0991686602835485,unsucc_cost,0.0,1.0,79.5386331002228,,ti14,1,2022-05-05_11h29.17.852,threat_forest,2021.2.3,59.99196104394372,True,35.0,0.5357142857142857,0.5907738095238095,-0.7806122448979592,-0.30234315948601664,0,0,1,0.5294325363242598,0.0991686602835485,0.5,0.5,0.5,0.0,0.5,0.5,3.5,3.5,1.0,1.0,-1.0,3.0,0,1,0,0,0.0991686602835485
1.0,0.0,1.0,0.0,2.0,0.0,2.0,0.0,,,,left,1.5856800000183284,87.40689490037039,ti14,87.40689490037039,,77.53803870035335,79.5386331002228,True,1.0,['r'],True,0.5,0.5,0.0,0.0,1.0,0.6309297535714574,0.1232092107003671,unsucc_cost,0.0,0.0,84.40450170030817,,ti14,1,2022-05-05_11h29.17.852,threat_forest,2021.2.3,59.99196104394372,True,35.0,0.5357142857142857,0.5907738095238095,-0.7806122448979592,-0.30234315948601664,0,0,1,0.4610133374191616,0.1232092107003671,1.0,0.5,0.5,0.0,0.5,0.5,1.5,1.5,1.0,1.0,-1.0,1.0,1,1,0,0,0.625
2.0,0.0,2.0,0.0,0.0,0.0,0.0,0.0,92.19641009997576,95.6976012000814,,right,1.2529768999665976,96.51517150038852,ti14,96.51517150038852,,92.19641009997576,95.6976012000814,False,4.0,['p'],True,0.2962962962962963,0.3333333333333333,0.1111111111111111,1.0,1.0,0.8325252476189534,0.0071317107376875,wait_cost,0.0,3.0,,,ti14,1,2022-05-05_11h29.17.852,threat_forest,2021.2.3,59.99196104394372,False,4.0,0.4666666666666667,0.5011904761904762,-0.9911111111111113,-0.8858616780045352,0,0,0,0.22552223996314225,0.0071317107376875,0.2962962962962963,0.2962962962962963,0.3333333333333333,0.1111111111111111,-0.3333333333333335,-0.22222222222222232,3.7777777777777777,3.7777777777777777,1.0,1.0,-1.0,4.0,0,1,0,0,0.0071317107376875
2.0,0.0,2.0,0.0,1.0,0.0,1.0,0.0,,,,right,0.9334936998784542,102.11560390004888,ti14,97.7886161999777,99.78833530005068,102.11560390004888,,True,3.0,['p'],False,0.48,0.6,0.2,1.0,1.0,0.9455672104350704,0.0733394424822562,unsucc_cost,1.0,1.0,99.78833530005068,,ti14,1,2022-05-05_11h29.17.852,threat_forest,2021.2.3,59.99196104394372,True,4.0,0.4666666666666667,0.5011904761904762,-0.9911111111111113,-0.8858616780045352,1,0,1,-0.06882106494819629,0.0733394424822562,0.48,0.48,0.6,0.2,0.19999999999999984,0.23999999999999977,3.2399999999999998,3.2399999999999998,0.0,1.0,-1.0,3.0,0,1,0,1,0.0733394424822562
2.0,0.0,2.0,0.0,2.0,0.0,2.0,0.0,,,,right,0.7296815002337098,105.60767689999192,ti14,97.7886161999777,99.78833530005068,105.60767689999192,,True,1.0,['p'],False,0.48,0.6,0.2,1.0,1.0,0.9455672104350704,0.0961925945942385,succ_gain,1.0,2.0,105.07153660012408,,ti14,1,2022-05-05_11h29.17.852,threat_forest,2021.2.3,59.99196104394372,True,4.0,0.4666666666666667,0.5011904761904762,-0.9911111111111113,-0.8858616780045352,1,0,1,-0.31514714109640946,0.0961925945942385,1.0,0.48,0.6,0.2,0.19999999999999984,0.23999999999999977,1.2399999999999998,1.2399999999999998,0.0,1.0,-1.0,1.0,1,1,0,1,0.625
2.0,0.0,2.0,0.0,3.0,0.0,3.0,0.0,,,,right,1.2290012002922597,112.12532800016923,ti14,97.7886161999777,99.78833530005068,112.12532800016923,,True,2.0,['p'],False,0.48,0.6,0.2,1.0,1.0,0.9455672104350704,0.0638323814540466,succ_gain,1.0,3.0,108.35489790001884,,ti14,1,2022-05-05_11h29.17.852,threat_forest,2021.2.3,59.99196104394372,True,4.0,0.4666666666666667,0.5011904761904762,-0.9911111111111113,-0.8858616780045352,1,0,1,0.20620180722480383,0.0638323814540466,0.48,0.48,0.6,0.2,0.19999999999999984,0.23999999999999977,2.2399999999999998,2.2399999999999998,0.0,1.0,1.0,2.0,0,1,0,1,0.0638323814540466
2.0,0.0,2.0,0.0,4.0,0.0,4.0,0.0,,,,right,1.2866412000730634,118.34752070019022,ti14,118.34752070019022,,113.37217540014537,115.37158770021053,False,3.0,['p'],True,0.2962962962962963,0.3333333333333333,0.1111111111111111,1.0,1.0,0.8325252476189534,-0.0379347863638673,wait_cost,0.0,2.0,115.37158770021053,,ti14,1,2022-05-05_11h29.17.852,threat_forest,2021.2.3,59.99196104394372,False,4.0,0.4666666666666667,0.5011904761904762,-0.9911111111111113,-0.8858616780045352,0,0,0,0.25203510192342293,-0.0379347863638673,0.2962962962962963,0.2962962962962963,0.3333333333333333,0.1111111111111111,-0.3333333333333335,-0.22222222222222232,2.7777777777777777,2.7777777777777777,1.0,1.0,1.0,3.0,0,1,0,0,-0.0379347863638673
2.0,0.0,2.0,0.0,5.0,0.0,5.0,0.0,,,,right,1.128880700096488,122.44580370001496,ti14,119.6555034001358,121.65498120011762,122.44580370001496,,True,2.0,['p'],False,0.48,0.6,0.2,1.0,1.0,0.9455672104350704,0.0918518518518518,unsucc_cost,1.0,0.0,121.65498120011762,,ti14,1,2022-05-05_11h29.17.852,threat_forest,2021.2.3,59.99196104394372,True,4.0,0.4666666666666667,0.5011904761904762,-0.9911111111111113,-0.8858616780045352,1,0,1,0.12122661093627092,0.0918518518518518,0.48,0.48,0.6,0.2,0.19999999999999984,0.23999999999999977,2.2399999999999998,2.2399999999999998,0.0,1.0,-1.0,2.0,0,1,0,1,0.0918518518518518
3.0,0.0,3.0,0.0,0.0,0.0,0.0,0.0,129.16729910019785,132.6720440001227,,right,0.9028960997238756,136.0794083001092,ti14,129.16729910019785,132.6720440001227,136.0794083001092,,True,4.0,['p'],False,0.4444444444444445,0.6666666666666666,0.3333333333333333,1.0,1.0,0.9656336071428248,0.0433478243421047,succ_gain,1.0,5.0,,,ti14,1,2022-05-05_11h29.17.852,threat_forest,2021.2.3,59.99196104394372,True,13.0,0.47619047619047616,0.4714285714285714,-1.2040816326530612,-1.0975963718820863,1,0,1,-0.10214779339907064,0.0433478243421047,0.4444444444444445,0.4444444444444445,0.6666666666666666,0.3333333333333333,0.0,0.0,4.0,4.0,0.0,1.0,-1.0,4.0,0,1,0,1,0.0433478243421047
3.0,0.0,3.0,0.0,1.0,0.0,1.0,0.0,,,,right,0.7030215999111533,141.9753295001574,ti14,129.16729910019785,132.6720440001227,141.9753295001574,,True,5.0,['p'],False,0.4444444444444445,0.6666666666666666,0.3333333333333333,1.0,1.0,0.9656336071428248,0.0601653029098273,succ_gain,1.0,6.0,139.0055007999763,,ti14,1,2022-05-05_11h29.17.852,threat_forest,2021.2.3,59.99196104394372,True,13.0,0.47619047619047616,0.4714285714285714,-1.2040816326530612,-1.0975963718820863,1,0,1,-0.3523676623075634,0.0601653029098273,0.4444444444444445,0.4444444444444445,0.6666666666666666,0.3333333333333333,0.0,0.0,5.0,5.0,0.0,1.0,1.0,5.0,0,1,0,1,0.0601653029098273
3.0,0.0,3.0,0.0,2.0,0.0,2.0,0.0,,,,right,0.697492599952966,146.27555390028283,ti14,129.16729910019785,132.6720440001227,146.27555390028283,,True,6.0,['p'],False,0.4444444444444445,0.6666666666666666,0.3333333333333333,1.0,1.0,0.9656336071428248,0.0618863686432212,unsucc_cost,1.0,4.0,144.70527550019324,,ti14,1,2022-05-05_11h29.17.852,threat_forest,2021.2.3,59.99196104394372,True,13.0,0.47619047619047616,0.4714285714285714,-1.2040816326530612,-1.0975963718820863,1,0,1,-0.360263374729325,0.0618863686432212,0.4444444444444445,0.4444444444444445,0.6666666666666666,0.3333333333333333,0.0,0.0,6.0,6.0,0.0,1.0,1.0,6.0,0,1,0,1,0.0618863686432212
3.0,0.0,3.0,0.0,3.0,0.0,3.0,0.0,,,,right,1.0095556997694075,151.87427810020745,ti14,129.16729910019785,132.6720440001227,151.87427810020745,,True,4.0,['p'],False,0.4444444444444445,0.6666666666666666,0.3333333333333333,1.0,1.0,0.9656336071428248,0.0943966661251811,succ_gain,1.0,5.0,149.00532740028575,,ti14,1,2022-05-05_11h29.17.852,threat_forest,2021.2.3,59.99196104394372,True,13.0,0.47619047619047616,0.4714285714285714,-1.2040816326530612,-1.0975963718820863,1,0,1,0.009510332849833786,0.0943966661251811,0.4444444444444445,0.4444444444444445,0.6666666666666666,0.3333333333333333,0.0,0.0,4.0,4.0,0.0,1.0,-1.0,4.0,0,1,0,1,0.0943966661251811
3.0,0.0,3.0,0.0,4.0,0.0,4.0,0.0,,,,right,1.068516300059855,157.58652260014787,ti14,157.58652260014787,,152.90585820004344,154.90561630018055,False,5.0,['p'],True,0.2448979591836734,0.2857142857142857,0.1428571428571428,1.0,1.0,0.8400769154957735,-0.3996674980788742,wait_cost,0.0,4.0,154.90561630018055,,ti14,1,2022-05-05_11h29.17.852,threat_forest,2021.2.3,59.99196104394372,False,13.0,0.47619047619047616,0.4714285714285714,-1.2040816326530612,-1.0975963718820863,0,0,0,0.06627105074714185,-0.3996674980788742,0.0,0.2448979591836734,0.2857142857142857,0.1428571428571428,-0.5714285714285712,-0.40816326530612246,4.591836734693878,4.591836734693878,1.0,1.0,1.0,5.0,0,0,0,0,-0.84
3.0,0.0,3.0,0.0,5.0,0.0,5.0,0.0,,,,right,1.8206906002014875,163.70786660024896,ti14,163.70786660024896,,152.90585820004344,154.90561630018055,False,4.0,['p'],True,0.2448979591836734,0.2857142857142857,0.1428571428571428,1.0,1.0,0.8400769154957735,-0.464297283539266,wait_cost,0.0,3.0,160.67230990016833,,ti14,1,2022-05-05_11h29.17.852,threat_forest,2021.2.3,59.99196104394372,False,13.0,0.47619047619047616,0.4714285714285714,-1.2040816326530612,-1.0975963718820863,0,0,0,0.5992158797756665,-0.464297283539266,0.0,0.2448979591836734,0.2857142857142857,0.1428571428571428,-0.5714285714285712,-0.40816326530612246,3.5918367346938775,3.5918367346938775,1.0,1.0,-1.0,4.0,0,0,0,0,-0.84
3.0,0.0,3.0,0.0,6.0,0.0,6.0,0.0,,,,right,0.8875033003278077,168.14751660032198,ti14,165.5561970002018,167.55629280023277,168.14751660032198,,True,3.0,['p'],False,0.4444444444444445,0.6666666666666666,0.3333333333333333,1.0,1.0,0.9656336071428248,-0.4789619551524313,unsucc_cost,1.0,1.0,167.55629280023277,,ti14,1,2022-05-05_11h29.17.852,threat_forest,2021.2.3,59.99196104394372,True,13.0,0.47619047619047616,0.4714285714285714,-1.2040816326530612,-1.0975963718820863,1,0,1,-0.11934303896026056,-0.4789619551524313,0.0,0.4444444444444445,0.6666666666666666,0.3333333333333333,0.0,0.0,3.0,3.0,0.0,1.0,-1.0,3.0,0,0,0,1,-0.84
3.0,0.0,3.0,0.0,7.0,0.0,7.0,0.0,,,,right,1.1994449002668262,173.02819250011817,ti14,173.02819250011817,,169.0561279002577,171.05579830007628,False,1.0,['p'],True,0.2448979591836734,0.2857142857142857,0.1428571428571428,1.0,1.0,0.8400769154957735,0.2448979591836735,wait_cost,0.0,0.0,171.05579830007628,,ti14,1,2022-05-05_11h29.17.852,threat_forest,2021.2.3,59.99196104394372,False,13.0,0.47619047619047616,0.4714285714285714,-1.2040816326530612,-1.0975963718820863,0,0,0,0.1818588666584027,0.2448979591836735,1.0,0.2448979591836734,0.2857142857142857,0.1428571428571428,-0.5714285714285712,-0.40816326530612246,0.5918367346938775,1.0,1.0,1.0,-1.0,1.0,1,1,0,0,0.625
4.0,0.0,4.0,0.0,0.0,0.0,0.0,0.0,179.46696210000664,182.9729394000024,,left,1.0135457003489137,184.13262790022415,ti14,184.13262790022415,,179.46696210000664,182.9729394000024,True,4.0,['r'],True,0.6,0.6,0.0,0.0,2.0,0.6126016192893442,0.1103326303155006,unsucc_cost,0.0,2.0,,,ti14,1,2022-05-05_11h29.17.852,threat_forest,2021.2.3,59.99196104394372,True,47.0,0.6333333333333333,0.5547619047619048,-0.07777777777777783,-0.6409297052154195,1,1,1,0.01345477750547114,0.1103326303155006,0.6,0.6,0.6,0.0,1.4,1.4,5.4,5.4,1.0,2.0,-1.0,4.0,0,1,1,1,0.1103326303155006
4.0,0.0,4.0,0.0,1.0,0.0,1.0,0.0,,,,right,1.5382469999603927,188.0126650002785,ti14,185.1731305001304,187.17270060023293,188.0126650002785,,True,2.0,['r'],False,0.4444444444444445,0.6666666666666666,0.3333333333333333,2.0,2.0,0.9656336071428248,-0.0246986785550983,figh_cost,1.0,0.0,187.17270060023293,,ti14,1,2022-05-05_11h29.17.852,threat_forest,2021.2.3,59.99196104394372,True,47.0,0.6333333333333333,0.5547619047619048,-0.07777777777777783,-0.6409297052154195,1,0,1,0.43064345634265067,-0.0246986785550983,0.4444444444444445,0.4444444444444445,0.6666666666666666,0.3333333333333333,0.6666666666666665,0.4444444444444444,2.4444444444444446,2.4444444444444446,0.0,2.0,-1.0,2.0,0,1,0,1,-0.0246986785550983
5.0,0.0,5.0,0.0,0.0,0.0,0.0,0.0,192.6511666001752,196.1568162003532,,right,1.0476957000792029,197.31707570003343,ti14,192.6511666001752,196.1568162003532,197.31707570003343,,True,4.0,['r'],False,0.25,0.5,0.5,2.0,1.0,0.9463946303571862,0.0015300455080301,succ_gain,1.0,5.0,,,ti14,1,2022-05-05_11h29.17.852,threat_forest,2021.2.3,59.99196104394372,True,43.0,0.41666666666666663,0.5249999999999999,-1.375,-0.726388888888889,0,0,1,0.0465931812156474,0.0015300455080301,0.25,0.25,0.5,0.5,-1.0,-0.75,3.25,3.25,0.0,1.0,-1.0,4.0,0,1,0,0,0.0015300455080301
5.0,0.0,5.0,0.0,1.0,0.0,1.0,0.0,,,,right,1.1922779995948076,203.81155040021983,ti14,192.6511666001752,196.1568162003532,203.81155040021983,,True,5.0,['r'],False,0.25,0.5,0.5,2.0,1.0,0.9463946303571862,-0.0155667591487427,figh_cost,1.0,2.0,200.3894899003208,,ti14,1,2022-05-05_11h29.17.852,threat_forest,2021.2.3,59.99196104394372,True,43.0,0.41666666666666663,0.5249999999999999,-1.375,-0.726388888888889,0,0,1,0.17586576258792005,-0.0155667591487427,0.25,0.25,0.5,0.5,-1.0,-0.75,4.25,4.25,0.0,1.0,1.0,5.0,0,1,0,0,-0.0155667591487427
5.0,0.0,5.0,0.0,2.0,0.0,2.0,0.0,,,,left,1.0264448001980782,208.9956678999588,ti14,208.9956678999588,,205.02329490007835,207.023374600336,True,2.0,['r'],True,0.3333333333333333,0.3333333333333333,0.0,0.0,1.0,0.5793801642856949,0.0247486255787037,unsucc_cost,0.0,0.0,207.023374600336,,ti14,1,2022-05-05_11h29.17.852,threat_forest,2021.2.3,59.99196104394372,True,43.0,0.41666666666666663,0.5249999999999999,-1.375,-0.726388888888889,0,0,1,0.026101181260432902,0.0247486255787037,0.3333333333333333,0.3333333333333333,0.3333333333333333,0.0,-2.220446049250313e-16,-2.220446049250313e-16,1.9999999999999998,1.9999999999999998,1.0,1.0,-1.0,2.0,0,1,0,0,0.0247486255787037
6.0,0.0,6.0,0.0,0.0,0.0,0.0,0.0,213.8014237000607,217.306266900152,,right,0.8616450000554323,220.01405810005963,ti14,220.01405810005963,,213.8014237000607,217.306266900152,False,4.0,['r'],True,0.2222222222222222,0.6666666666666666,0.6666666666666666,2.0,2.0,0.77250688571426,-0.0834227138822206,wait_cost,0.0,3.0,,,ti14,1,2022-05-05_11h29.17.852,threat_forest,2021.2.3,59.99196104394372,False,49.0,0.5833333333333333,0.49999999999999994,-0.888888888888889,-1.1319444444444444,0,0,0,-0.1489119260272249,-0.0834227138822206,0.2222222222222222,0.2222222222222222,0.6666666666666666,0.6666666666666666,-0.3333333333333335,-0.7777777777777779,3.2222222222222223,3.2222222222222223,1.0,2.0,-1.0,4.0,0,1,0,0,-0.0834227138822206
6.0,0.0,6.0,0.0,1.0,0.0,1.0,0.0,,,,right,1.4986091000027957,223.7763311001472,ti14,223.7763311001472,,213.8014237000607,217.306266900152,False,3.0,['r'],True,0.2222222222222222,0.6666666666666666,0.6666666666666666,2.0,2.0,0.77250688571426,-0.0836893670934308,wait_cost,0.0,2.0,222.92328520026055,,ti14,1,2022-05-05_11h29.17.852,threat_forest,2021.2.3,59.99196104394372,False,49.0,0.5833333333333333,0.49999999999999994,-0.888888888888889,-1.1319444444444444,0,0,0,0.4045374112656808,-0.0836893670934308,0.2222222222222222,0.2222222222222222,0.6666666666666666,0.6666666666666666,-0.3333333333333335,-0.7777777777777779,2.2222222222222223,2.2222222222222223,1.0,2.0,-1.0,3.0,0,1,0,0,-0.0836893670934308
6.0,0.0,6.0,0.0,2.0,0.0,2.0,0.0,,,,right,0.912655099760741,230.5276754000224,ti14,225.30759580014276,227.30675690015775,230.5276754000224,,True,2.0,['r'],False,0.5,0.5,0.0,0.0,2.0,0.6309297535714574,0.1170910493827159,unsucc_cost,1.0,0.0,227.30675690015775,,ti14,1,2022-05-05_11h29.17.852,threat_forest,2021.2.3,59.99196104394372,True,49.0,0.5833333333333333,0.49999999999999994,-0.888888888888889,-1.1319444444444444,1,1,1,-0.09139723562861402,0.1170910493827159,0.5,0.5,0.5,0.0,1.0,1.0,3.0,3.0,0.0,2.0,-1.0,2.0,0,1,1,1,0.1170910493827159
7.0,0.0,7.0,0.0,0.0,0.0,0.0,0.0,234.8681705002673,238.37370060011744,,right,0.7369703003205359,240.8137427000329,ti14,234.8681705002673,238.37370060011744,240.8137427000329,,True,5.0,['r'],False,0.3333333333333333,0.3333333333333333,0.0,0.0,2.0,0.5793801642856949,0.0388172421765338,unsucc_cost,1.0,3.0,,,ti14,1,2022-05-05_11h29.17.852,threat_forest,2021.2.3,59.99196104394372,True,40.0,0.35416666666666663,0.46874999999999994,-0.8958333333333335,-0.8923611111111112,1,0,1,-0.3052076856773325,0.0388172421765338,0.3333333333333333,0.3333333333333333,0.3333333333333333,0.0,0.33333333333333315,0.33333333333333315,5.333333333333333,5.333333333333333,0.0,2.0,-1.0,5.0,0,1,0,1,0.0388172421765338
7.0,0.0,7.0,0.0,1.0,0.0,1.0,0.0,,,,right,1.6987018999643624,245.73265670007092,ti14,245.73265670007092,,241.57406220026317,243.5735088000074,False,3.0,['r'],True,0.28125,0.375,0.25,2.0,2.0,0.9634951148421658,0.0525198115612938,wait_cost,0.0,2.0,243.5735088000074,,ti14,1,2022-05-05_11h29.17.852,threat_forest,2021.2.3,59.99196104394372,False,40.0,0.35416666666666663,0.46874999999999994,-0.8958333333333335,-0.8923611111111112,0,0,0,0.5298643711239077,0.0525198115612938,0.28125,0.28125,0.375,0.25,-0.25,-0.125,2.875,2.875,1.0,2.0,-1.0,3.0,0,1,0,0,0.0525198115612938
7.0,0.0,7.0,0.0,2.0,0.0,2.0,0.0,,,,left,1.7053112001158297,250.61432310007515,ti14,250.61432310007515,,241.57406220026317,243.5735088000074,True,2.0,['r'],True,0.28125,0.375,0.25,2.0,2.0,0.9634951148421658,-0.0033863208912037,unsucc_cost,0.0,0.0,249.4568885001354,,ti14,1,2022-05-05_11h29.17.852,threat_forest,2021.2.3,59.99196104394372,True,40.0,0.35416666666666663,0.46874999999999994,-0.8958333333333335,-0.8923611111111112,0,0,1,0.5337476161424254,-0.0033863208912037,0.28125,0.28125,0.375,0.25,-0.25,-0.125,1.875,1.875,1.0,2.0,-1.0,2.0,0,1,0,0,-0.0033863208912037
8.0,0.0,8.0,0.0,0.0,0.0,0.0,0.0,255.310937799979,258.8093138001859,,left,0.9720242000184952,260.7351906001568,ti14,260.7351906001568,,255.310937799979,258.8093138001859,True,4.0,['p'],True,0.2,0.2,0.0,0.0,2.0,0.4554859150035951,-0.0032236882400512,succ_gain,0.0,6.0,,,ti14,1,2022-05-05_11h29.17.852,threat_forest,2021.2.3,59.99196104394372,True,45.0,0.35,0.3520833333333333,-0.9750000000000001,-0.9354166666666668,0,0,1,-0.028374577693257023,-0.0032236882400512,0.2,0.2,0.2,0.0,-0.20000000000000018,-0.20000000000000018,3.8,3.8,1.0,2.0,-1.0,4.0,0,1,0,0,-0.0032236882400512
8.0,0.0,8.0,0.0,1.0,0.0,1.0,0.0,,,,right,1.4493848998099566,265.1310649001971,ti14,261.72445270000026,263.72400910034776,265.1310649001971,,True,6.0,['p'],False,0.375,0.5,0.25,1.0,2.0,0.9850568223215076,-0.0734960487365723,unsucc_cost,1.0,4.0,263.72400910034776,,ti14,1,2022-05-05_11h29.17.852,threat_forest,2021.2.3,59.99196104394372,True,45.0,0.35,0.3520833333333333,-0.9750000000000001,-0.9354166666666668,1,1,1,0.37113925940361203,-0.0734960487365723,0.375,0.375,0.5,0.25,0.25,0.25,6.25,6.25,0.0,2.0,1.0,6.0,0,1,1,1,-0.0734960487365723
8.0,0.0,8.0,0.0,2.0,0.0,2.0,0.0,,,,right,1.570329399779439,270.7114069000818,ti14,261.72445270000026,263.72400910034776,270.7114069000818,,True,4.0,['p'],False,0.375,0.5,0.25,1.0,2.0,0.9850568223215076,0.0911043701171874,unsucc_cost,1.0,2.0,268.6072041001171,,ti14,1,2022-05-05_11h29.17.852,threat_forest,2021.2.3,59.99196104394372,True,45.0,0.35,0.3520833333333333,-0.9750000000000001,-0.9354166666666668,1,1,1,0.4512854061301461,0.0911043701171874,0.375,0.375,0.5,0.25,0.25,0.25,4.25,4.25,0.0,2.0,-1.0,4.0,0,1,1,1,0.0911043701171874
8.0,0.0,8.0,0.0,3.0,0.0,3.0,0.0,,,,right,1.5645924001000822,276.5589483999647,ti14,261.72445270000026,263.72400910034776,276.5589483999647,,True,2.0,['p'],False,0.375,0.5,0.25,1.0,2.0,0.9850568223215076,0.0630507812499999,succ_gain,1.0,4.0,274.3072858001105,,ti14,1,2022-05-05_11h29.17.852,threat_forest,2021.2.3,59.99196104394372,True,45.0,0.35,0.3520833333333333,-0.9750000000000001,-0.9354166666666668,1,1,1,0.4476253428494543,0.0630507812499999,0.375,0.375,0.5,0.25,0.25,0.25,2.25,2.25,0.0,2.0,-1.0,2.0,0,1,1,1,0.0630507812499999
8.0,0.0,8.0,0.0,4.0,0.0,4.0,0.0,,,,right,1.5698384996503592,280.7178438003175,ti14,280.7178438003175,,278.1413968000561,280.1409035003744,False,4.0,['p'],True,0.2,0.2,0.0,0.0,2.0,0.4554859150035951,0.00859375,wait_cost,0.0,3.0,280.1409035003744,,ti14,1,2022-05-05_11h29.17.852,threat_forest,2021.2.3,59.99196104394372,False,45.0,0.35,0.3520833333333333,-0.9750000000000001,-0.9354166666666668,0,0,0,0.4509727476043597,0.00859375,0.2,0.2,0.2,0.0,-0.20000000000000018,-0.20000000000000018,3.8,3.8,1.0,2.0,1.0,4.0,0,1,0,0,0.00859375
8.0,0.0,8.0,0.0,5.0,0.0,5.0,0.0,,,,right,1.2683898000977931,287.4288527001627,ti14,282.3081864002161,284.30753570003435,287.4288527001627,,True,3.0,['p'],False,0.375,0.5,0.25,1.0,2.0,0.9850568223215076,0.1515624999999999,succ_gain,1.0,5.0,284.30753570003435,,ti14,1,2022-05-05_11h29.17.852,threat_forest,2021.2.3,59.99196104394372,True,45.0,0.35,0.3520833333333333,-0.9750000000000001,-0.9354166666666668,1,1,1,0.23774822209957444,0.1515624999999999,0.375,0.375,0.5,0.25,0.25,0.25,3.25,3.25,0.0,2.0,-1.0,3.0,0,1,1,1,0.1515624999999999
8.0,0.0,8.0,0.0,6.0,0.0,6.0,0.0,,,,right,1.4822172997519374,294.1485033002682,ti14,294.1485033002682,,288.72448820015416,290.7247562003322,False,5.0,['p'],True,0.2,0.2,0.0,0.0,2.0,0.4554859150035951,0.0,wait_cost,0.0,4.0,290.7247562003322,,ti14,1,2022-05-05_11h29.17.852,threat_forest,2021.2.3,59.99196104394372,False,45.0,0.35,0.3520833333333333,-0.9750000000000001,-0.9354166666666668,0,0,0,0.3935391421388049,0.0,0.0,0.2,0.2,0.0,-0.20000000000000018,-0.20000000000000018,4.8,4.8,1.0,2.0,1.0,5.0,0,0,0,0,-0.84
8.0,0.0,8.0,0.0,7.0,0.0,7.0,0.0,,,,right,1.7399687999859452,299.2790151000954,ti14,295.6579158999957,297.6576408999972,299.2790151000954,,True,4.0,['p'],False,0.375,0.5,0.25,1.0,2.0,0.9850568223215076,0.0,succ_gain,1.0,6.0,297.6576408999972,,ti14,1,2022-05-05_11h29.17.852,threat_forest,2021.2.3,59.99196104394372,True,45.0,0.35,0.3520833333333333,-0.9750000000000001,-0.9354166666666668,1,1,1,0.5538671820231144,0.0,0.0,0.375,0.5,0.25,0.25,0.25,4.25,4.25,0.0,2.0,-1.0,4.0,0,0,1,1,-0.84
9.0,0.0,9.0,0.0,0.0,0.0,0.0,0.0,304.9060380002484,308.40767300035805,,left,1.9238925999961796,309.6839939001948,ti14,309.6839939001948,,304.9060380002484,308.40767300035805,True,4.0,['r'],True,0.3333333333333333,0.3333333333333333,0.0,0.0,2.0,0.5793801642856949,0.0326749431231451,succ_gain,0.0,6.0,,,ti14,1,2022-05-05_11h29.17.852,threat_forest,2021.2.3,59.99196104394372,True,10.0,0.35416666666666663,0.3520833333333333,-0.8958333333333335,-0.9354166666666668,1,0,1,0.6543505294776463,0.0326749431231451,0.3333333333333333,0.3333333333333333,0.3333333333333333,0.0,0.33333333333333315,0.33333333333333315,4.333333333333333,4.333333333333333,1.0,2.0,1.0,4.0,0,1,0,1,0.0326749431231451
9.0,0.0,9.0,0.0,1.0,0.0,1.0,0.0,,,,left,0.8992210002616048,316.0008994000964,ti14,311.62499239994213,313.6244389000349,316.0008994000964,,False,6.0,['r'],False,0.28125,0.375,0.25,2.0,2.0,0.9634951148421658,-0.1073108765070514,wait_cost,1.0,5.0,313.6244389000349,,ti14,1,2022-05-05_11h29.17.852,threat_forest,2021.2.3,59.99196104394372,False,10.0,0.35416666666666663,0.3520833333333333,-0.8958333333333335,-0.9354166666666668,0,0,0,-0.10622644573196251,-0.1073108765070514,0.28125,0.28125,0.375,0.25,-0.25,-0.125,5.875,5.875,0.0,2.0,1.0,6.0,0,1,0,0,-0.1073108765070514
9.0,0.0,9.0,0.0,2.0,0.0,2.0,0.0,,,,left,0.9117216998711228,320.1636085002683,ti14,320.1636085002683,,316.9251149003394,318.9247524002567,True,5.0,['r'],True,0.3333333333333333,0.3333333333333333,0.0,0.0,2.0,0.5793801642856949,0.0799125393722283,unsucc_cost,0.0,3.0,318.9247524002567,,ti14,1,2022-05-05_11h29.17.852,threat_forest,2021.2.3,59.99196104394372,True,10.0,0.35416666666666663,0.3520833333333333,-0.8958333333333335,-0.9354166666666668,1,0,1,-0.09242048912673936,0.0799125393722283,0.3333333333333333,0.3333333333333333,0.3333333333333333,0.0,0.33333333333333315,0.33333333333333315,5.333333333333333,5.333333333333333,1.0,2.0,-1.0,5.0,0,1,0,1,0.0799125393722283
9.0,0.0,9.0,0.0,3.0,0.0,3.0,0.0,,,,left,1.0723386998288331,325.2651860001497,ti14,321.0954483002424,323.10807189997286,325.2651860001497,,False,3.0,['r'],False,0.28125,0.375,0.25,2.0,2.0,0.9634951148421658,0.0303292936748929,wait_cost,1.0,2.0,323.10807189997286,,ti14,1,2022-05-05_11h29.17.852,threat_forest,2021.2.3,59.99196104394372,False,10.0,0.35416666666666663,0.3520833333333333,-0.8958333333333335,-0.9354166666666668,0,0,0,0.06984196407936541,0.0303292936748929,0.28125,0.28125,0.375,0.25,-0.25,-0.125,2.875,2.875,0.0,2.0,-1.0,3.0,0,1,0,0,0.0303292936748929
9.0,0.0,9.0,0.0,4.0,0.0,4.0,0.0,,,,left,0.9610663997009397,331.1625900003128,ti14,331.1625900003128,,326.358668200206,328.3580567999743,True,2.0,['r'],True,0.3333333333333333,0.3333333333333333,0.0,0.0,2.0,0.5793801642856949,0.0260416666666666,unsucc_cost,0.0,0.0,328.3580567999743,,ti14,1,2022-05-05_11h29.17.852,threat_forest,2021.2.3,59.99196104394372,True,10.0,0.35416666666666663,0.3520833333333333,-0.8958333333333335,-0.9354166666666668,1,0,1,-0.03971177801692034,0.0260416666666666,0.3333333333333333,0.3333333333333333,0.3333333333333333,0.0,0.33333333333333315,0.33333333333333315,2.333333333333333,2.333333333333333,1.0,2.0,-1.0,2.0,0,1,0,1,0.0260416666666666
10.0,0.0,10.0,0.0,0.0,0.0,0.0,0.0,336.37017270037904,339.8750764001161,,right,1.189521700143814,340.6705212001689,ti14,336.37017270037904,339.8750764001161,340.6705212001689,,True,5.0,['p'],False,0.2448979591836734,0.2857142857142857,0.1428571428571428,1.0,2.0,0.8400769154957735,-0.0142294939424326,unsucc_cost,1.0,3.0,,,ti14,1,2022-05-05_11h29.17.852,threat_forest,2021.2.3,59.99196104394372,True,42.0,0.39285714285714285,0.37351190476190477,-0.9566326530612245,-0.926232993197279,0,0,1,0.1735512936746019,-0.0142294939424326,0.2448979591836734,0.2448979591836734,0.2857142857142857,0.1428571428571428,-0.2857142857142856,-0.16326530612244894,4.836734693877551,4.836734693877551,0.0,2.0,-1.0,5.0,0,1,0,0,-0.0142294939424326
10.0,0.0,10.0,0.0,1.0,0.0,1.0,0.0,,,,left,1.726013499777764,346.46415190026164,ti14,346.46415190026164,,341.8922280999832,343.89173889998347,True,3.0,['p'],True,0.375,0.5,0.25,1.0,2.0,0.9850568223215076,0.078614571109881,unsucc_cost,0.0,1.0,343.89173889998347,,ti14,1,2022-05-05_11h29.17.852,threat_forest,2021.2.3,59.99196104394372,True,42.0,0.39285714285714285,0.37351190476190477,-0.9566326530612245,-0.926232993197279,1,1,1,0.5458144140546143,0.078614571109881,0.375,0.375,0.5,0.25,0.25,0.25,3.25,3.25,1.0,2.0,-1.0,3.0,0,1,1,1,0.078614571109881
10.0,0.0,10.0,0.0,2.0,0.0,2.0,0.0,,,,right,1.945598800200969,352.2500820001587,ti14,348.2091066003777,350.20860240003094,352.2500820001587,,True,1.0,['p'],False,0.2448979591836734,0.2857142857142857,0.1428571428571428,1.0,2.0,0.8400769154957735,0.0944428399033169,succ_gain,1.0,3.0,350.20860240003094,,ti14,1,2022-05-05_11h29.17.852,threat_forest,2021.2.3,59.99196104394372,True,42.0,0.39285714285714285,0.37351190476190477,-0.9566326530612245,-0.926232993197279,0,0,1,0.665569796116499,0.0944428399033169,1.0,0.2448979591836734,0.2857142857142857,0.1428571428571428,-0.2857142857142856,-0.16326530612244894,0.8367346938775511,1.0,0.0,2.0,-1.0,1.0,1,1,0,0,0.625
10.0,0.0,10.0,0.0,3.0,0.0,3.0,0.0,,,,left,1.93016770016402,357.4282103003934,ti14,348.2091066003777,350.20860240003094,357.4282103003934,,False,3.0,['p'],False,0.2448979591836734,0.2857142857142857,0.1428571428571428,1.0,2.0,0.8400769154957735,-0.0097255873504729,wait_cost,1.0,2.0,356.2251242999919,,ti14,1,2022-05-05_11h29.17.852,threat_forest,2021.2.3,59.99196104394372,False,42.0,0.39285714285714285,0.37351190476190477,-0.9566326530612245,-0.926232993197279,0,0,0,0.6576068904186602,-0.0097255873504729,0.2448979591836734,0.2448979591836734,0.2857142857142857,0.1428571428571428,-0.2857142857142856,-0.16326530612244894,2.836734693877551,2.836734693877551,0.0,2.0,1.0,3.0,0,1,0,0,-0.0097255873504729
10.0,0.0,10.0,0.0,4.0,0.0,4.0,0.0,,,,right,1.1323231998831034,362.4107914003544,ti14,348.2091066003777,350.20860240003094,362.4107914003544,,True,2.0,['p'],False,0.2448979591836734,0.2857142857142857,0.1428571428571428,1.0,2.0,0.8400769154957735,-0.0650510204081632,unsucc_cost,1.0,0.0,361.3754094000906,,ti14,1,2022-05-05_11h29.17.852,threat_forest,2021.2.3,59.99196104394372,True,42.0,0.39285714285714285,0.37351190476190477,-0.9566326530612245,-0.926232993197279,0,0,1,0.12427145129434666,-0.0650510204081632,0.2448979591836734,0.2448979591836734,0.2857142857142857,0.1428571428571428,-0.2857142857142856,-0.16326530612244894,1.836734693877551,1.836734693877551,0.0,2.0,-1.0,2.0,0,1,0,0,-0.0650510204081632
11.0,0.0,11.0,0.0,0.0,0.0,0.0,0.0,368.7543422002345,372.2590920999646,,left,1.1084493002854288,373.70384080009535,ti14,368.7543422002345,372.2590920999646,373.70384080009535,,False,4.0,['p'],False,0.27,0.3,0.1,1.0,1.0,0.7963326591781347,0.00800026338778,wait_cost,1.0,3.0,,,ti14,1,2022-05-05_11h29.17.852,threat_forest,2021.2.3,59.99196104394372,False,6.0,0.4833333333333333,0.4380952380952381,-1.145,-1.0508163265306123,0,0,0,0.10296201180265604,0.00800026338778,0.27,0.27,0.3,0.1,-0.3999999999999999,-0.29000000000000004,3.71,3.71,0.0,1.0,-1.0,4.0,0,1,0,0,0.00800026338778
11.0,0.0,11.0,0.0,1.0,0.0,1.0,0.0,,,,right,0.7186598000116646,377.3799842000008,ti14,368.7543422002345,372.2590920999646,377.3799842000008,,True,3.0,['p'],False,0.27,0.3,0.1,1.0,1.0,0.7963326591781347,0.0245610646182661,unsucc_cost,1.0,1.0,376.8588601001538,,ti14,1,2022-05-05_11h29.17.852,threat_forest,2021.2.3,59.99196104394372,True,6.0,0.4833333333333333,0.4380952380952381,-1.145,-1.0508163265306123,0,0,1,-0.33036719038175794,0.0245610646182661,0.27,0.27,0.3,0.1,-0.3999999999999999,-0.29000000000000004,2.71,2.71,0.0,1.0,-1.0,3.0,0,1,0,0,0.0245610646182661
11.0,0.0,11.0,0.0,2.0,0.0,2.0,0.0,,,,right,1.3152426001615822,382.3301449003629,ti14,368.7543422002345,372.2590920999646,382.3301449003629,,True,1.0,['p'],False,0.27,0.3,0.1,1.0,1.0,0.7963326591781347,0.0456430979938271,unsucc_cost,1.0,0.0,380.1255574002862,,ti14,1,2022-05-05_11h29.17.852,threat_forest,2021.2.3,59.99196104394372,True,6.0,0.4833333333333333,0.4380952380952381,-1.145,-1.0508163265306123,0,0,1,0.2740211354290196,0.0456430979938271,1.0,0.27,0.3,0.1,-0.3999999999999999,-0.29000000000000004,0.71,1.0,0.0,1.0,-1.0,1.0,1,1,0,0,0.625
12.0,0.0,12.0,0.0,0.0,0.0,0.0,0.0,389.0429036002606,392.54171700030565,,right,1.1139130997471511,393.28552479995415,ti14,389.0429036002606,392.54171700030565,393.28552479995415,,True,4.0,['p'],False,0.2777777777777778,0.3333333333333333,0.1666666666666666,1.0,2.0,0.8929352898779304,0.0253296004142655,succ_gain,1.0,6.0,,,ti14,1,2022-05-05_11h29.17.852,threat_forest,2021.2.3,59.99196104394372,True,54.0,0.2777777777777778,0.38055555555555554,-1.1882716049382718,-1.166635802469136,1,0,1,0.10787913105405378,0.0253296004142655,0.2777777777777778,0.2777777777777778,0.3333333333333333,0.1666666666666666,-0.16666666666666652,-0.05555555555555558,3.9444444444444446,3.9444444444444446,0.0,2.0,-1.0,4.0,0,1,0,1,0.0253296004142655
12.0,0.0,12.0,0.0,1.0,0.0,1.0,0.0,,,,right,1.0751673998311162,399.3545405999757,ti14,399.3545405999757,,394.4265356003307,396.4263276001439,False,6.0,['p'],True,0.1975308641975308,0.2222222222222222,0.1111111111111111,1.0,2.0,0.7461067557824965,-0.0870428740192486,wait_cost,0.0,5.0,396.4263276001439,,ti14,1,2022-05-05_11h29.17.852,threat_forest,2021.2.3,59.99196104394372,False,54.0,0.2777777777777778,0.38055555555555554,-1.1882716049382718,-1.166635802469136,0,0,0,0.07247637022953642,-0.0870428740192486,0.1975308641975308,0.1975308641975308,0.2222222222222222,0.1111111111111111,-0.4444444444444444,-0.32098765432098775,5.679012345679013,5.679012345679013,1.0,2.0,1.0,6.0,0,1,0,0,-0.0870428740192486
12.0,0.0,12.0,0.0,2.0,0.0,2.0,0.0,,,,right,1.0031723002903163,405.8808143003844,ti14,405.8808143003844,,394.4265356003307,396.4263276001439,False,5.0,['p'],True,0.1975308641975308,0.2222222222222222,0.1111111111111111,1.0,2.0,0.7461067557824965,0.0020436001209005,wait_cost,0.0,4.0,402.4594256002456,,ti14,1,2022-05-05_11h29.17.852,threat_forest,2021.2.3,59.99196104394372,False,54.0,0.2777777777777778,0.38055555555555554,-1.1882716049382718,-1.166635802469136,0,0,0,0.0031672791619658355,0.0020436001209005,0.1975308641975308,0.1975308641975308,0.2222222222222222,0.1111111111111111,-0.4444444444444444,-0.32098765432098775,4.679012345679013,4.679012345679013,1.0,2.0,-1.0,5.0,0,1,0,0,0.0020436001209005
12.0,0.0,12.0,0.0,3.0,0.0,3.0,0.0,,,,right,1.7568974997848272,411.2972760000266,ti14,411.2972760000266,,394.4265356003307,396.4263276001439,False,4.0,['p'],True,0.1975308641975308,0.2222222222222222,0.1111111111111111,1.0,2.0,0.7461067557824965,7.141876729699348e-05,wait_cost,0.0,3.0,408.90963490027934,,ti14,1,2022-05-05_11h29.17.852,threat_forest,2021.2.3,59.99196104394372,False,54.0,0.2777777777777778,0.38055555555555554,-1.1882716049382718,-1.166635802469136,0,0,0,0.5635494693044889,7.141876729699348e-05,0.1975308641975308,0.1975308641975308,0.2222222222222222,0.1111111111111111,-0.4444444444444444,-0.32098765432098775,3.6790123456790123,3.6790123456790123,1.0,2.0,-1.0,4.0,0,1,0,0,7.141876729699348e-05
12.0,0.0,12.0,0.0,4.0,0.0,4.0,0.0,,,,right,1.5241235997527838,416.1488689002581,ti14,413.0767100001685,415.076171700377,416.1488689002581,,True,3.0,['p'],False,0.2777777777777778,0.3333333333333333,0.1666666666666666,1.0,2.0,0.8929352898779304,0.1520919067215363,unsucc_cost,1.0,1.0,415.076171700377,,ti14,1,2022-05-05_11h29.17.852,threat_forest,2021.2.3,59.99196104394372,True,54.0,0.2777777777777778,0.38055555555555554,-1.1882716049382718,-1.166635802469136,1,0,1,0.42141955617583826,0.1520919067215363,0.2777777777777778,0.2777777777777778,0.3333333333333333,0.1666666666666666,-0.16666666666666652,-0.05555555555555558,2.9444444444444446,2.9444444444444446,0.0,2.0,-1.0,3.0,0,1,0,1,0.1520919067215363
12.0,0.0,12.0,0.0,5.0,0.0,5.0,0.0,,,,right,0.8160701999440789,421.94554580003023,ti14,413.0767100001685,415.076171700377,421.94554580003023,,True,1.0,['p'],False,0.2777777777777778,0.3333333333333333,0.1666666666666666,1.0,2.0,0.8929352898779304,0.2777777777777777,unsucc_cost,1.0,0.0,419.692890400067,,ti14,1,2022-05-05_11h29.17.852,threat_forest,2021.2.3,59.99196104394372,True,54.0,0.2777777777777778,0.38055555555555554,-1.1882716049382718,-1.166635802469136,1,0,1,-0.2032548983751078,0.2777777777777777,1.0,0.2777777777777778,0.3333333333333333,0.1666666666666666,-0.16666666666666652,-0.05555555555555558,0.9444444444444444,1.0,0.0,2.0,-1.0,1.0,1,1,0,1,0.625
13.0,0.0,13.0,0.0,0.0,0.0,0.0,0.0,427.0842439001426,430.5931461001746,,left,0.9686069004237652,433.1992744002491,ti14,433.1992744002491,,427.0842439001426,430.5931461001746,True,4.0,['r'],True,0.3333333333333333,0.3333333333333333,0.0,0.0,2.0,0.5793801642856949,0.0501512138139916,unsucc_cost,0.0,2.0,,,ti14,1,2022-05-05_11h29.17.852,threat_forest,2021.2.3,59.99196104394372,True,46.0,0.3666666666666667,0.32222222222222224,-1.0533333333333335,-1.1208024691358025,1,1,1,-0.031896424917214804,0.0501512138139916,0.3333333333333333,0.3333333333333333,0.3333333333333333,0.0,0.33333333333333315,0.33333333333333315,4.333333333333333,4.333333333333333,1.0,2.0,-1.0,4.0,0,1,1,1,0.0501512138139916
13.0,0.0,13.0,0.0,1.0,0.0,1.0,0.0,,,,right,1.9562274999916556,437.0001388001256,ti14,434.19362380029634,436.1931416001171,437.0001388001256,,True,2.0,['r'],False,0.24,0.4,0.4,2.0,2.0,0.9801625908629508,-0.0088371924279834,succ_gain,1.0,4.0,436.1931416001171,,ti14,1,2022-05-05_11h29.17.852,threat_forest,2021.2.3,59.99196104394372,True,46.0,0.3666666666666667,0.32222222222222224,-1.0533333333333335,-1.1208024691358025,0,0,1,0.6710178736384728,-0.0088371924279834,0.24,0.24,0.4,0.4,-0.6000000000000001,-0.44000000000000017,1.5599999999999998,1.5599999999999998,0.0,2.0,-1.0,2.0,0,1,0,0,-0.0088371924279834
13.0,0.0,13.0,0.0,2.0,0.0,2.0,0.0,,,,left,1.0784431998617947,442.4319540001452,ti14,442.4319540001452,,438.97713140025735,440.976442000363,True,4.0,['r'],True,0.3333333333333333,0.3333333333333333,0.0,0.0,2.0,0.5793801642856949,0.0675703703703702,unsucc_cost,0.0,2.0,440.976442000363,,ti14,1,2022-05-05_11h29.17.852,threat_forest,2021.2.3,59.99196104394372,True,46.0,0.3666666666666667,0.32222222222222224,-1.0533333333333335,-1.1208024691358025,1,1,1,0.07551851959257973,0.0675703703703702,0.3333333333333333,0.3333333333333333,0.3333333333333333,0.0,0.33333333333333315,0.33333333333333315,4.333333333333333,4.333333333333333,1.0,2.0,1.0,4.0,0,1,1,1,0.0675703703703702
13.0,0.0,13.0,0.0,3.0,0.0,3.0,0.0,,,,left,1.1117352000437677,446.4937214003876,ti14,446.4937214003876,,438.97713140025735,440.976442000363,True,2.0,['r'],True,0.3333333333333333,0.3333333333333333,0.0,0.0,2.0,0.5793801642856949,0.0433487407407408,unsucc_cost,0.0,0.0,445.5432012001984,,ti14,1,2022-05-05_11h29.17.852,threat_forest,2021.2.3,59.99196104394372,True,46.0,0.3666666666666667,0.32222222222222224,-1.0533333333333335,-1.1208024691358025,1,1,1,0.10592203801402614,0.0433487407407408,0.3333333333333333,0.3333333333333333,0.3333333333333333,0.0,0.33333333333333315,0.33333333333333315,2.333333333333333,2.333333333333333,1.0,2.0,-1.0,2.0,0,1,1,1,0.0433487407407408
14.0,0.0,14.0,0.0,0.0,0.0,0.0,0.0,450.2776085999794,453.7768727000803,,right,0.9321705000475048,454.71976689994335,ti14,454.71976689994335,,450.2776085999794,453.7768727000803,False,5.0,['r'],True,0.4081632653061224,0.5714285714285714,0.2857142857142857,2.0,2.0,0.9885754083994552,-0.0170150236195817,wait_cost,0.0,4.0,,,ti14,1,2022-05-05_11h29.17.852,threat_forest,2021.2.3,59.99196104394372,False,14.0,0.5357142857142857,0.4511904761904762,-0.326530612244898,-0.6899319727891158,1,0,0,-0.07023954106288685,-0.0170150236195817,0.4081632653061224,0.4081632653061224,0.5714285714285714,0.2857142857142857,0.4285714285714285,0.346938775510204,5.346938775510204,5.346938775510204,1.0,2.0,-1.0,5.0,0,1,0,1,-0.0170150236195817
14.0,0.0,14.0,0.0,1.0,0.0,1.0,0.0,,,,left,0.8352286000736058,459.31488470034674,ti14,459.31488470034674,,450.2776085999794,453.7768727000803,True,4.0,['r'],True,0.4081632653061224,0.5714285714285714,0.2857142857142857,2.0,2.0,0.9885754083994552,0.0323849776056033,succ_gain,0.0,6.0,457.6767415003851,,ti14,1,2022-05-05_11h29.17.852,threat_forest,2021.2.3,59.99196104394372,True,14.0,0.5357142857142857,0.4511904761904762,-0.326530612244898,-0.6899319727891158,1,0,1,-0.18004981905690537,0.0323849776056033,0.4081632653061224,0.4081632653061224,0.5714285714285714,0.2857142857142857,0.4285714285714285,0.346938775510204,4.346938775510204,4.346938775510204,1.0,2.0,-1.0,4.0,0,1,0,1,0.0323849776056033
14.0,0.0,14.0,0.0,2.0,0.0,2.0,0.0,,,,right,0.967633199878037,464.5494201001711,ti14,460.1788721000776,462.1932975002565,464.5494201001711,,True,6.0,['r'],False,0.5,0.5,0.0,0.0,2.0,0.6309297535714574,0.0648838122295982,succ_gain,1.0,6.0,462.1932975002565,,ti14,1,2022-05-05_11h29.17.852,threat_forest,2021.2.3,59.99196104394372,True,14.0,0.5357142857142857,0.4511904761904762,-0.326530612244898,-0.6899319727891158,1,1,1,-0.032902189261891174,0.0648838122295982,0.5,0.5,0.5,0.0,1.0,1.0,7.0,7.0,0.0,2.0,1.0,6.0,0,1,1,1,0.0648838122295982
14.0,0.0,14.0,0.0,3.0,0.0,3.0,0.0,,,,right,1.6432790998369455,470.2287219003774,ti14,460.1788721000776,462.1932975002565,470.2287219003774,,True,6.0,['r'],False,0.5,0.5,0.0,0.0,2.0,0.6309297535714574,-0.1443864535610162,unsucc_cost,1.0,4.0,467.5434109000489,,ti14,1,2022-05-05_11h29.17.852,threat_forest,2021.2.3,59.99196104394372,True,14.0,0.5357142857142857,0.4511904761904762,-0.326530612244898,-0.6899319727891158,1,1,1,0.4966936967142875,-0.1443864535610162,0.0,0.5,0.5,0.0,1.0,1.0,7.0,7.0,0.0,2.0,-1.0,6.0,0,0,1,1,-0.84
14.0,0.0,14.0,0.0,4.0,0.0,4.0,0.0,,,,right,1.547858700156212,474.5790127003565,ti14,460.1788721000776,462.1932975002565,474.5790127003565,,True,4.0,['r'],False,0.5,0.5,0.0,0.0,2.0,0.6309297535714574,0.1014160766347355,unsucc_cost,1.0,2.0,473.8936284002848,,ti14,1,2022-05-05_11h29.17.852,threat_forest,2021.2.3,59.99196104394372,True,14.0,0.5357142857142857,0.4511904761904762,-0.326530612244898,-0.6899319727891158,1,1,1,0.4368724920325015,0.1014160766347355,0.5,0.5,0.5,0.0,1.0,1.0,5.0,5.0,0.0,2.0,-1.0,4.0,0,1,1,1,0.1014160766347355
14.0,0.0,14.0,0.0,5.0,0.0,5.0,0.0,,,,left,0.9509691996499896,481.1666295002215,ti14,481.1666295002215,,476.14378810022026,478.1437357002869,True,2.0,['r'],True,0.4081632653061224,0.5714285714285714,0.2857142857142857,2.0,2.0,0.9885754083994552,-0.0459183673469387,unsucc_cost,0.0,0.0,478.1437357002869,,ti14,1,2022-05-05_11h29.17.852,threat_forest,2021.2.3,59.99196104394372,True,14.0,0.5357142857142857,0.4511904761904762,-0.326530612244898,-0.6899319727891158,1,0,1,-0.05027360429036578,-0.0459183673469387,0.4081632653061224,0.4081632653061224,0.5714285714285714,0.2857142857142857,0.4285714285714285,0.346938775510204,2.3469387755102042,2.3469387755102042,1.0,2.0,-1.0,2.0,0,1,0,1,-0.0459183673469387
15.0,0.0,15.0,0.0,0.0,0.0,0.0,0.0,486.1785714002326,489.6770072001964,,left,0.746433800086379,490.8693946003914,ti14,490.8693946003914,,486.1785714002326,489.6770072001964,True,4.0,['r'],True,0.3333333333333333,0.5,0.3333333333333333,2.0,2.0,1.0,0.0039043511659807,succ_gain,0.0,6.0,,,ti14,1,2022-05-05_11h29.17.852,threat_forest,2021.2.3,59.99196104394372,True,2.0,0.45,0.4928571428571429,-0.7,-0.513265306122449,0,0,1,-0.2924483463285607,0.0039043511659807,0.3333333333333333,0.3333333333333333,0.5,0.3333333333333333,0.0,0.0,4.0,4.0,1.0,2.0,-1.0,4.0,0,1,0,0,0.0039043511659807
15.0,0.0,15.0,0.0,1.0,0.0,1.0,0.0,,,,left,1.062239599879831,495.2815407002345,ti14,495.2815407002345,,486.1785714002326,489.6770072001964,True,6.0,['r'],True,0.3333333333333333,0.5,0.3333333333333333,2.0,2.0,1.0,-0.1091590123456789,succ_gain,0.0,6.0,493.6438114000484,,ti14,1,2022-05-05_11h29.17.852,threat_forest,2021.2.3,59.99196104394372,True,2.0,0.45,0.4928571428571429,-0.7,-0.513265306122449,0,0,1,0.060379509312778024,-0.1091590123456789,0.3333333333333333,0.3333333333333333,0.5,0.3333333333333333,0.0,0.0,6.0,6.0,1.0,2.0,1.0,6.0,0,1,0,0,-0.1091590123456789
15.0,0.0,15.0,0.0,2.0,0.0,2.0,0.0,,,,right,0.9883828000165522,499.00162840029225,ti14,499.00162840029225,,486.1785714002326,489.6770072001964,False,6.0,['r'],True,0.3333333333333333,0.5,0.3333333333333333,2.0,2.0,1.0,-0.0006600823045267,wait_cost,0.0,5.0,498.3605351001024,,ti14,1,2022-05-05_11h29.17.852,threat_forest,2021.2.3,59.99196104394372,False,2.0,0.45,0.4928571428571429,-0.7,-0.513265306122449,0,0,0,-0.01168520686394393,-0.0006600823045267,0.3333333333333333,0.3333333333333333,0.5,0.3333333333333333,0.0,0.0,6.0,6.0,1.0,2.0,-1.0,6.0,0,1,0,0,-0.0006600823045267
15.0,0.0,15.0,0.0,3.0,0.0,3.0,0.0,,,,right,0.7906917999498546,504.3171227001585,ti14,500.0110582001507,502.01053460035473,504.3171227001585,,True,5.0,['r'],False,0.4,0.4,0.0,0.0,2.0,0.6126016192893442,0.1159999999999999,unsucc_cost,1.0,3.0,502.01053460035473,,ti14,1,2022-05-05_11h29.17.852,threat_forest,2021.2.3,59.99196104394372,True,2.0,0.45,0.4928571428571429,-0.7,-0.513265306122449,1,0,1,-0.23484702058018359,0.1159999999999999,0.4,0.4,0.4,0.0,0.6000000000000001,0.6000000000000001,5.6,5.6,0.0,2.0,-1.0,5.0,0,1,0,1,0.1159999999999999
15.0,0.0,15.0,0.0,4.0,0.0,4.0,0.0,,,,left,0.7773040998727083,509.7682980000973,ti14,509.7682980000973,,505.1277824002318,507.1273242002353,True,3.0,['r'],True,0.3333333333333333,0.5,0.3333333333333333,2.0,2.0,1.0,0.0722222222222223,succ_gain,0.0,5.0,507.1273242002353,,ti14,1,2022-05-05_11h29.17.852,threat_forest,2021.2.3,59.99196104394372,True,2.0,0.45,0.4928571428571429,-0.7,-0.513265306122449,0,0,1,-0.2519236282549095,0.0722222222222223,0.3333333333333333,0.3333333333333333,0.5,0.3333333333333333,0.0,0.0,3.0,3.0,1.0,2.0,-1.0,3.0,0,1,0,0,0.0722222222222223
15.0,0.0,15.0,0.0,5.0,0.0,5.0,0.0,,,,right,1.598077000118792,515.0668010003865,ti14,510.5832394002937,512.5941345002502,515.0668010003865,,True,5.0,['r'],False,0.4,0.4,0.0,0.0,2.0,0.6126016192893442,0.0,unsucc_cost,1.0,3.0,512.5941345002502,,ti14,1,2022-05-05_11h29.17.852,threat_forest,2021.2.3,59.99196104394372,True,2.0,0.45,0.4928571428571429,-0.7,-0.513265306122449,1,0,1,0.46880103148908575,0.0,0.0,0.4,0.4,0.0,0.6000000000000001,0.6000000000000001,5.6,5.6,0.0,2.0,1.0,5.0,0,0,0,1,-0.84
15.0,0.0,15.0,0.0,6.0,0.0,6.0,0.0,,,,right,0.7117792996577919,520.552034500055,ti14,520.552034500055,,516.6944678002037,518.6944113001227,False,3.0,['r'],True,0.3333333333333333,0.5,0.3333333333333333,2.0,2.0,1.0,-0.5444444444444444,wait_cost,0.0,2.0,518.6944113001227,,ti14,1,2022-05-05_11h29.17.852,threat_forest,2021.2.3,59.99196104394372,False,2.0,0.45,0.4928571428571429,-0.7,-0.513265306122449,0,0,0,-0.33998738801227457,-0.5444444444444444,0.0,0.3333333333333333,0.5,0.3333333333333333,0.0,0.0,3.0,3.0,1.0,2.0,-1.0,3.0,0,0,0,0,-0.84
15.0,0.0,15.0,0.0,7.0,0.0,7.0,0.0,,,,right,0.644484399817884,526.7347020003945,ti14,521.2946777003817,523.2943426002748,526.7347020003945,,True,2.0,['r'],False,0.4,0.4,0.0,0.0,2.0,0.6126016192893442,-0.6,unsucc_cost,1.0,0.0,523.2943426002748,,ti14,1,2022-05-05_11h29.17.852,threat_forest,2021.2.3,59.99196104394372,True,2.0,0.45,0.4928571428571429,-0.7,-0.513265306122449,1,0,1,-0.4393046619883426,-0.6,0.0,0.4,0.4,0.0,0.6000000000000001,0.6000000000000001,2.6,2.6,0.0,2.0,-1.0,2.0,0,0,0,1,-0.84
16.0,0.0,16.0,0.0,0.0,0.0,0.0,0.0,531.0354328001849,534.5445039002225,,right,0.8575760000385344,536.4192675002851,ti14,536.4192675002851,,531.0354328001849,534.5445039002225,False,4.0,['r'],True,0.3333333333333333,0.3333333333333333,0.0,0.0,2.0,0.5793801642856949,0.0530374995311426,wait_cost,0.0,3.0,,,ti14,1,2022-05-05_11h29.17.852,threat_forest,2021.2.3,59.99196104394372,False,70.0,0.41666666666666663,0.43333333333333335,-1.0833333333333335,-0.8916666666666667,1,0,0,-0.15364547408688178,0.0530374995311426,0.3333333333333333,0.3333333333333333,0.3333333333333333,0.0,0.33333333333333315,0.33333333333333315,4.333333333333333,4.333333333333333,1.0,2.0,-1.0,4.0,0,1,0,1,0.0530374995311426
16.0,0.0,16.0,0.0,1.0,0.0,1.0,0.0,,,,right,0.7667289995588362,542.24531379994,ti14,542.24531379994,,531.0354328001849,534.5445039002225,False,3.0,['r'],True,0.3333333333333333,0.3333333333333333,0.0,0.0,2.0,0.5793801642856949,0.1048304344564472,wait_cost,0.0,2.0,539.2953246999532,,ti14,1,2022-05-05_11h29.17.852,threat_forest,2021.2.3,59.99196104394372,False,70.0,0.41666666666666663,0.43333333333333335,-1.0833333333333335,-0.8916666666666667,1,0,0,-0.2656218652655832,0.1048304344564472,0.3333333333333333,0.3333333333333333,0.3333333333333333,0.0,0.33333333333333315,0.33333333333333315,3.333333333333333,3.333333333333333,1.0,2.0,-1.0,3.0,0,1,0,1,0.1048304344564472
16.0,0.0,16.0,0.0,2.0,0.0,2.0,0.0,,,,left,0.6819521998986602,547.8468332001939,ti14,547.8468332001939,,531.0354328001849,534.5445039002225,True,2.0,['r'],True,0.3333333333333333,0.3333333333333333,0.0,0.0,2.0,0.5793801642856949,0.037109375,unsucc_cost,0.0,0.0,545.0447539002635,,ti14,1,2022-05-05_11h29.17.852,threat_forest,2021.2.3,59.99196104394372,True,70.0,0.41666666666666663,0.43333333333333335,-1.0833333333333335,-0.8916666666666667,1,0,1,-0.3827957117200941,0.037109375,0.3333333333333333,0.3333333333333333,0.3333333333333333,0.0,0.33333333333333315,0.33333333333333315,2.333333333333333,2.333333333333333,1.0,2.0,-1.0,2.0,0,1,0,1,0.037109375
17.0,0.0,17.0,0.0,0.0,0.0,0.0,0.0,553.080342900008,556.5784369003959,,left,1.3363423002883792,560.286159100011,ti14,553.080342900008,556.5784369003959,560.286159100011,,False,5.0,['r'],False,0.25,0.25,0.0,0.0,1.0,0.5118595071429148,0.0173976500804358,wait_cost,1.0,4.0,,,ti14,1,2022-05-05_11h29.17.852,threat_forest,2021.2.3,59.99196104394372,False,32.0,0.26785714285714285,0.34226190476190477,-1.461734693877551,-1.2725340136054424,1,0,0,0.2899362550882652,0.0173976500804358,0.25,0.25,0.25,0.0,-0.25,-0.25,4.75,4.75,0.0,1.0,-1.0,5.0,0,1,0,1,0.0173976500804358
17.0,0.0,17.0,0.0,1.0,0.0,1.0,0.0,,,,left,1.7560654999688268,566.7797859003767,ti14,553.080342900008,556.5784369003959,566.7797859003767,,False,4.0,['r'],False,0.25,0.25,0.0,0.0,1.0,0.5118595071429148,0.0227176667958948,wait_cost,1.0,3.0,563.6452991003171,,ti14,1,2022-05-05_11h29.17.852,threat_forest,2021.2.3,59.99196104394372,False,32.0,0.26785714285714285,0.34226190476190477,-1.461734693877551,-1.2725340136054424,1,0,0,0.5630757951828913,0.0227176667958948,0.25,0.25,0.25,0.0,-0.25,-0.25,3.75,3.75,0.0,1.0,-1.0,4.0,0,1,0,1,0.0227176667958948
17.0,0.0,17.0,0.0,2.0,0.0,2.0,0.0,,,,left,1.7921705995686352,573.5630156002007,ti14,553.080342900008,556.5784369003959,573.5630156002007,,False,3.0,['r'],False,0.25,0.25,0.0,0.0,1.0,0.5118595071429148,0.0263589609050808,wait_cost,1.0,2.0,570.5617897002958,,ti14,1,2022-05-05_11h29.17.852,threat_forest,2021.2.3,59.99196104394372,False,32.0,0.26785714285714285,0.34226190476190477,-1.461734693877551,-1.2725340136054424,1,0,0,0.5834275106735844,0.0263589609050808,0.25,0.25,0.25,0.0,-0.25,-0.25,2.75,2.75,0.0,1.0,-1.0,3.0,0,1,0,1,0.0263589609050808
17.0,0.0,17.0,0.0,3.0,0.0,3.0,0.0,,,,right,1.0366393001750112,578.3289057002403,ti14,553.080342900008,556.5784369003959,578.3289057002403,,True,2.0,['r'],False,0.25,0.25,0.0,0.0,1.0,0.5118595071429148,0.011988107982351,unsucc_cost,1.0,0.0,577.3783994000405,,ti14,1,2022-05-05_11h29.17.852,threat_forest,2021.2.3,59.99196104394372,True,32.0,0.26785714285714285,0.34226190476190477,-1.461734693877551,-1.2725340136054424,1,0,1,0.03598403862958004,0.011988107982351,0.25,0.25,0.25,0.0,-0.25,-0.25,1.75,1.75,0.0,1.0,-1.0,2.0,0,1,0,1,0.011988107982351
0.0,0.0,0.0,0.0,0.0,0.0,0.0,0.0,14.042815399821848,17.538338599726558,,right,0.8566461000591516,21.138536599930376,ti14,14.042815399821848,17.538338599726558,21.138536599930376,,True,5.0,['p'],False,0.46875,0.625,0.25,2.0,2.0,0.9634951148421658,-0.0188382549218505,fight_cost,1.0,2.0,,,ti14,2,2022-05-05_11h40.59.838,threat_forest,2021.2.3,60.048663415906944,True,62.0,0.6125,0.4401785714285714,0.012499999999999956,-0.7246173469387756,1,1,1,-0.15473039776222355,-0.0188382549218505,0.46875,0.46875,0.625,0.25,0.75,0.625,5.625,5.625,0.0,2.0,-1.0,5.0,0,1,1,1,-0.0188382549218505
0.0,0.0,0.0,0.0,1.0,0.0,1.0,0.0,,,,left,0.7190874996595085,27.750370299909264,ti14,27.750370299909264,,22.02754049981013,24.02694319980219,True,2.0,['p'],True,0.6,0.6,0.0,0.0,2.0,0.6126016192893442,0.081922610155642,succ_gain,0.0,4.0,24.02694319980219,,ti14,2,2022-05-05_11h40.59.838,threat_forest,2021.2.3,60.048663415906944,True,62.0,0.6125,0.4401785714285714,0.012499999999999956,-0.7246173469387756,1,1,1,-0.3297722323379377,0.081922610155642,0.6,0.6,0.6,0.0,1.4,1.4,3.4,3.4,1.0,2.0,-1.0,2.0,0,1,1,1,0.081922610155642
0.0,0.0,0.0,0.0,2.0,0.0,2.0,0.0,,,,right,0.7257099002599716,32.936385199893266,ti14,28.49422180000693,30.493794799782336,32.936385199893266,,True,4.0,['p'],False,0.46875,0.625,0.25,2.0,2.0,0.9634951148421658,0.0205411972045898,succ_gain,1.0,6.0,30.493794799782336,,ti14,2,2022-05-05_11h40.59.838,threat_forest,2021.2.3,60.048663415906944,True,62.0,0.6125,0.4401785714285714,0.012499999999999956,-0.7246173469387756,1,1,1,-0.32060493043203947,0.0205411972045898,0.46875,0.46875,0.625,0.25,0.75,0.625,4.625,4.625,0.0,2.0,1.0,4.0,0,1,1,1,0.0205411972045898
0.0,0.0,0.0,0.0,3.0,0.0,3.0,0.0,,,,right,0.7895753001794219,37.11731909960508,ti14,28.49422180000693,30.493794799782336,37.11731909960508,,True,6.0,['p'],False,0.46875,0.625,0.25,2.0,2.0,0.9634951148421658,-0.1287342834472656,fight_cost,1.0,3.0,35.69398119999096,,ti14,2,2022-05-05_11h40.59.838,threat_forest,2021.2.3,60.048663415906944,True,62.0,0.6125,0.4401785714285714,0.012499999999999956,-0.7246173469387756,1,1,1,-0.23626007278650893,-0.1287342834472656,0.0,0.46875,0.625,0.25,0.75,0.625,6.625,6.625,0.0,2.0,1.0,6.0,0,0,1,1,-0.84
0.0,0.0,0.0,0.0,4.0,0.0,4.0,0.0,,,,right,0.6980808000080287,42.30667269974947,ti14,28.49422180000693,30.493794799782336,42.30667269974947,,True,3.0,['p'],False,0.46875,0.625,0.25,2.0,2.0,0.9634951148421658,0.05185546875,succ_gain,1.0,5.0,39.927324099931866,,ti14,2,2022-05-05_11h40.59.838,threat_forest,2021.2.3,60.048663415906944,True,62.0,0.6125,0.4401785714285714,0.012499999999999956,-0.7246173469387756,1,1,1,-0.35942042359553467,0.05185546875,0.46875,0.46875,0.625,0.25,0.75,0.625,3.625,3.625,0.0,2.0,-1.0,3.0,0,1,1,1,0.05185546875
0.0,0.0,0.0,0.0,5.0,0.0,5.0,0.0,,,,right,1.7533431998454034,47.01758979959413,ti14,28.49422180000693,30.493794799782336,47.01758979959413,,True,5.0,['p'],False,0.46875,0.625,0.25,2.0,2.0,0.9634951148421658,-0.108203125,unsucc_cost,1.0,3.0,45.0274828998372,,ti14,2,2022-05-05_11h40.59.838,threat_forest,2021.2.3,60.048663415906944,True,62.0,0.6125,0.4401785714285714,0.012499999999999956,-0.7246173469387756,1,1,1,0.5615243653539286,-0.108203125,0.0,0.46875,0.625,0.25,0.75,0.625,5.625,5.625,0.0,2.0,1.0,5.0,0,0,1,1,-0.84
0.0,0.0,0.0,0.0,6.0,0.0,6.0,0.0,,,,left,1.944674999918789,51.51617339998484,ti14,28.49422180000693,30.493794799782336,51.51617339998484,,False,3.0,['p'],False,0.46875,0.625,0.25,2.0,2.0,0.9634951148421658,-0.38095703125,wait_cost,1.0,2.0,50.79404899990186,,ti14,2,2022-05-05_11h40.59.838,threat_forest,2021.2.3,60.048663415906944,False,62.0,0.6125,0.4401785714285714,0.012499999999999956,-0.7246173469387756,1,1,0,0.6650948679510235,-0.38095703125,0.0,0.46875,0.625,0.25,0.75,0.625,3.625,3.625,0.0,2.0,-1.0,3.0,0,0,1,1,-0.84
0.0,0.0,0.0,0.0,7.0,0.0,7.0,0.0,,,,left,0.6057305000722408,56.7499711997807,ti14,28.49422180000693,30.493794799782336,56.7499711997807,,False,2.0,['p'],False,0.46875,0.625,0.25,2.0,2.0,0.9634951148421658,-0.53125,wait_cost,1.0,1.0,55.47744689974934,,ti14,2,2022-05-05_11h40.59.838,threat_forest,2021.2.3,60.048663415906944,False,62.0,0.6125,0.4401785714285714,0.012499999999999956,-0.7246173469387756,1,1,0,-0.5013201111825398,-0.53125,0.0,0.46875,0.625,0.25,0.75,0.625,2.625,2.625,0.0,2.0,-1.0,2.0,0,0,1,1,-0.84
1.0,0.0,1.0,0.0,0.0,0.0,0.0,0.0,62.87397209974006,66.37526499992236,,left,0.9328559003770353,69.10268589993939,ti14,62.87397209974006,66.37526499992236,69.10268589993939,,False,5.0,['p'],False,0.1975308641975308,0.2222222222222222,0.1111111111111111,1.0,2.0,0.7461067557824965,-0.0095652367728003,wait_cost,1.0,4.0,,,ti14,2,2022-05-05_11h40.59.838,threat_forest,2021.2.3,60.048663415906944,False,12.0,0.3111111111111111,0.4618055555555556,-1.1204938271604938,-0.5539969135802469,0,0,0,-0.06950453767609234,-0.0095652367728003,0.1975308641975308,0.1975308641975308,0.2222222222222222,0.1111111111111111,-0.4444444444444444,-0.32098765432098775,4.679012345679013,4.679012345679013,0.0,2.0,-1.0,5.0,0,1,0,0,-0.0095652367728003
1.0,0.0,1.0,0.0,1.0,0.0,1.0,0.0,,,,left,1.0415034997276962,74.97001109970734,ti14,62.87397209974006,66.37526499992236,74.97001109970734,,False,4.0,['p'],False,0.1975308641975308,0.2222222222222222,0.1111111111111111,1.0,2.0,0.7461067557824965,0.005439477586826,wait_cost,1.0,3.0,72.07776239980012,,ti14,2,2022-05-05_11h40.59.838,threat_forest,2021.2.3,60.048663415906944,False,12.0,0.3111111111111111,0.4618055555555556,-1.1204938271604938,-0.5539969135802469,0,0,0,0.040665341989476446,0.005439477586826,0.1975308641975308,0.1975308641975308,0.2222222222222222,0.1111111111111111,-0.4444444444444444,-0.32098765432098775,3.6790123456790123,3.6790123456790123,0.0,2.0,-1.0,4.0,0,1,0,0,0.005439477586826
1.0,0.0,1.0,0.0,2.0,0.0,2.0,0.0,,,,left,1.003496800083667,81.11848079971969,ti14,81.11848079971969,,76.02862149989232,78.02785409986973,True,3.0,['p'],True,0.32,0.4,0.2,1.0,2.0,0.9455672104350704,0.0970265817877056,unsucc_cost,0.0,1.0,78.02785409986973,,ti14,2,2022-05-05_11h40.59.838,threat_forest,2021.2.3,60.048663415906944,True,12.0,0.3111111111111111,0.4618055555555556,-1.1204938271604938,-0.5539969135802469,0,0,1,0.0034907004934836357,0.0970265817877056,0.32,0.32,0.4,0.2,0.0,0.07999999999999996,3.08,3.08,1.0,2.0,-1.0,3.0,0,1,0,0,0.0970265817877056
1.0,0.0,1.0,0.0,3.0,0.0,3.0,0.0,,,,right,1.2021968001499772,84.94515339983627,ti14,84.94515339983627,,76.02862149989232,78.02785409986973,False,1.0,['p'],True,0.32,0.4,0.2,1.0,2.0,0.9455672104350704,0.1313020527358634,wait_cost,0.0,0.0,84.14482679963112,,ti14,2,2022-05-05_11h40.59.838,threat_forest,2021.2.3,60.048663415906944,False,12.0,0.3111111111111111,0.4618055555555556,-1.1204938271604938,-0.5539969135802469,0,0,0,0.18415054995741034,0.1313020527358634,1.0,0.32,0.4,0.2,0.0,0.07999999999999996,1.08,1.08,1.0,2.0,-1.0,1.0,1,1,0,0,0.625
2.0,0.0,2.0,0.0,0.0,0.0,0.0,0.0,89.44403959996998,92.93824339983983,,left,1.0541023002006114,96.25666139973328,ti14,96.25666139973328,,89.44403959996998,92.93824339983983,True,4.0,['p'],True,0.24,0.3,0.2,2.0,2.0,0.9003120349047065,-0.0027286024196422,unsucc_cost,0.0,2.0,,,ti14,2,2022-05-05_11h40.59.838,threat_forest,2021.2.3,60.048663415906944,True,55.0,0.2928571428571428,0.30198412698412697,-1.0485714285714285,-1.0845326278659613,0,0,1,0.052689504423112016,-0.0027286024196422,0.24,0.24,0.3,0.2,-0.3999999999999999,-0.24,3.76,3.76,1.0,2.0,-1.0,4.0,0,1,0,0,-0.0027286024196422
2.0,0.0,2.0,0.0,1.0,0.0,1.0,0.0,,,,left,1.2303116000257432,99.96599929966033,ti14,99.96599929966033,,89.44403959996998,92.93824339983983,True,2.0,['p'],True,0.24,0.3,0.2,2.0,2.0,0.9003120349047065,-0.0030329352864878,unsucc_cost,0.0,0.0,99.3282955000177,,ti14,2,2022-05-05_11h40.59.838,threat_forest,2021.2.3,60.048663415906944,True,55.0,0.2928571428571428,0.30198412698412697,-1.0485714285714285,-1.0845326278659613,0,0,1,0.20726747065511317,-0.0030329352864878,0.24,0.24,0.3,0.2,-0.3999999999999999,-0.24,1.76,1.76,1.0,2.0,-1.0,2.0,0,1,0,0,-0.0030329352864878
3.0,0.0,3.0,0.0,0.0,0.0,0.0,0.0,104.72885719966143,108.22876429976895,,right,0.7854051999747753,109.37442199978976,ti14,109.37442199978976,,104.72885719966143,108.22876429976895,False,4.0,['p'],True,0.21875,0.25,0.125,1.0,1.0,0.7908280489481783,0.0029603746186211,wait_cost,0.0,3.0,,,ti14,2,2022-05-05_11h40.59.838,threat_forest,2021.2.3,60.048663415906944,False,61.0,0.325,0.30892857142857144,-1.354375,-1.2014732142857143,0,0,0,-0.24155551606211195,0.0029603746186211,0.21875,0.21875,0.25,0.125,-0.625,-0.46875,3.53125,3.53125,1.0,1.0,-1.0,4.0,0,1,0,0,0.0029603746186211
3.0,0.0,3.0,0.0,1.0,0.0,1.0,0.0,,,,left,0.9613300003111362,114.9695492000319,ti14,110.17892549978568,112.1783521999605,114.9695492000319,,False,3.0,['p'],False,0.32,0.4,0.2,1.0,1.0,0.9455672104350704,0.0263107318191394,wait_cost,1.0,2.0,112.1783521999605,,ti14,2,2022-05-05_11h40.59.838,threat_forest,2021.2.3,60.048663415906944,False,61.0,0.325,0.30892857142857144,-1.354375,-1.2014732142857143,0,1,0,-0.03943753633414668,0.0263107318191394,0.32,0.32,0.4,0.2,-0.3999999999999999,-0.24,2.76,2.76,0.0,1.0,-1.0,3.0,0,1,1,0,0.0263107318191394
3.0,0.0,3.0,0.0,2.0,0.0,2.0,0.0,,,,right,1.9099905001930888,121.649083300028,ti14,110.17892549978568,112.1783521999605,121.649083300028,,True,2.0,['p'],False,0.32,0.4,0.2,1.0,1.0,0.9455672104350704,0.0225587820034484,succ_gain,1.0,3.0,117.962114199996,,ti14,2,2022-05-05_11h40.59.838,threat_forest,2021.2.3,60.048663415906944,True,61.0,0.325,0.30892857142857144,-1.354375,-1.2014732142857143,0,1,1,0.6470982683252736,0.0225587820034484,0.32,0.32,0.4,0.2,-0.3999999999999999,-0.24,1.76,1.76,0.0,1.0,-1.0,2.0,0,1,1,0,0.0225587820034484
3.0,0.0,3.0,0.0,3.0,0.0,3.0,0.0,,,,right,1.3314789002761245,128.77004019962624,ti14,128.77004019962624,,123.57905810000376,125.578689399641,False,3.0,['p'],True,0.21875,0.25,0.125,1.0,1.0,0.7908280489481783,0.0367154488525389,wait_cost,0.0,2.0,125.578689399641,,ti14,2,2022-05-05_11h40.59.838,threat_forest,2021.2.3,60.048663415906944,False,61.0,0.325,0.30892857142857144,-1.354375,-1.2014732142857143,0,0,0,0.2862902795643346,0.0367154488525389,0.21875,0.21875,0.25,0.125,-0.625,-0.46875,2.53125,2.53125,1.0,1.0,1.0,3.0,0,1,0,0,0.0367154488525389
3.0,0.0,3.0,0.0,4.0,0.0,4.0,0.0,,,,right,1.7498244000598788,134.08295729989186,ti14,134.08295729989186,,123.57905810000376,125.578689399641,False,2.0,['p'],True,0.21875,0.25,0.125,1.0,1.0,0.7908280489481783,0.0130215454101562,wait_cost,0.0,1.0,132.12870829971507,,ti14,2,2022-05-05_11h40.59.838,threat_forest,2021.2.3,60.048663415906944,False,61.0,0.325,0.30892857142857144,-1.354375,-1.2014732142857143,0,0,0,0.5595154400778184,0.0130215454101562,0.21875,0.21875,0.25,0.125,-0.625,-0.46875,1.53125,1.53125,1.0,1.0,-1.0,2.0,0,1,0,0,0.0130215454101562
3.0,0.0,3.0,0.0,5.0,0.0,5.0,0.0,,,,left,1.6215576999820769,141.29888199968264,ti14,141.29888199968264,,123.57905810000376,125.578689399641,True,1.0,['p'],True,0.21875,0.25,0.125,1.0,1.0,0.7908280489481783,0.0644628906249999,unsucc_cost,0.0,0.0,137.87881429959089,,ti14,2,2022-05-05_11h40.59.838,threat_forest,2021.2.3,60.048663415906944,True,61.0,0.325,0.30892857142857144,-1.354375,-1.2014732142857143,0,0,1,0.48338723045656695,0.0644628906249999,1.0,0.21875,0.25,0.125,-0.625,-0.46875,0.53125,1.0,1.0,1.0,-1.0,1.0,1,1,0,0,0.625
4.0,0.0,4.0,0.0,0.0,0.0,0.0,0.0,147.2634021998383,150.7646508999169,,left,1.2457113000564275,152.90777909988535,ti14,152.90777909988535,,147.2634021998383,150.7646508999169,True,5.0,['r'],True,0.24,0.3,0.2,2.0,2.0,0.9003120349047065,-0.0305436800767033,unsucc_cost,0.0,3.0,,,ti14,2,2022-05-05_11h40.59.838,threat_forest,2021.2.3,60.048663415906944,True,15.0,0.4833333333333333,0.4041666666666667,-0.8977777777777778,-1.126076388888889,0,0,1,0.21970669211900923,-0.0305436800767033,0.24,0.24,0.3,0.2,-0.3999999999999999,-0.24,4.76,4.76,1.0,2.0,-1.0,5.0,0,1,0,0,-0.0305436800767033
4.0,0.0,4.0,0.0,1.0,0.0,1.0,0.0,,,,left,1.1304939002729952,157.2677707998082,ti14,157.2677707998082,,147.2634021998383,150.7646508999169,True,3.0,['r'],True,0.24,0.3,0.2,2.0,2.0,0.9003120349047065,0.0206023046878086,unsucc_cost,0.0,1.0,156.17905699973926,,ti14,2,2022-05-05_11h40.59.838,threat_forest,2021.2.3,60.048663415906944,True,15.0,0.4833333333333333,0.4041666666666667,-0.8977777777777778,-1.126076388888889,0,0,1,0.12265461712026549,0.0206023046878086,0.24,0.24,0.3,0.2,-0.3999999999999999,-0.24,2.76,2.76,1.0,2.0,-1.0,3.0,0,1,0,0,0.0206023046878086
4.0,0.0,4.0,0.0,2.0,0.0,2.0,0.0,,,,left,0.6582070998847485,163.48647679993883,ti14,163.48647679993883,,147.2634021998383,150.7646508999169,True,1.0,['r'],True,0.24,0.3,0.2,2.0,2.0,0.9003120349047065,0.1048779050022862,succ_gain,0.0,3.0,160.4293011999689,,ti14,2,2022-05-05_11h40.59.838,threat_forest,2021.2.3,60.048663415906944,True,15.0,0.4833333333333333,0.4041666666666667,-0.8977777777777778,-1.126076388888889,0,0,1,-0.4182356557113415,0.1048779050022862,1.0,0.24,0.3,0.2,-0.3999999999999999,-0.24,0.76,1.0,1.0,2.0,-1.0,1.0,1,1,0,0,0.625
4.0,0.0,4.0,0.0,3.0,0.0,3.0,0.0,,,,right,1.0068375999107957,167.41719029983506,ti14,164.1630647997372,166.16254599997774,167.41719029983506,,True,3.0,['r'],False,0.4444444444444445,0.6666666666666666,0.3333333333333333,1.0,2.0,0.9656336071428248,0.0873158750190519,succ_gain,1.0,5.0,166.16254599997774,,ti14,2,2022-05-05_11h40.59.838,threat_forest,2021.2.3,60.048663415906944,True,15.0,0.4833333333333333,0.4041666666666667,-0.8977777777777778,-1.126076388888889,1,1,1,0.0068143295399602025,0.0873158750190519,0.4444444444444445,0.4444444444444445,0.6666666666666666,0.3333333333333333,0.6666666666666665,0.4444444444444444,3.4444444444444446,3.4444444444444446,0.0,2.0,1.0,3.0,0,1,1,1,0.0873158750190519
4.0,0.0,4.0,0.0,4.0,0.0,4.0,0.0,,,,right,1.6189998998306692,171.6732169999741,ti14,171.6732169999741,,168.4462422998622,170.44594389991835,False,5.0,['r'],True,0.24,0.3,0.2,2.0,2.0,0.9003120349047065,-0.4147346172839505,wait_cost,0.0,4.0,170.44594389991835,,ti14,2,2022-05-05_11h40.59.838,threat_forest,2021.2.3,60.048663415906944,False,15.0,0.4833333333333333,0.4041666666666667,-0.8977777777777778,-1.126076388888889,0,0,0,0.48180861282438386,-0.4147346172839505,0.0,0.24,0.3,0.2,-0.3999999999999999,-0.24,4.76,4.76,1.0,2.0,1.0,5.0,0,0,0,0,-0.84
4.0,0.0,4.0,0.0,5.0,0.0,5.0,0.0,,,,left,1.097765600308776,176.63371039973572,ti14,173.31319609982893,175.3127485997975,176.63371039973572,,False,4.0,['r'],False,0.4444444444444445,0.6666666666666666,0.3333333333333333,1.0,2.0,0.9656336071428248,-0.354074074074074,wait_cost,1.0,3.0,175.3127485997975,,ti14,2,2022-05-05_11h40.59.838,threat_forest,2021.2.3,60.048663415906944,False,15.0,0.4833333333333333,0.4041666666666667,-0.8977777777777778,-1.126076388888889,1,1,0,0.09327684152589578,-0.354074074074074,0.0,0.4444444444444445,0.6666666666666666,0.3333333333333333,0.6666666666666665,0.4444444444444444,4.444444444444445,4.444444444444445,0.0,2.0,-1.0,4.0,0,0,1,1,-0.84
4.0,0.0,4.0,0.0,6.0,0.0,6.0,0.0,,,,left,2.728513400070369,182.08097519958392,ti14,173.31319609982893,175.3127485997975,182.08097519958392,,False,3.0,['r'],False,0.4444444444444445,0.6666666666666666,0.3333333333333333,1.0,2.0,0.9656336071428248,-0.4795061728395061,wait_cost,1.0,2.0,179.7628122996539,,ti14,2,2022-05-05_11h40.59.838,threat_forest,2021.2.3,60.048663415906944,False,15.0,0.4833333333333333,0.4041666666666667,-0.8977777777777778,-1.126076388888889,1,1,0,1.003756918781208,-0.4795061728395061,0.0,0.4444444444444445,0.6666666666666666,0.3333333333333333,0.6666666666666665,0.4444444444444444,3.4444444444444446,3.4444444444444446,0.0,2.0,-1.0,3.0,0,0,1,1,-0.84
4.0,0.0,4.0,0.0,7.0,0.0,7.0,0.0,,,,right,1.1077777999453249,190.4206829997711,ti14,190.4206829997711,,184.8300127997063,186.8297139997594,False,2.0,['r'],True,0.24,0.3,0.2,2.0,2.0,0.9003120349047065,-0.76,wait_cost,0.0,1.0,186.8297139997594,,ti14,2,2022-05-05_11h40.59.838,threat_forest,2021.2.3,60.048663415906944,False,15.0,0.4833333333333333,0.4041666666666667,-0.8977777777777778,-1.126076388888889,0,0,0,0.10235602664835225,-0.76,0.0,0.24,0.3,0.2,-0.3999999999999999,-0.24,1.76,1.76,1.0,2.0,-1.0,2.0,0,0,0,0,-0.84
5.0,0.0,5.0,0.0,0.0,0.0,0.0,0.0,196.50898949988184,200.01324859960005,,left,0.8718050997704268,201.3059042999521,ti14,196.50898949988184,200.01324859960005,201.3059042999521,,False,4.0,['r'],False,0.3333333333333333,0.5,0.3333333333333333,2.0,1.0,1.0,0.0143529277549154,wait_cost,1.0,3.0,,,ti14,2,2022-05-05_11h40.59.838,threat_forest,2021.2.3,60.048663415906944,False,7.0,0.45,0.4666666666666667,-1.0666666666666667,-0.9822222222222222,0,0,0,-0.13718938949269832,0.0143529277549154,0.3333333333333333,0.3333333333333333,0.5,0.3333333333333333,-0.5,-0.3333333333333335,3.6666666666666665,3.6666666666666665,0.0,1.0,-1.0,4.0,0,1,0,0,0.0143529277549154
5.0,0.0,5.0,0.0,1.0,0.0,1.0,0.0,,,,right,1.150036800187081,206.6643930999562,ti14,196.50898949988184,200.01324859960005,206.6643930999562,,True,3.0,['r'],False,0.3333333333333333,0.5,0.3333333333333333,2.0,1.0,1.0,0.0216859945130315,fight_cost,1.0,0.0,204.19647639989853,,ti14,2,2022-05-05_11h40.59.838,threat_forest,2021.2.3,60.048663415906944,True,7.0,0.45,0.4666666666666667,-1.0666666666666667,-0.9822222222222222,0,0,1,0.13979394202584364,0.0216859945130315,0.3333333333333333,0.3333333333333333,0.5,0.3333333333333333,-0.5,-0.3333333333333335,2.6666666666666665,2.6666666666666665,0.0,1.0,-1.0,3.0,0,1,0,0,0.0216859945130315
6.0,0.0,6.0,0.0,0.0,0.0,0.0,0.0,210.43832019995895,213.9465946997516,,right,0.8805829002521932,214.5901814997196,ti14,210.43832019995895,213.9465946997516,214.5901814997196,,True,5.0,['p'],False,0.2222222222222222,0.6666666666666666,0.6666666666666666,2.0,2.0,0.77250688571426,-0.023281607963558,fight_cost,1.0,2.0,,,ti14,2,2022-05-05_11h40.59.838,threat_forest,2021.2.3,60.048663415906944,True,34.0,0.4583333333333333,0.45416666666666666,-1.3888888888888888,-1.2277777777777779,0,0,1,-0.12717120414087524,-0.023281607963558,0.2222222222222222,0.2222222222222222,0.6666666666666666,0.6666666666666666,-0.3333333333333335,-0.7777777777777779,4.222222222222222,4.222222222222222,0.0,2.0,-1.0,5.0,0,1,0,0,-0.023281607963558
6.0,0.0,6.0,0.0,1.0,0.0,1.0,0.0,,,,right,0.7695876001380384,220.73162239976227,ti14,210.43832019995895,213.9465946997516,220.73162239976227,,True,2.0,['p'],False,0.2222222222222222,0.6666666666666666,0.6666666666666666,2.0,2.0,0.77250688571426,0.0025834334843665,succ_gain,1.0,4.0,217.49662959994748,,ti14,2,2022-05-05_11h40.59.838,threat_forest,2021.2.3,60.048663415906944,True,34.0,0.4583333333333333,0.45416666666666666,-1.3888888888888888,-1.2277777777777779,0,0,1,-0.26190049184718983,0.0025834334843665,0.2222222222222222,0.2222222222222222,0.6666666666666666,0.6666666666666666,-0.3333333333333335,-0.7777777777777779,1.222222222222222,1.222222222222222,0.0,2.0,-1.0,2.0,0,1,0,0,0.0025834334843665
6.0,0.0,6.0,0.0,2.0,0.0,2.0,0.0,,,,left,1.6343040000647306,224.6703386995941,ti14,210.43832019995895,213.9465946997516,224.6703386995941,,False,4.0,['p'],False,0.2222222222222222,0.6666666666666666,0.6666666666666666,2.0,2.0,0.77250688571426,0.0099596797720431,wait_cost,1.0,3.0,223.530192299746,,ti14,2,2022-05-05_11h40.59.838,threat_forest,2021.2.3,60.048663415906944,False,34.0,0.4583333333333333,0.45416666666666666,-1.3888888888888888,-1.2277777777777779,0,0,0,0.4912170256845405,0.0099596797720431,0.2222222222222222,0.2222222222222222,0.6666666666666666,0.6666666666666666,-0.3333333333333335,-0.7777777777777779,3.2222222222222223,3.2222222222222223,0.0,2.0,1.0,4.0,0,1,0,0,0.0099596797720431
6.0,0.0,6.0,0.0,3.0,0.0,3.0,0.0,,,,right,0.9616053998470306,229.95197759987784,ti14,229.95197759987784,,226.33060849970207,228.3302596998401,False,3.0,['p'],True,0.25,0.25,0.0,0.0,2.0,0.5118595071429148,0.0667578928755143,wait_cost,0.0,2.0,228.3302596998401,,ti14,2,2022-05-05_11h40.59.838,threat_forest,2021.2.3,60.048663415906944,False,34.0,0.4583333333333333,0.45416666666666666,-1.3888888888888888,-1.2277777777777779,1,0,0,-0.03915109973543963,0.0667578928755143,0.25,0.25,0.25,0.0,0.0,0.0,3.0,3.0,1.0,2.0,-1.0,3.0,0,1,0,1,0.0667578928755143
6.0,0.0,6.0,0.0,4.0,0.0,4.0,0.0,,,,left,2.1107401000335813,233.78071149997413,ti14,233.78071149997413,,226.33060849970207,228.3302596998401,True,2.0,['p'],True,0.25,0.25,0.0,0.0,2.0,0.5118595071429148,0.0138888888888888,unsucc_cost,0.0,0.0,232.93026489997283,,ti14,2,2022-05-05_11h40.59.838,threat_forest,2021.2.3,60.048663415906944,True,34.0,0.4583333333333333,0.45416666666666666,-1.3888888888888888,-1.2277777777777779,1,0,1,0.7470386442964143,0.0138888888888888,0.25,0.25,0.25,0.0,0.0,0.0,2.0,2.0,1.0,2.0,-1.0,2.0,0,1,0,1,0.0138888888888888
7.0,0.0,7.0,0.0,0.0,0.0,0.0,0.0,240.90959930000827,244.41392409987748,,left,0.986431899946183,246.53200059989467,ti14,246.53200059989467,,240.90959930000827,244.41392409987748,True,5.0,['r'],True,0.4444444444444445,0.6666666666666666,0.3333333333333333,1.0,2.0,0.9656336071428248,0.0210978181405199,fight_cost,0.0,2.0,,,ti14,2,2022-05-05_11h40.59.838,threat_forest,2021.2.3,60.048663415906944,True,53.0,0.5,0.47916666666666663,-0.8703703703703706,-1.1296296296296298,1,0,1,-0.01366098788790714,0.0210978181405199,0.4444444444444445,0.4444444444444445,0.6666666666666666,0.3333333333333333,0.6666666666666665,0.4444444444444444,5.444444444444445,5.444444444444445,1.0,2.0,-1.0,5.0,0,1,0,1,0.0210978181405199
7.0,0.0,7.0,0.0,1.0,0.0,1.0,0.0,,,,left,1.213008999824524,250.3658676999621,ti14,250.3658676999621,,240.90959930000827,244.41392409987748,True,2.0,['r'],True,0.4444444444444445,0.6666666666666666,0.3333333333333333,1.0,2.0,0.9656336071428248,0.0650171080975019,fight_cost,0.0,0.0,249.54715789994225,,ti14,2,2022-05-05_11h40.59.838,threat_forest,2021.2.3,60.048663415906944,True,53.0,0.5,0.47916666666666663,-0.8703703703703706,-1.1296296296296298,1,0,1,0.19310404941050097,0.0650171080975019,0.4444444444444445,0.4444444444444445,0.6666666666666666,0.3333333333333333,0.6666666666666665,0.4444444444444444,2.4444444444444446,2.4444444444444446,1.0,2.0,-1.0,2.0,0,1,0,1,0.0650171080975019
8.0,0.0,8.0,0.0,0.0,0.0,0.0,0.0,255.33356900000945,258.8474484998733,,right,1.2732748002745211,260.1022648997605,ti14,260.1022648997605,,255.33356900000945,258.8474484998733,False,4.0,['r'],True,0.5,0.5,0.0,0.0,2.0,0.6309297535714574,0.0723560159877321,wait_cost,0.0,3.0,,,ti14,2,2022-05-05_11h40.59.838,threat_forest,2021.2.3,60.048663415906944,False,58.0,0.5357142857142857,0.5178571428571428,-0.326530612244898,-0.5984504913076343,1,0,0,0.24159216452300125,0.0723560159877321,0.5,0.5,0.5,0.0,1.0,1.0,5.0,5.0,1.0,2.0,-1.0,4.0,0,1,0,1,0.0723560159877321
8.0,0.0,8.0,0.0,1.0,0.0,1.0,0.0,,,,right,0.97711669979617,264.00538109987974,ti14,261.3978817998432,263.397408799734,264.00538109987974,,True,3.0,['r'],False,0.4081632653061224,0.5714285714285714,0.2857142857142857,2.0,2.0,0.9885754083994552,0.0633701866529412,succ_gain,1.0,5.0,263.397408799734,,ti14,2,2022-05-05_11h40.59.838,threat_forest,2021.2.3,60.048663415906944,True,58.0,0.5357142857142857,0.5178571428571428,-0.326530612244898,-0.5984504913076343,0,0,1,-0.023149186993601936,0.0633701866529412,0.4081632653061224,0.4081632653061224,0.5714285714285714,0.2857142857142857,0.4285714285714285,0.346938775510204,3.3469387755102042,3.3469387755102042,0.0,2.0,-1.0,3.0,0,1,0,0,0.0633701866529412
8.0,0.0,8.0,0.0,2.0,0.0,2.0,0.0,,,,right,0.7009840998798609,270.7350216000341,ti14,261.3978817998432,263.397408799734,270.7350216000341,,True,5.0,['r'],False,0.4081632653061224,0.5714285714285714,0.2857142857142857,2.0,2.0,0.9885754083994552,-0.0126763486945585,unsucc_cost,1.0,3.0,267.0141213997267,,ti14,2,2022-05-05_11h40.59.838,threat_forest,2021.2.3,60.048663415906944,True,58.0,0.5357142857142857,0.5178571428571428,-0.326530612244898,-0.5984504913076343,0,0,1,-0.3552700742591954,-0.0126763486945585,0.4081632653061224,0.4081632653061224,0.5714285714285714,0.2857142857142857,0.4285714285714285,0.346938775510204,5.346938775510204,5.346938775510204,0.0,2.0,1.0,5.0,0,1,0,0,-0.0126763486945585
8.0,0.0,8.0,0.0,3.0,0.0,3.0,0.0,,,,left,1.3168246001005173,276.1694508995861,ti14,276.1694508995861,,271.4646795997396,273.4640961997211,True,3.0,['r'],True,0.5,0.5,0.0,0.0,2.0,0.6309297535714574,0.1676078711888753,unsucc_cost,0.0,1.0,273.4640961997211,,ti14,2,2022-05-05_11h40.59.838,threat_forest,2021.2.3,60.048663415906944,True,58.0,0.5357142857142857,0.5178571428571428,-0.326530612244898,-0.5984504913076343,1,0,1,0.27522323249499236,0.1676078711888753,0.5,0.5,0.5,0.0,1.0,1.0,4.0,4.0,1.0,2.0,-1.0,3.0,0,1,0,1,0.1676078711888753
8.0,0.0,8.0,0.0,4.0,0.0,4.0,0.0,,,,right,0.6155473999679089,282.53693299973384,ti14,277.51471279980615,279.5143120996654,282.53693299973384,,True,1.0,['r'],False,0.4081632653061224,0.5714285714285714,0.2857142857142857,2.0,2.0,0.9885754083994552,0.260042584297359,succ_gain,1.0,3.0,279.5143120996654,,ti14,2,2022-05-05_11h40.59.838,threat_forest,2021.2.3,60.048663415906944,True,58.0,0.5357142857142857,0.5178571428571428,-0.326530612244898,-0.5984504913076343,0,0,1,-0.48524332581440427,0.260042584297359,1.0,0.4081632653061224,0.5714285714285714,0.2857142857142857,0.4285714285714285,0.346938775510204,1.346938775510204,1.346938775510204,0.0,2.0,-1.0,1.0,1,1,0,0,0.625
8.0,0.0,8.0,0.0,5.0,0.0,5.0,0.0,,,,right,1.479127200320363,285.91811549989507,ti14,285.91811549989507,,283.1814597998746,285.1810174998827,False,3.0,['r'],True,0.5,0.5,0.0,0.0,2.0,0.6309297535714574,0.25,wait_cost,0.0,2.0,285.1810174998827,,ti14,2,2022-05-05_11h40.59.838,threat_forest,2021.2.3,60.048663415906944,False,58.0,0.5357142857142857,0.5178571428571428,-0.326530612244898,-0.5984504913076343,1,0,0,0.39145218430391027,0.25,0.5,0.5,0.5,0.0,1.0,1.0,4.0,4.0,1.0,2.0,1.0,3.0,0,1,0,1,0.25
8.0,0.0,8.0,0.0,6.0,0.0,6.0,0.0,,,,right,0.7153752995654941,292.0888190995902,ti14,287.4148389999755,289.414418600034,292.0888190995902,,True,2.0,['r'],False,0.4081632653061224,0.5714285714285714,0.2857142857142857,2.0,2.0,0.9885754083994552,-0.0459183673469387,unsucc_cost,1.0,0.0,289.414418600034,,ti14,2,2022-05-05_11h40.59.838,threat_forest,2021.2.3,60.048663415906944,True,58.0,0.5357142857142857,0.5178571428571428,-0.326530612244898,-0.5984504913076343,0,0,1,-0.33494797949986516,-0.0459183673469387,0.4081632653061224,0.4081632653061224,0.5714285714285714,0.2857142857142857,0.4285714285714285,0.346938775510204,2.3469387755102042,2.3469387755102042,0.0,2.0,-1.0,2.0,0,1,0,0,-0.0459183673469387
9.0,0.0,9.0,0.0,0.0,0.0,0.0,0.0,296.243906899821,299.74923809990287,,right,0.9416888002306224,302.52198849990964,ti14,302.52198849990964,,296.243906899821,299.74923809990287,False,4.0,['p'],True,0.4,0.4,0.0,0.0,2.0,0.6126016192893442,0.0555185734261673,wait_cost,0.0,3.0,,,ti14,2,2022-05-05_11h40.59.838,threat_forest,2021.2.3,60.048663415906944,False,33.0,0.41428571428571426,0.475,-0.7306122448979593,-0.5285714285714287,1,0,0,-0.06008041967624834,0.0555185734261673,0.4,0.4,0.4,0.0,0.6000000000000001,0.6000000000000001,4.6,4.6,1.0,2.0,-1.0,4.0,0,1,0,1,0.0555185734261673
9.0,0.0,9.0,0.0,1.0,0.0,1.0,0.0,,,,right,0.7594821997918189,308.5549003998749,ti14,308.5549003998749,,296.243906899821,299.74923809990287,False,3.0,['p'],True,0.4,0.4,0.0,0.0,2.0,0.6126016192893442,0.1347766176536976,wait_cost,0.0,2.0,305.4814299000427,,ti14,2,2022-05-05_11h40.59.838,threat_forest,2021.2.3,60.048663415906944,False,33.0,0.41428571428571426,0.475,-0.7306122448979593,-0.5285714285714287,1,0,0,-0.27511839396641996,0.1347766176536976,0.4,0.4,0.4,0.0,0.6000000000000001,0.6000000000000001,3.6,3.6,1.0,2.0,-1.0,3.0,0,1,0,1,0.1347766176536976
9.0,0.0,9.0,0.0,2.0,0.0,2.0,0.0,,,,right,1.4772609998472035,312.9147584997117,ti14,309.3319315998815,311.3313356996514,312.9147584997117,,True,2.0,['p'],False,0.3061224489795918,0.4285714285714285,0.2857142857142857,2.0,2.0,0.9885754083994552,-0.0104027488546438,succ_gain,1.0,4.0,311.3313356996514,,ti14,2,2022-05-05_11h40.59.838,threat_forest,2021.2.3,60.048663415906944,True,33.0,0.41428571428571426,0.475,-0.7306122448979593,-0.5285714285714287,0,0,1,0.39018969738089543,-0.0104027488546438,0.3061224489795918,0.3061224489795918,0.4285714285714285,0.2857142857142857,-0.14285714285714324,-0.06122448979591866,1.9387755102040813,1.9387755102040813,0.0,2.0,-1.0,2.0,0,1,0,0,-0.0104027488546438
9.0,0.0,9.0,0.0,3.0,0.0,3.0,0.0,,,,left,1.1645841002464294,317.16783539997414,ti14,309.3319315998815,311.3313356996514,317.16783539997414,,False,4.0,['p'],False,0.3061224489795918,0.4285714285714285,0.2857142857142857,2.0,2.0,0.9885754083994552,-0.0176567392352312,wait_cost,1.0,3.0,316.4312772997655,,ti14,2,2022-05-05_11h40.59.838,threat_forest,2021.2.3,60.048663415906944,False,33.0,0.41428571428571426,0.475,-0.7306122448979593,-0.5285714285714287,0,0,0,0.1523640277829746,-0.0176567392352312,0.3061224489795918,0.3061224489795918,0.4285714285714285,0.2857142857142857,-0.14285714285714324,-0.06122448979591866,3.9387755102040813,3.9387755102040813,0.0,2.0,1.0,4.0,0,1,0,0,-0.0176567392352312
9.0,0.0,9.0,0.0,4.0,0.0,4.0,0.0,,,,right,1.780037899967283,323.1363188000396,ti14,323.1363188000396,,318.36525879986584,320.36465459968895,False,3.0,['p'],True,0.4,0.4,0.0,0.0,2.0,0.6126016192893442,0.2353061224489796,wait_cost,0.0,2.0,320.36465459968895,,ti14,2,2022-05-05_11h40.59.838,threat_forest,2021.2.3,60.048663415906944,False,33.0,0.41428571428571426,0.475,-0.7306122448979593,-0.5285714285714287,1,0,0,0.576634656193771,0.2353061224489796,0.4,0.4,0.4,0.0,0.6000000000000001,0.6000000000000001,3.6,3.6,1.0,2.0,-1.0,3.0,0,1,0,1,0.2353061224489796
9.0,0.0,9.0,0.0,5.0,0.0,5.0,0.0,,,,left,0.6400446998886764,329.4836923000403,ti14,329.4836923000403,,318.36525879986584,320.36465459968895,True,2.0,['p'],True,0.4,0.4,0.0,0.0,2.0,0.6126016192893442,0.046938775510204,unsucc_cost,0.0,0.0,326.9483109996654,,ti14,2,2022-05-05_11h40.59.838,threat_forest,2021.2.3,60.048663415906944,True,33.0,0.41428571428571426,0.475,-0.7306122448979593,-0.5285714285714287,1,0,1,-0.44621726149131163,0.046938775510204,0.4,0.4,0.4,0.0,0.6000000000000001,0.6000000000000001,2.6,2.6,1.0,2.0,-1.0,2.0,0,1,0,1,0.046938775510204
10.0,0.0,10.0,0.0,0.0,0.0,0.0,0.0,332.86261259997264,336.35668719979003,,left,0.874987400136888,338.092410299927,ti14,338.092410299927,,332.86261259997264,336.35668719979003,True,5.0,['r'],True,0.3950617283950617,0.4444444444444444,0.1111111111111111,1.0,2.0,0.8733423231021583,-0.0076247432762748,fight_cost,0.0,2.0,,,ti14,2,2022-05-05_11h40.59.838,threat_forest,2021.2.3,60.048663415906944,True,51.0,0.5555555555555556,0.4849206349206349,-0.2376543209876542,-0.4841332829428068,0,0,1,-0.13354579257175792,-0.0076247432762748,0.3950617283950617,0.3950617283950617,0.4444444444444444,0.1111111111111111,0.4444444444444444,0.4691358024691359,5.469135802469136,5.469135802469136,1.0,2.0,-1.0,5.0,0,1,0,0,-0.0076247432762748
10.0,0.0,10.0,0.0,1.0,0.0,1.0,0.0,,,,right,0.7383407996967435,342.837878999766,ti14,338.9988899999298,340.99837899999693,342.837878999766,,True,2.0,['r'],False,0.5555555555555556,0.6666666666666666,0.1666666666666666,1.0,2.0,0.8929352898779306,0.0825086185077658,succ_gain,1.0,4.0,340.99837899999693,,ti14,2,2022-05-05_11h40.59.838,threat_forest,2021.2.3,60.048663415906944,True,51.0,0.5555555555555556,0.4849206349206349,-0.2376543209876542,-0.4841332829428068,1,1,1,-0.3033497727660553,0.0825086185077658,0.5555555555555556,0.5555555555555556,0.6666666666666666,0.1666666666666666,1.1666666666666667,1.0555555555555558,3.055555555555556,3.055555555555556,0.0,2.0,-1.0,2.0,0,1,1,1,0.0825086185077658
10.0,0.0,10.0,0.0,2.0,0.0,2.0,0.0,,,,right,0.6755229001864791,348.8364824997261,ti14,338.9988899999298,340.99837899999693,348.8364824997261,,True,4.0,['r'],False,0.5555555555555556,0.6666666666666666,0.1666666666666666,1.0,2.0,0.8929352898779306,0.1122359133202038,succ_gain,1.0,6.0,345.59839909989387,,ti14,2,2022-05-05_11h40.59.838,threat_forest,2021.2.3,60.048663415906944,True,51.0,0.5555555555555556,0.4849206349206349,-0.2376543209876542,-0.4841332829428068,1,1,1,-0.39226822106623993,0.1122359133202038,0.5555555555555556,0.5555555555555556,0.6666666666666666,0.1666666666666666,1.1666666666666667,1.0555555555555558,5.055555555555555,5.055555555555555,0.0,2.0,1.0,4.0,0,1,1,1,0.1122359133202038
10.0,0.0,10.0,0.0,3.0,0.0,3.0,0.0,,,,right,0.7997658001258969,352.98290669964626,ti14,338.9988899999298,340.99837899999693,352.98290669964626,,True,6.0,['r'],False,0.5555555555555556,0.6666666666666666,0.1666666666666666,1.0,2.0,0.8929352898779306,-0.1290585996375891,succ_gain,1.0,6.0,351.53181229997426,,ti14,2,2022-05-05_11h40.59.838,threat_forest,2021.2.3,60.048663415906944,True,51.0,0.5555555555555556,0.4849206349206349,-0.2376543209876542,-0.4841332829428068,1,1,1,-0.22343634401643875,-0.1290585996375891,0.0,0.5555555555555556,0.6666666666666666,0.1666666666666666,1.1666666666666667,1.0555555555555558,7.055555555555555,7.0,0.0,2.0,1.0,6.0,0,0,1,1,-0.84
10.0,0.0,10.0,0.0,4.0,0.0,4.0,0.0,,,,right,0.6661359998397529,357.1270376998,ti14,338.9988899999298,340.99837899999693,357.1270376998,,True,6.0,['r'],False,0.5555555555555556,0.6666666666666666,0.1666666666666666,1.0,2.0,0.8929352898779306,-0.0568860183915053,unsucc_cost,1.0,4.0,355.7986720995977,,ti14,2,2022-05-05_11h40.59.838,threat_forest,2021.2.3,60.048663415906944,True,51.0,0.5555555555555556,0.4849206349206349,-0.2376543209876542,-0.4841332829428068,1,1,1,-0.40626142532494636,-0.0568860183915053,0.0,0.5555555555555556,0.6666666666666666,0.1666666666666666,1.1666666666666667,1.0555555555555558,7.055555555555555,7.0,0.0,2.0,-1.0,6.0,0,0,1,1,-0.84
10.0,0.0,10.0,0.0,5.0,0.0,5.0,0.0,,,,left,1.6442016996443272,360.5029310998507,ti14,338.9988899999298,340.99837899999693,360.5029310998507,,False,4.0,['r'],False,0.5555555555555556,0.6666666666666666,0.1666666666666666,1.0,2.0,0.8929352898779306,-0.2220507544581618,wait_cost,1.0,3.0,359.8155569997616,,ti14,2,2022-05-05_11h40.59.838,threat_forest,2021.2.3,60.048663415906944,False,51.0,0.5555555555555556,0.4849206349206349,-0.2376543209876542,-0.4841332829428068,1,1,0,0.4972549774565192,-0.2220507544581618,0.0,0.5555555555555556,0.6666666666666666,0.1666666666666666,1.1666666666666667,1.0555555555555558,5.055555555555555,5.055555555555555,0.0,2.0,-1.0,4.0,0,0,1,1,-0.84
10.0,0.0,10.0,0.0,6.0,0.0,6.0,0.0,,,,left,0.682681200094521,364.6858345996589,ti14,338.9988899999298,340.99837899999693,364.6858345996589,,False,3.0,['r'],False,0.5555555555555556,0.6666666666666666,0.1666666666666666,1.0,2.0,0.8929352898779306,-0.3124142661179698,wait_cost,1.0,2.0,364.1656469996087,,ti14,2,2022-05-05_11h40.59.838,threat_forest,2021.2.3,60.048663415906944,False,51.0,0.5555555555555556,0.4849206349206349,-0.2376543209876542,-0.4841332829428068,1,1,0,-0.3817272925165016,-0.3124142661179698,0.0,0.5555555555555556,0.6666666666666666,0.1666666666666666,1.1666666666666667,1.0555555555555558,4.055555555555555,4.055555555555555,0.0,2.0,-1.0,3.0,0,0,1,1,-0.84
10.0,0.0,10.0,0.0,7.0,0.0,7.0,0.0,,,,right,0.74450150039047,369.3725318997167,ti14,369.3725318997167,,365.3992417999543,367.39897489966825,False,2.0,['r'],True,0.3950617283950617,0.4444444444444444,0.1111111111111111,1.0,2.0,0.8733423231021583,-0.6049382716049383,wait_cost,0.0,1.0,367.39897489966825,,ti14,2,2022-05-05_11h40.59.838,threat_forest,2021.2.3,60.048663415906944,False,51.0,0.5555555555555556,0.4849206349206349,-0.2376543209876542,-0.4841332829428068,0,0,0,-0.29504041156061445,-0.6049382716049383,0.0,0.3950617283950617,0.4444444444444444,0.1111111111111111,0.4444444444444444,0.4691358024691359,2.469135802469136,2.469135802469136,1.0,2.0,-1.0,2.0,0,0,0,0,-0.84
11.0,0.0,11.0,0.0,0.0,0.0,0.0,0.0,374.63567789969966,378.137049799785,,right,0.7763934996910393,380.11941809998825,ti14,380.11941809998825,,374.63567789969966,378.137049799785,False,5.0,['p'],True,0.375,0.5,0.25,1.0,1.0,0.9850568223215076,0.0363579936230754,wait_cost,0.0,4.0,,,ti14,2,2022-05-05_11h40.59.838,threat_forest,2021.2.3,60.048663415906944,False,3.0,0.35,0.4527777777777778,-1.4225000000000003,-0.8300771604938273,0,0,0,-0.2530958000934801,0.0363579936230754,0.375,0.375,0.5,0.25,-0.25,-0.125,4.875,4.875,1.0,1.0,-1.0,5.0,0,1,0,0,0.0363579936230754
11.0,0.0,11.0,0.0,1.0,0.0,1.0,0.0,,,,left,0.7374340002425015,384.34321879968047,ti14,380.91644649999216,382.91574679967016,384.34321879968047,,False,4.0,['p'],False,0.16,0.2,0.2,2.0,1.0,0.8198746470064713,-0.0315257116296388,wait_cost,1.0,3.0,382.91574679967016,,ti14,2,2022-05-05_11h40.59.838,threat_forest,2021.2.3,60.048663415906944,False,3.0,0.35,0.4527777777777778,-1.4225000000000003,-0.8300771604938273,0,0,0,-0.30457868596934634,-0.0315257116296388,0.16,0.16,0.2,0.2,-1.0,-0.7200000000000004,3.2799999999999994,3.2799999999999994,0.0,1.0,-1.0,4.0,0,1,0,0,-0.0315257116296388
11.0,0.0,11.0,0.0,2.0,0.0,2.0,0.0,,,,left,1.286847600247711,390.3240046999417,ti14,390.3240046999417,,385.09980889968574,387.0992348999716,True,3.0,['p'],True,0.375,0.5,0.25,1.0,1.0,0.9850568223215076,0.0516058122558593,succ_gain,0.0,4.0,387.0992348999716,,ti14,2,2022-05-05_11h40.59.838,threat_forest,2021.2.3,60.048663415906944,True,3.0,0.35,0.4527777777777778,-1.4225000000000003,-0.8300771604938273,0,0,1,0.25219550687646913,0.0516058122558593,0.375,0.375,0.5,0.25,-0.25,-0.125,2.875,2.875,1.0,1.0,-1.0,3.0,0,1,0,0,0.0516058122558593
11.0,0.0,11.0,0.0,3.0,0.0,3.0,0.0,,,,left,0.853765900246799,394.64144849963486,ti14,391.6330927996896,393.63257719995454,394.64144849963486,,False,4.0,['p'],False,0.16,0.2,0.2,2.0,1.0,0.8198746470064713,-0.1111610703125001,wait_cost,1.0,3.0,393.63257719995454,,ti14,2,2022-05-05_11h40.59.838,threat_forest,2021.2.3,60.048663415906944,False,3.0,0.35,0.4527777777777778,-1.4225000000000003,-0.8300771604938273,0,0,0,-0.15809824426259825,-0.1111610703125001,0.16,0.16,0.2,0.2,-1.0,-0.7200000000000004,3.2799999999999994,3.2799999999999994,0.0,1.0,1.0,4.0,0,1,0,0,-0.1111610703125001
11.0,0.0,11.0,0.0,4.0,0.0,4.0,0.0,,,,left,1.622710300143808,399.9227076997049,ti14,391.6330927996896,393.63257719995454,399.9227076997049,,False,3.0,['p'],False,0.16,0.2,0.2,2.0,1.0,0.8198746470064713,-0.1062520000000001,wait_cost,1.0,2.0,397.516083299648,,ti14,2,2022-05-05_11h40.59.838,threat_forest,2021.2.3,60.048663415906944,False,3.0,0.35,0.4527777777777778,-1.4225000000000003,-0.8300771604938273,0,0,0,0.48409777607744636,-0.1062520000000001,0.16,0.16,0.2,0.2,-1.0,-0.7200000000000004,2.2799999999999994,2.2799999999999994,0.0,1.0,-1.0,3.0,0,1,0,0,-0.1062520000000001
11.0,0.0,11.0,0.0,5.0,0.0,5.0,0.0,,,,left,1.5247447998262942,404.6044215997681,ti14,391.6330927996896,393.63257719995454,404.6044215997681,,False,2.0,['p'],False,0.16,0.2,0.2,2.0,1.0,0.8198746470064713,-0.1075,wait_cost,1.0,1.0,403.56605649972335,,ti14,2,2022-05-05_11h40.59.838,threat_forest,2021.2.3,60.048663415906944,False,3.0,0.35,0.4527777777777778,-1.4225000000000003,-0.8300771604938273,0,0,0,0.421827051679542,-0.1075,0.16,0.16,0.2,0.2,-1.0,-0.7200000000000004,1.2799999999999996,1.2799999999999996,0.0,1.0,-1.0,2.0,0,1,0,0,-0.1075
11.0,0.0,11.0,0.0,6.0,0.0,6.0,0.0,,,,right,0.6859266003593802,411.6228914996609,ti14,391.6330927996896,393.63257719995454,411.6228914996609,,True,1.0,['p'],False,0.16,0.2,0.2,2.0,1.0,0.8198746470064713,0.1599999999999999,fight_cost,1.0,0.0,408.1496906997636,,ti14,2,2022-05-05_11h40.59.838,threat_forest,2021.2.3,60.048663415906944,True,3.0,0.35,0.4527777777777778,-1.4225000000000003,-0.8300771604938273,0,0,1,-0.3769846535414624,0.1599999999999999,1.0,0.16,0.2,0.2,-1.0,-0.7200000000000004,0.2799999999999996,1.0,0.0,1.0,-1.0,1.0,1,1,0,0,0.625
12.0,0.0,12.0,0.0,0.0,0.0,0.0,0.0,416.1825894997455,419.6830293997191,,right,1.7102900999598205,423.25733619974926,ti14,423.25733619974926,,416.1825894997455,419.6830293997191,False,4.0,['p'],True,0.375,0.5,0.25,1.0,1.0,0.9850568223215076,0.0300347076439857,wait_cost,0.0,3.0,,,ti14,2,2022-05-05_11h40.59.838,threat_forest,2021.2.3,60.048663415906944,False,50.0,0.35,0.35,-1.2625000000000002,-1.3425000000000002,1,1,0,0.5366630052250976,0.0300347076439857,0.375,0.375,0.5,0.25,-0.25,-0.125,3.875,3.875,1.0,1.0,-1.0,4.0,0,1,1,1,0.0300347076439857
12.0,0.0,12.0,0.0,1.0,0.0,1.0,0.0,,,,left,0.8465817999094725,430.3010833999142,ti14,430.3010833999142,,416.1825894997455,419.6830293997191,True,3.0,['p'],True,0.375,0.5,0.25,1.0,1.0,0.9850568223215076,0.0396134224891663,unsucc_cost,0.0,1.0,427.01635949965566,,ti14,2,2022-05-05_11h40.59.838,threat_forest,2021.2.3,60.048663415906944,True,50.0,0.35,0.35,-1.2625000000000002,-1.3425000000000002,1,1,1,-0.1665484489890556,0.0396134224891663,0.375,0.375,0.5,0.25,-0.25,-0.125,2.875,2.875,1.0,1.0,-1.0,3.0,0,1,1,1,0.0396134224891663
12.0,0.0,12.0,0.0,2.0,0.0,2.0,0.0,,,,left,1.1746829999610782,434.1846860996448,ti14,434.1846860996448,,416.1825894997455,419.6830293997191,True,1.0,['p'],True,0.375,0.5,0.25,1.0,1.0,0.9850568223215076,0.0439410781860352,succ_gain,0.0,2.0,433.1671533999033,,ti14,2,2022-05-05_11h40.59.838,threat_forest,2021.2.3,60.048663415906944,True,50.0,0.35,0.35,-1.2625000000000002,-1.3425000000000002,1,1,1,0.16099832392982316,0.0439410781860352,1.0,0.375,0.5,0.25,-0.25,-0.125,0.875,1.0,1.0,1.0,-1.0,1.0,1,1,1,1,0.625
12.0,0.0,12.0,0.0,3.0,0.0,3.0,0.0,,,,left,1.4508615001104772,441.1438835998997,ti14,435.3836555997841,437.3834706000053,441.1438835998997,,False,2.0,['p'],False,0.2,0.2,0.0,0.0,1.0,0.4554859150035951,-0.0210380859375,wait_cost,1.0,1.0,437.3834706000053,,ti14,2,2022-05-05_11h40.59.838,threat_forest,2021.2.3,60.048663415906944,False,50.0,0.35,0.35,-1.2625000000000002,-1.3425000000000002,0,0,0,0.37215751800960195,-0.0210380859375,0.2,0.2,0.2,0.0,-0.40000000000000013,-0.40000000000000013,1.5999999999999999,1.5999999999999999,0.0,1.0,1.0,2.0,0,1,0,0,-0.0210380859375
12.0,0.0,12.0,0.0,4.0,0.0,4.0,0.0,,,,right,0.6972950999625027,446.786712499801,ti14,435.3836555997841,437.3834706000053,446.786712499801,,True,1.0,['p'],False,0.2,0.2,0.0,0.0,1.0,0.4554859150035951,0.0662499999999999,succ_gain,1.0,2.0,444.61664369981736,,ti14,2,2022-05-05_11h40.59.838,threat_forest,2021.2.3,60.048663415906944,True,50.0,0.35,0.35,-1.2625000000000002,-1.3425000000000002,0,0,1,-0.3605465719381837,0.0662499999999999,1.0,0.2,0.2,0.0,-0.40000000000000013,-0.40000000000000013,0.5999999999999999,1.0,0.0,1.0,-1.0,1.0,1,1,0,0,0.625
12.0,0.0,12.0,0.0,5.0,0.0,5.0,0.0,,,,left,1.4153511002659798,451.8882888997905,ti14,451.8882888997905,,447.5037777000107,449.5166929997504,True,2.0,['p'],True,0.375,0.5,0.25,1.0,1.0,0.9850568223215076,0.0875,unsucc_cost,0.0,0.0,449.5166929997504,,ti14,2,2022-05-05_11h40.59.838,threat_forest,2021.2.3,60.048663415906944,True,50.0,0.35,0.35,-1.2625000000000002,-1.3425000000000002,1,1,1,0.34737762771314185,0.0875,0.375,0.375,0.5,0.25,-0.25,-0.125,1.875,1.875,1.0,1.0,1.0,2.0,0,1,1,1,0.0875
13.0,0.0,13.0,0.0,0.0,0.0,0.0,0.0,456.9932136996649,460.5002350998111,,left,0.7541911001317203,462.2257924997248,ti14,462.2257924997248,,456.9932136996649,460.5002350998111,True,5.0,['p'],True,0.3333333333333333,0.3333333333333333,0.0,0.0,1.0,0.5793801642856949,0.0360091124884982,unsucc_cost,0.0,3.0,,,ti14,2,2022-05-05_11h40.59.838,threat_forest,2021.2.3,60.048663415906944,True,66.0,0.5,0.425,-1.5,-1.38125,1,0,1,-0.2821094946362563,0.0360091124884982,0.3333333333333333,0.3333333333333333,0.3333333333333333,0.0,-2.220446049250313e-16,-2.220446049250313e-16,5.0,5.0,1.0,1.0,-1.0,5.0,0,1,0,1,0.0360091124884982
13.0,0.0,13.0,0.0,1.0,0.0,1.0,0.0,,,,left,0.9660253003239632,467.7398513997905,ti14,463.0010523996316,465.0003651999869,467.7398513997905,,False,3.0,['p'],False,0.2222222222222222,0.6666666666666666,0.6666666666666666,2.0,1.0,0.77250688571426,0.0023182547545258,wait_cost,1.0,2.0,465.0003651999869,,ti14,2,2022-05-05_11h40.59.838,threat_forest,2021.2.3,60.048663415906944,False,66.0,0.5,0.425,-1.5,-1.38125,0,0,0,-0.0345652543010363,0.0023182547545258,0.2222222222222222,0.2222222222222222,0.6666666666666666,0.6666666666666666,-1.0,-1.0,2.0,2.0,0.0,1.0,-1.0,3.0,0,1,0,0,0.0023182547545258
13.0,0.0,13.0,0.0,2.0,0.0,2.0,0.0,,,,right,0.6954127000644803,472.3847114997916,ti14,463.0010523996316,465.0003651999869,472.3847114997916,,True,2.0,['p'],False,0.2222222222222222,0.6666666666666666,0.6666666666666666,2.0,1.0,0.77250688571426,0.0048344383478128,fight_cost,1.0,0.0,470.7339259996079,,ti14,2,2022-05-05_11h40.59.838,threat_forest,2021.2.3,60.048663415906944,True,66.0,0.5,0.425,-1.5,-1.38125,0,0,1,-0.36324979661212736,0.0048344383478128,0.2222222222222222,0.2222222222222222,0.6666666666666666,0.6666666666666666,-1.0,-1.0,1.0,1.0,0.0,1.0,-1.0,2.0,0,1,0,0,0.0048344383478128
