miniblock.thisRepN,miniblock.thisTrialN,miniblock.thisN,miniblock.thisIndex,day.thisRepN,day.thisTrialN,day.thisN,day.thisIndex,forest.started,fixation_forest.started,fixation_forest.stopped,key_resp.keys,key_resp.rt,key_resp.started,Subject_ID,weather_left.started,weather_left.stopped,weather_right.started,weather_right.stopped,foraging T/F,in_LP,p/r heuristic,good_weather.T/F,p_succ_correct,p_succ_uncorrected,r_threat,n_oponents,gain_if_succ,weather_entropy,OP_value_difference,action_outcome,forest_side_L=0_R=1,out_LP,fixation_day.started,fixation_day.stopped,participant,session,date,expName,psychopyVersion,frameRate,foraging T/F NaNs,fora_NR,forest_mean_p,mvt_cutoff_p,forest_mean_ev,mvt_cutoff_ev,mvt_policy_eg,mvt_policy_p,fora_response,logRT,optimal policy,$\mathit{p}$ success cor + cap,$\mathit{p}$ success cor,$\mathit{p}$ success,risk threat encounter,expected gain naive,expected gain correct,expected state no bounds,expected state with bounds,weather type,gain magnitude,win stay lose shift,continuous energy state,binary energy state,$\mathit{p}$ success based MVT,expected gain based MVT
0.0,0.0,0.0,0.0,0.0,0.0,0.0,0.0,52.65182109999978,56.14832290000004,None,left,1.043441900000289,58.24981399999979,sn16,58.24981399999979,None,52.65182109999978,56.14832290000004,True,5.0,['r'],True,0.36,0.6,0.4,2.0,2.0,0.9801625908629508,-0.0333353473,succ_gain,0.0,6.0,,,sn16,1,2023-03-21_11h29.14.221,threat_forest,2021.2.3,60.07312100281201,True,18.0,0.55,0.55,-0.4800000000000001,-0.4800000000000001,0,0,1,0.042524767978609435,-0.0333353473,0.36,0.36,0.6,0.6,-0.8000000000000003,-0.9600000000000002,4.04,4.04,1.0,2.0,,5.0,0,0,0
0.0,0.0,0.0,0.0,1.0,0.0,1.0,0.0,,,,left,1.497791100000086,62.01470990000007,sn16,62.01470990000007,None,52.65182109999978,56.14832290000004,True,6.0,['r'],True,0.36,0.6,0.4,2.0,2.0,0.9801625908629508,-0.1255866,succ_gain,0.0,6.0,61.339646699999776,None,sn16,1,2023-03-21_11h29.14.221,threat_forest,2021.2.3,60.07312100281201,True,18.0,0.55,0.55,-0.4800000000000001,-0.4800000000000001,0,0,1,0.4039914227671955,-0.1255866,0.36,0.36,0.6,0.6,-0.8000000000000003,-0.9600000000000002,5.04,5.04,1.0,2.0,1.0,6.0,0,0,0
0.0,0.0,0.0,0.0,2.0,0.0,2.0,0.0,,,,left,1.3649970999999823,67.1151519,sn16,63.5380424,65.55249809999987,67.1151519,None,False,6.0,['r'],False,0.5,0.5,0.0,0.0,2.0,0.6309297535714574,0.0891,wait_cost,1.0,5.0,65.55249809999987,None,sn16,1,2023-03-21_11h29.14.221,threat_forest,2021.2.3,60.07312100281201,False,18.0,0.55,0.55,-0.4800000000000001,-0.4800000000000001,1,0,0,0.3111523040925287,0.0891,0.5,0.5,0.5,1.0,0.0,0.0,6.0,6.0,0.0,2.0,-1.0,6.0,0,0,1
0.0,0.0,0.0,0.0,3.0,0.0,3.0,0.0,,,,left,0.8704997999998341,72.58689449999974,sn16,63.5380424,65.55249809999987,72.58689449999974,None,False,5.0,['r'],False,0.5,0.5,0.0,0.0,2.0,0.6309297535714574,0.1069499999999999,wait_cost,1.0,4.0,70.51447400000006,None,sn16,1,2023-03-21_11h29.14.221,threat_forest,2021.2.3,60.07312100281201,False,18.0,0.55,0.55,-0.4800000000000001,-0.4800000000000001,1,0,0,-0.13868774952712584,0.1069499999999999,0.5,0.5,0.5,1.0,0.0,0.0,5.0,5.0,0.0,2.0,-1.0,5.0,0,0,1
0.0,0.0,0.0,0.0,4.0,0.0,4.0,0.0,,,,left,1.1826003000001035,76.52880700000014,sn16,63.5380424,65.55249809999987,76.52880700000014,None,False,4.0,['r'],False,0.5,0.5,0.0,0.0,2.0,0.6309297535714574,0.1425,wait_cost,1.0,3.0,75.49339569999984,None,sn16,1,2023-03-21_11h29.14.221,threat_forest,2021.2.3,60.07312100281201,False,18.0,0.55,0.55,-0.4800000000000001,-0.4800000000000001,1,0,0,0.1677156580829837,0.1425,0.5,0.5,0.5,1.0,0.0,0.0,4.0,4.0,0.0,2.0,-1.0,4.0,0,0,1
0.0,0.0,0.0,0.0,5.0,0.0,5.0,0.0,,,,left,0.7836296999998922,82.56820239999979,sn16,82.56820239999979,None,77.74140979999993,79.75575879999997,True,3.0,['r'],True,0.36,0.6,0.4,2.0,2.0,0.9801625908629508,-0.0017999999999999,succ_gain,0.0,5.0,79.75575879999997,None,sn16,1,2023-03-21_11h29.14.221,threat_forest,2021.2.3,60.07312100281201,True,18.0,0.55,0.55,-0.4800000000000001,-0.4800000000000001,0,0,1,-0.2438186916393396,-0.0017999999999999,0.36,0.36,0.6,0.6,-0.8000000000000003,-0.9600000000000002,2.04,2.04,1.0,2.0,-1.0,3.0,0,0,0
0.0,0.0,0.0,0.0,6.0,0.0,6.0,0.0,,,,right,1.6282970000002024,87.72331959999974,sn16,83.36965169999985,85.38417440000012,87.72331959999974,None,True,5.0,['r'],False,0.5,0.5,0.0,0.0,2.0,0.6309297535714574,0.0,succ_gain,1.0,6.0,85.38417440000012,None,sn16,1,2023-03-21_11h29.14.221,threat_forest,2021.2.3,60.07312100281201,True,18.0,0.55,0.55,-0.4800000000000001,-0.4800000000000001,1,0,1,0.4875346833741327,0.0,0.0,0.5,0.5,1.0,0.0,0.0,5.0,5.0,0.0,2.0,1.0,5.0,0,0,1
0.0,0.0,0.0,0.0,7.0,0.0,7.0,0.0,,,,left,0.975918399999955,95.02903990000004,sn16,83.36965169999985,85.38417440000012,95.02903990000004,None,False,6.0,['r'],False,0.5,0.5,0.0,0.0,2.0,0.6309297535714574,0.0,wait_cost,1.0,5.0,91.39491989999988,None,sn16,1,2023-03-21_11h29.14.221,threat_forest,2021.2.3,60.07312100281201,False,18.0,0.55,0.55,-0.4800000000000001,-0.4800000000000001,1,0,0,-0.02437630262169076,0.0,0.0,0.5,0.5,1.0,0.0,0.0,6.0,6.0,0.0,2.0,1.0,6.0,0,0,1
1.0,0.0,1.0,0.0,0.0,0.0,0.0,0.0,98.6249911,102.13509560000011,None,left,1.3585524000000078,104.90939049999996,sn16,104.90939049999996,None,98.6249911,102.13509560000011,True,5.0,['r'],True,0.2222222222222222,0.6666666666666666,0.6666666666666666,2.0,1.0,0.77250688571426,-0.0890555304009964,figh_cost,0.0,2.0,,,sn16,1,2023-03-21_11h29.14.221,threat_forest,2021.2.3,60.07312100281201,True,30.0,0.5833333333333333,0.5666666666666667,-1.25,-0.865,0,0,1,0.3064197210947538,-0.0890555304009964,0.2222222222222222,0.2222222222222222,0.6666666666666666,0.33333333333333337,-2.0,-2.0,3.0,3.0,1.0,1.0,-1.0,5.0,0,0,0
1.0,0.0,1.0,0.0,1.0,0.0,1.0,0.0,,,,left,2.000549299999875,111.61361080000006,sn16,106.29809759999988,108.31260609999981,111.61361080000006,None,False,2.0,['r'],False,0.5,0.5,0.0,0.0,1.0,0.6309297535714574,0.0566654074502743,wait_cost,1.0,1.0,108.3126060999998,None,sn16,1,2023-03-21_11h29.14.221,threat_forest,2021.2.3,60.07312100281201,False,30.0,0.5833333333333333,0.5666666666666667,-1.25,-0.865,1,0,0,0.693421792850476,0.0566654074502743,0.5,0.5,0.5,1.0,-0.5,-0.5,1.5,1.5,0.0,1.0,-1.0,2.0,0,0,1
1.0,0.0,1.0,0.0,2.0,0.0,2.0,0.0,,,,left,0.9923918999998024,118.72630299999992,sn16,118.72630299999992,None,113.64134920000016,115.6557585999999,True,1.0,['r'],True,0.2222222222222222,0.6666666666666666,0.6666666666666666,2.0,1.0,0.77250688571426,0.0452835648148148,succ_gain,0.0,2.0,115.6557585999999,None,sn16,1,2023-03-21_11h29.14.221,threat_forest,2021.2.3,60.07312100281201,True,30.0,0.5833333333333333,0.5666666666666667,-1.25,-0.865,0,0,1,-0.007637189229438748,0.0452835648148148,1.0,0.2222222222222222,0.6666666666666666,0.33333333333333337,-2.0,-2.0,-1.0,0.0,1.0,1.0,-1.0,1.0,1,0,0
1.0,0.0,1.0,0.0,3.0,0.0,3.0,0.0,,,,left,1.3256680999998025,125.38025599999992,sn16,125.38025599999992,None,113.64134920000016,115.6557585999999,True,2.0,['r'],True,0.2222222222222222,0.6666666666666666,0.6666666666666666,2.0,1.0,0.77250688571426,-0.0434456447187929,figh_cost,0.0,0.0,121.75015369999984,None,sn16,1,2023-03-21_11h29.14.221,threat_forest,2021.2.3,60.07312100281201,True,30.0,0.5833333333333333,0.5666666666666667,-1.25,-0.865,0,0,1,0.28191655877370814,-0.0434456447187929,0.2222222222222222,0.2222222222222222,0.6666666666666666,0.33333333333333337,-2.0,-2.0,0.0,0.0,1.0,1.0,1.0,2.0,0,0,0
2.0,0.0,2.0,0.0,0.0,0.0,0.0,0.0,131.5601772,135.05917309999995,None,left,1.6299736000000848,135.82826419999992,sn16,135.82826419999992,None,131.5601772,135.05917309999995,True,5.0,['p'],True,0.4444444444444445,0.6666666666666666,0.3333333333333333,1.0,1.0,0.9656336071428248,0.0468159241685405,figh_cost,0.0,2.0,,,sn16,1,2023-03-21_11h29.14.221,threat_forest,2021.2.3,60.07312100281201,True,23.0,0.43333333333333335,0.5083333333333333,-1.3600000000000003,-1.3050000000000002,1,0,1,0.48856381836854285,0.0468159241685405,0.4444444444444445,0.4444444444444445,0.6666666666666666,0.6666666666666667,-1.0,-1.0,4.0,4.0,1.0,1.0,-1.0,5.0,0,0,1
2.0,0.0,2.0,0.0,1.0,0.0,1.0,0.0,,,,left,0.6408714999997756,142.74719939999977,sn16,142.74719939999977,None,131.5601772,135.05917309999995,True,2.0,['p'],True,0.4444444444444445,0.6666666666666666,0.3333333333333333,1.0,1.0,0.9656336071428248,0.0366186597420974,figh_cost,0.0,0.0,139.50015570000005,None,sn16,1,2023-03-21_11h29.14.221,threat_forest,2021.2.3,60.07312100281201,True,23.0,0.43333333333333335,0.5083333333333333,-1.3600000000000003,-1.3050000000000002,1,0,1,-0.44492631017693707,0.0366186597420974,0.4444444444444445,0.4444444444444445,0.6666666666666666,0.6666666666666667,-1.0,-1.0,1.0,1.0,1.0,1.0,-1.0,2.0,0,0,1
3.0,0.0,3.0,0.0,0.0,0.0,0.0,0.0,147.3207314000001,150.8260697999999,None,left,1.2337250000000497,151.57508439999992,sn16,151.57508439999992,None,147.3207314000001,150.8260697999999,True,4.0,['p'],True,0.1875,0.25,0.25,2.0,1.0,0.895754137500101,-0.0017291066874999,unsucc_cost,0.0,2.0,,,sn16,1,2023-03-21_11h29.14.221,threat_forest,2021.2.3,60.07312100281201,True,57.0,0.4583333333333333,0.4458333333333333,-1.34375,-1.3518750000000002,0,0,1,0.21003804813576987,-0.0017291066874999,0.1875,0.1875,0.25,0.75,-2.0,-1.6875,2.3125,2.3125,1.0,1.0,-1.0,4.0,0,0,0
3.0,0.0,3.0,0.0,1.0,0.0,1.0,0.0,,,,left,2.192366799999945,156.59111269999994,sn16,156.59111269999994,None,147.3207314000001,150.8260697999999,True,2.0,['p'],True,0.1875,0.25,0.25,2.0,1.0,0.895754137500101,-0.0136192356711001,unsucc_cost,0.0,0.0,154.85238560000016,None,sn16,1,2023-03-21_11h29.14.221,threat_forest,2021.2.3,60.07312100281201,True,57.0,0.4583333333333333,0.4458333333333333,-1.34375,-1.3518750000000002,0,0,1,0.7849816908530998,-0.0136192356711001,0.1875,0.1875,0.25,0.75,-2.0,-1.6875,0.3125,0.3125,1.0,1.0,-1.0,2.0,0,0,0
4.0,0.0,4.0,0.0,0.0,0.0,0.0,0.0,164.58685089999972,168.09019009999977,None,left,1.7689282999999705,169.59816180000007,sn16,164.58685089999972,168.09019009999975,169.59816180000007,None,False,5.0,['r'],False,0.36,0.6,0.4,2.0,1.0,0.9801625908629508,-0.019480620685,wait_cost,1.0,4.0,,,sn16,1,2023-03-21_11h29.14.221,threat_forest,2021.2.3,60.07312100281201,False,0.0,0.55,0.5041666666666667,-0.9100000000000001,-1.126875,0,0,0,0.5703738829825558,-0.019480620685,0.36,0.36,0.6,0.6,-1.4000000000000004,-1.3200000000000003,3.6799999999999997,3.6799999999999997,0.0,1.0,-1.0,5.0,0,0,0
4.0,0.0,4.0,0.0,1.0,0.0,1.0,0.0,,,,right,2.2427354999999807,175.53779699999996,sn16,164.58685089999972,168.09019009999975,175.53779699999996,None,True,4.0,['r'],False,0.36,0.6,0.4,2.0,1.0,0.9801625908629508,0.0140390357999998,unsucc_cost,1.0,2.0,173.40181099999973,None,sn16,1,2023-03-21_11h29.14.221,threat_forest,2021.2.3,60.07312100281201,True,0.0,0.55,0.5041666666666667,-0.9100000000000001,-1.126875,0,0,1,0.8076963261593436,0.0140390357999998,0.36,0.36,0.6,0.6,-1.4000000000000004,-1.3200000000000003,2.6799999999999997,2.6799999999999997,0.0,1.0,-1.0,4.0,0,0,0
4.0,0.0,4.0,0.0,2.0,0.0,2.0,0.0,,,,right,1.0519290000002002,181.2970495999998,sn16,164.58685089999972,168.09019009999975,181.2970495999998,None,True,2.0,['r'],False,0.36,0.6,0.4,2.0,1.0,0.9801625908629508,0.0199038400000001,succ_gain,1.0,3.0,179.81224369999973,None,sn16,1,2023-03-21_11h29.14.221,threat_forest,2021.2.3,60.07312100281201,True,0.0,0.55,0.5041666666666667,-0.9100000000000001,-1.126875,0,0,1,0.050625621543825945,0.0199038400000001,0.36,0.36,0.6,0.6,-1.4000000000000004,-1.3200000000000003,0.6799999999999997,0.6799999999999997,0.0,1.0,-1.0,2.0,0,0,0
4.0,0.0,4.0,0.0,3.0,0.0,3.0,0.0,,,,left,1.860095399999864,187.07714529999976,sn16,187.07714529999976,None,182.37699969999997,184.39159489999975,True,3.0,['r'],True,0.5,0.5,0.0,0.0,1.0,0.6309297535714574,0.1769,succ_gain,0.0,4.0,184.39159489999972,None,sn16,1,2023-03-21_11h29.14.221,threat_forest,2021.2.3,60.07312100281201,True,0.0,0.55,0.5041666666666667,-0.9100000000000001,-1.126875,1,0,1,0.6206277767323137,0.1769,0.5,0.5,0.5,1.0,-0.5,-0.5,2.5,2.5,1.0,1.0,1.0,3.0,0,0,1
4.0,0.0,4.0,0.0,4.0,0.0,4.0,0.0,,,,right,1.1950778000000355,192.3507360999997,sn16,192.3507360999997,None,182.37699969999997,184.39159489999975,False,4.0,['r'],True,0.5,0.5,0.0,0.0,1.0,0.6309297535714574,0.1425,wait_cost,0.0,3.0,190.9685430999998,None,sn16,1,2023-03-21_11h29.14.221,threat_forest,2021.2.3,60.07312100281201,False,0.0,0.55,0.5041666666666667,-0.9100000000000001,-1.126875,1,0,0,0.1782112878668015,0.1425,0.5,0.5,0.5,1.0,-0.5,-0.5,3.5,3.5,1.0,1.0,1.0,4.0,0,0,1
4.0,0.0,4.0,0.0,5.0,0.0,5.0,0.0,,,,left,2.2698879000004126,197.0559515,sn16,193.56653069999996,195.5811702000001,197.0559515,None,False,3.0,['r'],False,0.36,0.6,0.4,2.0,1.0,0.9801625908629508,-0.0017999999999999,wait_cost,1.0,2.0,195.5811702000001,None,sn16,1,2023-03-21_11h29.14.221,threat_forest,2021.2.3,60.07312100281201,False,0.0,0.55,0.5041666666666667,-0.9100000000000001,-1.126875,0,0,0,0.8197304470141878,-0.0017999999999999,0.36,0.36,0.6,0.6,-1.4000000000000004,-1.3200000000000003,1.6799999999999997,1.6799999999999997,0.0,1.0,-1.0,3.0,0,0,0
4.0,0.0,4.0,0.0,6.0,0.0,6.0,0.0,,,,right,1.3962478999997074,204.34275979999984,sn16,193.56653069999996,195.5811702000001,204.34275979999984,None,True,2.0,['r'],False,0.36,0.6,0.4,2.0,1.0,0.9801625908629508,-0.0699999999999999,unsucc_cost,1.0,0.0,201.3594425000001,None,sn16,1,2023-03-21_11h29.14.221,threat_forest,2021.2.3,60.07312100281201,True,0.0,0.55,0.5041666666666667,-0.9100000000000001,-1.126875,0,0,1,0.33378856737128465,-0.0699999999999999,0.36,0.36,0.6,0.6,-1.4000000000000004,-1.3200000000000003,0.6799999999999997,0.6799999999999997,0.0,1.0,-1.0,2.0,0,0,0
5.0,0.0,5.0,0.0,0.0,0.0,0.0,0.0,208.70620879999976,212.21969039999976,None,left,1.576632299999801,214.43633709999995,sn16,208.70620879999976,212.21969039999976,214.43633709999995,None,False,4.0,['p'],False,0.16,0.2,0.2,2.0,2.0,0.8198746470064713,0.0018667197674524,wait_cost,1.0,3.0,,,sn16,1,2023-03-21_11h29.14.221,threat_forest,2021.2.3,60.07312100281201,False,63.0,0.26666666666666666,0.4083333333333333,-1.5022222222222226,-1.2061111111111114,0,0,0,0.45529111655787763,0.0018667197674524,0.16,0.16,0.2,0.8,-1.8000000000000003,-1.5600000000000003,2.4399999999999995,2.4399999999999995,0.0,2.0,-1.0,4.0,0,0,0
5.0,0.0,5.0,0.0,1.0,0.0,1.0,0.0,,,,left,1.2665138000002116,218.76632010000003,sn16,208.70620879999976,212.21969039999976,218.76632010000003,None,False,3.0,['p'],False,0.16,0.2,0.2,2.0,2.0,0.8198746470064713,0.0173973197132958,wait_cost,1.0,2.0,218.04354809999995,None,sn16,1,2023-03-21_11h29.14.221,threat_forest,2021.2.3,60.07312100281201,False,63.0,0.26666666666666666,0.4083333333333333,-1.5022222222222226,-1.2061111111111114,0,0,0,0.2362680865709459,0.0173973197132958,0.16,0.16,0.2,0.8,-1.8000000000000003,-1.5600000000000003,1.4399999999999997,1.4399999999999997,0.0,2.0,-1.0,3.0,0,0,0
5.0,0.0,5.0,0.0,2.0,0.0,2.0,0.0,,,,right,2.6843395000000783,222.92923990000008,sn16,208.70620879999976,212.21969039999976,222.92923990000008,None,True,2.0,['p'],False,0.16,0.2,0.2,2.0,2.0,0.8198746470064713,-0.0054167298692271,unsucc_cost,1.0,0.0,222.0730398999999,None,sn16,1,2023-03-21_11h29.14.221,threat_forest,2021.2.3,60.07312100281201,True,63.0,0.26666666666666666,0.4083333333333333,-1.5022222222222226,-1.2061111111111114,0,0,1,0.9874347014232051,-0.0054167298692271,0.16,0.16,0.2,0.8,-1.8000000000000003,-1.5600000000000003,0.4399999999999997,0.4399999999999997,0.0,2.0,-1.0,2.0,0,0,0
6.0,0.0,6.0,0.0,0.0,0.0,0.0,0.0,228.8830015999997,232.3846070999998,None,left,1.924877899999956,233.8878282000001,sn16,233.8878282000001,None,228.8830015999997,232.3846070999998,True,4.0,['p'],True,0.4444444444444445,0.6666666666666666,0.3333333333333333,1.0,1.0,0.9656336071428248,0.045641051707109,succ_gain,0.0,5.0,,,sn16,1,2023-03-21_11h29.14.221,threat_forest,2021.2.3,60.07312100281201,True,39.0,0.43333333333333335,0.35,-1.2000000000000002,-1.3511111111111114,1,1,1,0.6548625371566192,0.045641051707109,0.4444444444444445,0.4444444444444445,0.6666666666666666,0.6666666666666667,-1.0,-1.0,3.0,3.0,1.0,1.0,-1.0,4.0,0,1,1
6.0,0.0,6.0,0.0,1.0,0.0,1.0,0.0,,,,left,2.812557199999901,239.54012550000016,sn16,239.54012550000016,None,228.8830015999997,232.3846070999998,True,5.0,['p'],True,0.4444444444444445,0.6666666666666666,0.3333333333333333,1.0,1.0,0.9656336071428248,0.0650358813584198,figh_cost,0.0,2.0,237.85820049999984,None,sn16,1,2023-03-21_11h29.14.221,threat_forest,2021.2.3,60.07312100281201,True,39.0,0.43333333333333335,0.35,-1.2000000000000002,-1.3511111111111114,1,1,1,1.0340941051014714,0.0650358813584198,0.4444444444444445,0.4444444444444445,0.6666666666666666,0.6666666666666667,-1.0,-1.0,4.0,4.0,1.0,1.0,1.0,5.0,0,1,1
6.0,0.0,6.0,0.0,2.0,0.0,2.0,0.0,,,,left,2.3734501000003547,247.7385998,sn16,242.37110549999989,244.38576139999986,247.7385998,None,False,2.0,['p'],False,0.2,0.2,0.0,0.0,1.0,0.4554859150035951,-0.0074208352385306,wait_cost,1.0,1.0,244.38576139999984,None,sn16,1,2023-03-21_11h29.14.221,threat_forest,2021.2.3,60.07312100281201,False,39.0,0.43333333333333335,0.35,-1.2000000000000002,-1.3511111111111114,0,0,0,0.8643446349838737,-0.0074208352385306,0.2,0.2,0.2,1.0,-1.4000000000000001,-1.4000000000000001,0.5999999999999999,0.5999999999999999,0.0,1.0,-1.0,2.0,0,0,0
6.0,0.0,6.0,0.0,3.0,0.0,3.0,0.0,,,,left,1.2113045999999486,254.4458983999998,sn16,254.4458983999998,None,250.13067169999977,252.14495439999973,True,1.0,['p'],True,0.4444444444444445,0.6666666666666666,0.3333333333333333,1.0,1.0,0.9656336071428248,0.0755387898186251,unsucc_cost,0.0,0.0,252.14495439999973,None,sn16,1,2023-03-21_11h29.14.221,threat_forest,2021.2.3,60.07312100281201,True,39.0,0.43333333333333335,0.35,-1.2000000000000002,-1.3511111111111114,1,1,1,0.19169796060622182,0.0755387898186251,1.0,0.4444444444444445,0.6666666666666666,0.6666666666666667,-1.0,-1.0,0.0,0.0,1.0,1.0,-1.0,1.0,1,1,1
7.0,0.0,7.0,0.0,0.0,0.0,0.0,0.0,261.2641282999998,264.7665158,None,left,1.8768930000001087,266.62827449999986,sn16,261.2641282999998,264.7665158,266.62827449999986,None,False,5.0,['r'],False,0.25,0.5,0.5,2.0,2.0,0.9463946303571862,-0.0268916481970431,wait_cost,1.0,4.0,,,sn16,1,2023-03-21_11h29.14.221,threat_forest,2021.2.3,60.07312100281201,False,70.0,0.41666666666666663,0.425,-1.0833333333333335,-1.1416666666666668,0,0,0,0.6296177501191184,-0.0268916481970431,0.25,0.25,0.5,0.5,-1.5,-1.5,3.5,3.5,0.0,2.0,-1.0,5.0,0,0,0
7.0,0.0,7.0,0.0,1.0,0.0,1.0,0.0,,,,left,1.6528204000001097,273.7448519999998,sn16,261.2641282999998,264.7665158,273.7448519999998,None,False,4.0,['r'],False,0.25,0.5,0.5,2.0,2.0,0.9463946303571862,0.019750775623714,wait_cost,1.0,3.0,270.54444319999993,None,sn16,1,2023-03-21_11h29.14.221,threat_forest,2021.2.3,60.07312100281201,False,70.0,0.41666666666666663,0.425,-1.0833333333333335,-1.1416666666666668,0,0,0,0.5024831619983238,0.019750775623714,0.25,0.25,0.5,0.5,-1.5,-1.5,2.5,2.5,0.0,2.0,-1.0,4.0,0,0,0
7.0,0.0,7.0,0.0,2.0,0.0,2.0,0.0,,,,right,2.45617940000011,280.27317029999995,sn16,261.2641282999998,264.7665158,280.27317029999995,None,True,3.0,['r'],False,0.25,0.5,0.5,2.0,2.0,0.9463946303571862,0.0240885416666666,unsucc_cost,1.0,1.0,277.4379334,None,sn16,1,2023-03-21_11h29.14.221,threat_forest,2021.2.3,60.07312100281201,True,70.0,0.41666666666666663,0.425,-1.0833333333333335,-1.1416666666666668,0,0,1,0.8986070532198466,0.0240885416666666,0.25,0.25,0.5,0.5,-1.5,-1.5,1.5,1.5,0.0,2.0,-1.0,3.0,0,0,0
7.0,0.0,7.0,0.0,3.0,0.0,3.0,0.0,,,,right,2.271968300000026,285.44973329999993,sn16,261.2641282999998,264.7665158,285.44973329999993,None,True,1.0,['r'],False,0.25,0.5,0.5,2.0,2.0,0.9463946303571862,0.1063368055555555,succ_gain,1.0,3.0,284.7645518999998,None,sn16,1,2023-03-21_11h29.14.221,threat_forest,2021.2.3,60.07312100281201,True,70.0,0.41666666666666663,0.425,-1.0833333333333335,-1.1416666666666668,0,0,1,0.8206465482967911,0.1063368055555555,1.0,0.25,0.5,0.5,-1.5,-1.5,-0.5,0.0,0.0,2.0,-1.0,1.0,1,0,0
7.0,0.0,7.0,0.0,4.0,0.0,4.0,0.0,,,,right,2.1821383000001333,290.6466105999998,sn16,261.2641282999998,264.7665158,290.6466105999998,None,True,3.0,['r'],False,0.25,0.5,0.5,2.0,2.0,0.9463946303571862,0.0104166666666666,unsucc_cost,1.0,1.0,289.75991909999993,None,sn16,1,2023-03-21_11h29.14.221,threat_forest,2021.2.3,60.07312100281201,True,70.0,0.41666666666666663,0.425,-1.0833333333333335,-1.1416666666666668,0,0,1,0.7803052676205208,0.0104166666666666,0.25,0.25,0.5,0.5,-1.5,-1.5,1.5,1.5,0.0,2.0,1.0,3.0,0,0,0
7.0,0.0,7.0,0.0,5.0,0.0,5.0,0.0,,,,left,2.188769500000035,295.7277055,sn16,295.7277055,None,292.85732770000004,294.8713735000001,True,1.0,['r'],True,0.3333333333333333,0.3333333333333333,0.0,0.0,2.0,0.5793801642856949,0.3333333333333332,unsucc_cost,0.0,0.0,294.8713735000001,None,sn16,1,2023-03-21_11h29.14.221,threat_forest,2021.2.3,60.07312100281201,True,70.0,0.41666666666666663,0.425,-1.0833333333333335,-1.1416666666666668,1,0,1,0.7833395137729997,0.3333333333333332,1.0,0.3333333333333333,0.3333333333333333,1.0,-0.6666666666666669,-0.6666666666666669,0.33333333333333315,0.33333333333333315,1.0,2.0,-1.0,1.0,1,0,1
8.0,0.0,8.0,0.0,0.0,0.0,0.0,0.0,303.1499889000001,306.64316069999995,None,left,1.0029500999999073,309.97049479999987,sn16,309.97049479999987,None,303.1499889000001,306.64316069999995,True,5.0,['p'],True,0.2777777777777778,0.3333333333333333,0.1666666666666666,1.0,2.0,0.8929352898779304,0.0153029375123799,succ_gain,0.0,6.0,,,sn16,1,2023-03-21_11h29.14.221,threat_forest,2021.2.3,60.07312100281201,True,54.0,0.2777777777777778,0.3472222222222222,-1.1882716049382718,-1.1358024691358026,1,0,1,0.0029457569943397745,0.0153029375123799,0.2777777777777778,0.2777777777777778,0.3333333333333333,0.8333333333333334,-1.1666666666666665,-1.0555555555555556,3.9444444444444446,3.9444444444444446,1.0,2.0,-1.0,5.0,0,0,1
8.0,0.0,8.0,0.0,1.0,0.0,1.0,0.0,,,,left,1.372891499999696,314.6228658,sn16,310.9905085999999,313.00499549999995,314.6228658,None,False,6.0,['p'],False,0.1975308641975308,0.2222222222222222,0.1111111111111111,1.0,2.0,0.7461067557824965,-0.0870428740192486,wait_cost,1.0,5.0,313.00499549999995,None,sn16,1,2023-03-21_11h29.14.221,threat_forest,2021.2.3,60.07312100281201,False,54.0,0.2777777777777778,0.3472222222222222,-1.1882716049382718,-1.1358024691358026,0,0,0,0.316919099628089,-0.0870428740192486,0.1975308641975308,0.1975308641975308,0.2222222222222222,0.8888888888888888,-1.4444444444444444,-1.3209876543209877,4.679012345679013,4.679012345679013,0.0,2.0,1.0,6.0,0,0,0
8.0,0.0,8.0,0.0,2.0,0.0,2.0,0.0,,,,left,1.769204400000035,319.6432414000001,sn16,319.6432414000001,None,316.02849609999976,318.0337282999999,True,5.0,['p'],True,0.2777777777777778,0.3333333333333333,0.1666666666666666,1.0,2.0,0.8929352898779304,0.0481283927074388,figh_cost,0.0,2.0,318.0337282999999,None,sn16,1,2023-03-21_11h29.14.221,threat_forest,2021.2.3,60.07312100281201,True,54.0,0.2777777777777778,0.3472222222222222,-1.1882716049382718,-1.1358024691358026,1,0,1,0.5705299540087359,0.0481283927074388,0.2777777777777778,0.2777777777777778,0.3333333333333333,0.8333333333333334,-1.1666666666666665,-1.0555555555555556,3.9444444444444446,3.9444444444444446,1.0,2.0,-1.0,5.0,0,0,1
8.0,0.0,8.0,0.0,3.0,0.0,3.0,0.0,,,,left,2.0000731999998607,324.5141159,sn16,324.5141159,None,316.02849609999976,318.0337282999999,True,2.0,['p'],True,0.2777777777777778,0.3333333333333333,0.1666666666666666,1.0,2.0,0.8929352898779304,0.0281235946229213,unsucc_cost,0.0,0.0,323.4452117000001,None,sn16,1,2023-03-21_11h29.14.221,threat_forest,2021.2.3,60.07312100281201,True,54.0,0.2777777777777778,0.3472222222222222,-1.1882716049382718,-1.1358024691358026,1,0,1,0.693183779890112,0.0281235946229213,0.2777777777777778,0.2777777777777778,0.3333333333333333,0.8333333333333334,-1.1666666666666665,-1.0555555555555556,0.9444444444444444,0.9444444444444444,1.0,2.0,-1.0,2.0,0,0,1
9.0,0.0,9.0,0.0,0.0,0.0,0.0,0.0,330.1552177999997,333.66985410000007,None,left,1.0316533999998685,337.14340360000006,sn16,337.14340360000006,None,330.1552177999997,333.66985410000007,True,5.0,['p'],True,0.21875,0.25,0.125,1.0,1.0,0.7908280489481783,-0.003347083026002,unsucc_cost,0.0,3.0,,,sn16,1,2023-03-21_11h29.14.221,threat_forest,2021.2.3,60.07312100281201,True,61.0,0.325,0.30138888888888893,-1.354375,-1.271323302469136,0,0,1,0.031162757934911835,-0.003347083026002,0.21875,0.21875,0.25,0.875,-1.625,-1.46875,3.53125,3.53125,1.0,1.0,-1.0,5.0,0,0,0
9.0,0.0,9.0,0.0,1.0,0.0,1.0,0.0,,,,right,1.3501380000002428,342.9644877999999,sn16,342.9644877999999,None,330.1552177999997,333.66985410000007,False,3.0,['p'],True,0.21875,0.25,0.125,1.0,1.0,0.7908280489481783,0.0119374428081254,wait_cost,0.0,2.0,340.2129761000001,None,sn16,1,2023-03-21_11h29.14.221,threat_forest,2021.2.3,60.07312100281201,False,61.0,0.325,0.30138888888888893,-1.354375,-1.271323302469136,0,0,0,0.3002068094484048,0.0119374428081254,0.21875,0.21875,0.25,0.875,-1.625,-1.46875,1.53125,1.53125,1.0,1.0,-1.0,3.0,0,0,0
9.0,0.0,9.0,0.0,2.0,0.0,2.0,0.0,,,,right,0.9799859999998262,348.51176209999994,sn16,344.3428690999999,346.35712239999975,348.51176209999994,None,True,2.0,['p'],False,0.32,0.4,0.2,1.0,1.0,0.9455672104350704,0.0225587820034484,succ_gain,1.0,3.0,346.3571223999997,None,sn16,1,2023-03-21_11h29.14.221,threat_forest,2021.2.3,60.07312100281201,True,61.0,0.325,0.30138888888888893,-1.354375,-1.271323302469136,1,1,1,-0.02021699313402434,0.0225587820034484,0.32,0.32,0.4,0.8,-1.4,-1.24,0.76,0.76,0.0,1.0,-1.0,2.0,0,1,1
9.0,0.0,9.0,0.0,3.0,0.0,3.0,0.0,,,,right,1.040865599999961,354.88482620000013,sn16,344.3428690999999,346.35712239999975,354.88482620000013,None,True,3.0,['p'],False,0.32,0.4,0.2,1.0,1.0,0.9455672104350704,0.0682738046386717,unsucc_cost,1.0,1.0,351.535758,None,sn16,1,2023-03-21_11h29.14.221,threat_forest,2021.2.3,60.07312100281201,True,61.0,0.325,0.30138888888888893,-1.354375,-1.271323302469136,1,1,1,0.04005267466957413,0.0682738046386717,0.32,0.32,0.4,0.8,-1.4,-1.24,1.76,1.76,0.0,1.0,1.0,3.0,0,1,1
9.0,0.0,9.0,0.0,4.0,0.0,4.0,0.0,,,,right,1.424115399999664,360.1774415,sn16,344.3428690999999,346.35712239999975,360.1774415,None,True,1.0,['p'],False,0.32,0.4,0.2,1.0,1.0,0.9455672104350704,0.0943,figh_cost,1.0,0.0,357.96296859999984,None,sn16,1,2023-03-21_11h29.14.221,threat_forest,2021.2.3,60.07312100281201,True,61.0,0.325,0.30138888888888893,-1.354375,-1.271323302469136,1,1,1,0.35355084903188205,0.0943,1.0,0.32,0.4,0.8,-1.4,-1.24,-0.24,0.0,0.0,1.0,-1.0,1.0,1,1,1
10.0,0.0,10.0,0.0,0.0,0.0,0.0,0.0,367.0926110999999,370.5894438,None,right,1.945383700000093,372.3396416999999,sn16,372.3396416999999,None,367.0926110999999,370.5894438,False,5.0,['p'],True,0.3950617283950617,0.4444444444444444,0.1111111111111111,1.0,2.0,0.8733423231021583,-0.0076247432762748,wait_cost,0.0,4.0,,,sn16,1,2023-03-21_11h29.14.221,threat_forest,2021.2.3,60.07312100281201,False,51.0,0.5555555555555556,0.44027777777777777,-0.2376543209876542,-0.7960146604938272,1,0,0,0.6654592326785581,-0.0076247432762748,0.3950617283950617,0.3950617283950617,0.4444444444444444,0.8888888888888888,-0.5555555555555556,-0.5308641975308641,4.469135802469136,4.469135802469136,1.0,2.0,-1.0,5.0,0,0,1
10.0,0.0,10.0,0.0,1.0,0.0,1.0,0.0,,,,right,1.2969272000000274,378.38472550000006,sn16,374.3143759999998,376.32921369999985,378.38472550000006,None,True,4.0,['p'],False,0.5555555555555556,0.6666666666666666,0.1666666666666666,1.0,2.0,0.8929352898779306,0.1084332506120598,figh_cost,1.0,1.0,376.3292136999999,None,sn16,1,2023-03-21_11h29.14.221,threat_forest,2021.2.3,60.07312100281201,True,51.0,0.5555555555555556,0.44027777777777777,-0.2376543209876542,-0.7960146604938272,1,1,1,0.2599977742293231,0.1084332506120598,0.5555555555555556,0.5555555555555556,0.6666666666666666,0.8333333333333334,0.16666666666666674,0.05555555555555569,4.055555555555555,4.055555555555555,0.0,2.0,-1.0,4.0,0,1,1
10.0,0.0,10.0,0.0,2.0,0.0,2.0,0.0,,,,left,0.8037632000000485,385.4817266,sn16,385.4817266,None,379.7095949,381.7243484999999,True,1.0,['p'],True,0.3950617283950617,0.4444444444444444,0.1111111111111111,1.0,2.0,0.8733423231021583,0.2354943065205023,unsucc_cost,0.0,0.0,381.7243484999999,None,sn16,1,2023-03-21_11h29.14.221,threat_forest,2021.2.3,60.07312100281201,True,51.0,0.5555555555555556,0.44027777777777777,-0.2376543209876542,-0.7960146604938272,1,0,1,-0.2184505805479965,0.2354943065205023,1.0,0.3950617283950617,0.4444444444444444,0.8888888888888888,-0.5555555555555556,-0.5308641975308641,0.4691358024691359,0.4691358024691359,1.0,2.0,-1.0,1.0,1,0,1
11.0,0.0,11.0,0.0,0.0,0.0,0.0,0.0,391.66286230000014,395.1641543999999,None,left,1.2798044999999547,396.6582693,sn16,396.6582693,None,391.66286230000014,395.1641543999999,True,4.0,['r'],True,0.4081632653061224,0.5714285714285714,0.2857142857142857,2.0,2.0,0.9885754083994552,0.0102904310319958,unsucc_cost,0.0,2.0,,,sn16,1,2023-03-21_11h29.14.221,threat_forest,2021.2.3,60.07312100281201,True,14.0,0.5357142857142857,0.5456349206349207,-0.326530612244898,-0.28209246661627607,0,0,1,0.24670733189140798,0.0102904310319958,0.4081632653061224,0.4081632653061224,0.5714285714285714,0.7142857142857143,-0.5714285714285715,-0.653061224489796,3.3469387755102042,3.3469387755102042,1.0,2.0,-1.0,4.0,0,0,0
11.0,0.0,11.0,0.0,1.0,0.0,1.0,0.0,,,,right,0.523011399999632,401.7637547,sn16,397.959539,400.02045670000007,401.7637547,None,True,2.0,['r'],False,0.5,0.5,0.0,0.0,2.0,0.6309297535714574,0.0536521501003592,unsucc_cost,1.0,0.0,400.02045670000007,None,sn16,1,2023-03-21_11h29.14.221,threat_forest,2021.2.3,60.07312100281201,True,14.0,0.5357142857142857,0.5456349206349207,-0.326530612244898,-0.28209246661627607,1,0,1,-0.6481520178323402,0.0536521501003592,0.5,0.5,0.5,1.0,0.0,0.0,2.0,2.0,0.0,2.0,-1.0,2.0,0,0,1
12.0,0.0,12.0,0.0,0.0,0.0,0.0,0.0,407.0018799999998,410.5081359999999,None,left,1.555081599999994,412.8564956,sn16,407.0018799999998,410.5081359999999,412.8564956,None,False,4.0,['p'],False,0.24,0.3,0.2,2.0,2.0,0.9003120349047065,0.0048924551776182,wait_cost,1.0,3.0,,,sn16,1,2023-03-21_11h29.14.221,threat_forest,2021.2.3,60.07312100281201,False,15.0,0.4833333333333333,0.5095238095238095,-0.8977777777777778,-0.6121541950113378,0,0,0,0.44152802013862696,0.0048924551776182,0.24,0.24,0.3,0.8,-1.4,-1.24,2.76,2.76,0.0,2.0,-1.0,4.0,0,0,0
12.0,0.0,12.0,0.0,1.0,0.0,1.0,0.0,,,,left,1.0882004000000052,418.5507373999999,sn16,418.5507373999999,None,414.4437493999999,416.44249869999976,True,3.0,['p'],True,0.4444444444444445,0.6666666666666666,0.3333333333333333,1.0,2.0,0.9656336071428248,0.0878193674113966,succ_gain,0.0,5.0,416.44249869999976,None,sn16,1,2023-03-21_11h29.14.221,threat_forest,2021.2.3,60.07312100281201,True,15.0,0.4833333333333333,0.5095238095238095,-0.8977777777777778,-0.6121541950113378,1,0,1,0.08452532264911418,0.0878193674113966,0.4444444444444445,0.4444444444444445,0.6666666666666666,0.6666666666666667,-0.3333333333333335,-0.5555555555555556,2.4444444444444446,2.4444444444444446,1.0,2.0,-1.0,3.0,0,0,1
12.0,0.0,12.0,0.0,2.0,0.0,2.0,0.0,,,,left,1.1134422000000086,422.3859718999997,sn16,419.6559001999999,421.6704058999999,422.3859718999997,None,False,5.0,['p'],False,0.24,0.3,0.2,2.0,2.0,0.9003120349047065,-0.012394675250724,wait_cost,1.0,4.0,421.6704058999999,None,sn16,1,2023-03-21_11h29.14.221,threat_forest,2021.2.3,60.07312100281201,False,15.0,0.4833333333333333,0.5095238095238095,-0.8977777777777778,-0.6121541950113378,0,0,0,0.10745629797105896,-0.012394675250724,0.24,0.24,0.3,0.8,-1.4,-1.24,3.76,3.76,0.0,2.0,1.0,5.0,0,0,0
12.0,0.0,12.0,0.0,3.0,0.0,3.0,0.0,,,,left,1.5549294000002192,429.27195870000014,sn16,419.6559001999999,421.6704058999999,429.27195870000014,None,False,4.0,['p'],False,0.24,0.3,0.2,2.0,2.0,0.9003120349047065,0.0167818183813442,wait_cost,1.0,3.0,425.5338501000001,None,sn16,1,2023-03-21_11h29.14.221,threat_forest,2021.2.3,60.07312100281201,False,15.0,0.4833333333333333,0.5095238095238095,-0.8977777777777778,-0.6121541950113378,0,0,0,0.4414301426713792,0.0167818183813442,0.24,0.24,0.3,0.8,-1.4,-1.24,2.76,2.76,0.0,2.0,-1.0,4.0,0,0,0
12.0,0.0,12.0,0.0,4.0,0.0,4.0,0.0,,,,left,1.6110990000001948,434.58355930000016,sn16,419.6559001999999,421.6704058999999,434.58355930000016,None,False,3.0,['p'],False,0.24,0.3,0.2,2.0,2.0,0.9003120349047065,0.0383111111111111,wait_cost,1.0,2.0,432.8600118999998,None,sn16,1,2023-03-21_11h29.14.221,threat_forest,2021.2.3,60.07312100281201,False,15.0,0.4833333333333333,0.5095238095238095,-0.8977777777777778,-0.6121541950113378,0,0,0,0.4769165548207963,0.0383111111111111,0.24,0.24,0.3,0.8,-1.4,-1.24,1.76,1.76,0.0,2.0,-1.0,3.0,0,0,0
12.0,0.0,12.0,0.0,5.0,0.0,5.0,0.0,,,,right,1.64980659999992,441.3112981999998,sn16,419.6559001999999,421.6704058999999,441.3112981999998,None,True,2.0,['p'],False,0.24,0.3,0.2,2.0,2.0,0.9003120349047065,-0.1022222222222222,figh_cost,1.0,0.0,438.23814390000007,None,sn16,1,2023-03-21_11h29.14.221,threat_forest,2021.2.3,60.07312100281201,True,15.0,0.4833333333333333,0.5095238095238095,-0.8977777777777778,-0.6121541950113378,0,0,1,0.5006580689213511,-0.1022222222222222,0.24,0.24,0.3,0.8,-1.4,-1.24,0.76,0.76,0.0,2.0,-1.0,2.0,0,0,0
13.0,0.0,13.0,0.0,0.0,0.0,0.0,0.0,446.3994177,449.90854089999993,None,right,1.3348368999995728,452.6191840000001,sn16,446.3994177,449.90854089999993,452.6191840000001,None,True,5.0,['r'],False,0.2857142857142857,0.2857142857142857,0.0,0.0,2.0,0.5445684476282007,0.0313986794861317,unsucc_cost,1.0,3.0,,,sn16,1,2023-03-21_11h29.14.221,threat_forest,2021.2.3,60.07312100281201,True,55.0,0.2928571428571428,0.38809523809523805,-1.0485714285714285,-0.9731746031746031,1,0,1,0.2888091121036071,0.0313986794861317,0.2857142857142857,0.2857142857142857,0.2857142857142857,1.0,-0.8571428571428572,-0.8571428571428572,4.142857142857142,4.142857142857142,0.0,2.0,-1.0,5.0,0,0,1
13.0,0.0,13.0,0.0,1.0,0.0,1.0,0.0,,,,right,1.3507779999999912,458.9523172999998,sn16,446.3994177,449.90854089999993,458.9523172999998,None,True,3.0,['r'],False,0.2857142857142857,0.2857142857142857,0.0,0.0,2.0,0.5445684476282007,0.0813189773311461,unsucc_cost,1.0,1.0,455.988343,None,sn16,1,2023-03-21_11h29.14.221,threat_forest,2021.2.3,60.07312100281201,True,55.0,0.2928571428571428,0.38809523809523805,-1.0485714285714285,-0.9731746031746031,1,0,1,0.30068072275168906,0.0813189773311461,0.2857142857142857,0.2857142857142857,0.2857142857142857,1.0,-0.8571428571428572,-0.8571428571428572,2.142857142857143,2.142857142857143,0.0,2.0,-1.0,3.0,0,0,1
13.0,0.0,13.0,0.0,2.0,0.0,2.0,0.0,,,,left,2.1641500000000637,463.1618207000001,sn16,463.1618207000001,None,460.3346286000001,462.34863559999985,True,1.0,['r'],True,0.24,0.3,0.2,2.0,2.0,0.9003120349047065,0.0803828504416493,unsucc_cost,0.0,0.0,462.3486355999999,None,sn16,1,2023-03-21_11h29.14.221,threat_forest,2021.2.3,60.07312100281201,True,55.0,0.2928571428571428,0.38809523809523805,-1.0485714285714285,-0.9731746031746031,0,0,1,0.7720276746633469,0.0803828504416493,1.0,0.24,0.3,0.8,-1.4,-1.24,-0.24,0.0,1.0,2.0,-1.0,1.0,1,0,0
14.0,0.0,14.0,0.0,0.0,0.0,0.0,0.0,470.1626513000001,473.6660456999998,None,left,1.885772800000268,476.6274239,sn16,476.6274239,None,470.1626513000001,473.6660456999998,True,4.0,['p'],True,0.25,0.5,0.5,1.0,1.0,0.9463946303571862,0.0069096320109571,figh_cost,0.0,1.0,,,sn16,1,2023-03-21_11h29.14.221,threat_forest,2021.2.3,60.07312100281201,True,71.0,0.35,0.3214285714285714,-1.7350000000000003,-1.3917857142857144,0,0,1,0.6343377103587544,0.0069096320109571,0.25,0.25,0.5,0.5,-2.0,-1.75,2.25,2.25,1.0,1.0,-1.0,4.0,0,0,0
14.0,0.0,14.0,0.0,1.0,0.0,1.0,0.0,,,,left,1.0961228999999548,483.9964721000001,sn16,483.9964721000001,None,470.1626513000001,473.6660456999998,True,1.0,['p'],True,0.25,0.5,0.5,1.0,1.0,0.9463946303571862,0.0044525290507813,succ_gain,0.0,2.0,480.54856299999983,None,sn16,1,2023-03-21_11h29.14.221,threat_forest,2021.2.3,60.07312100281201,True,71.0,0.35,0.3214285714285714,-1.7350000000000003,-1.3917857142857144,0,0,1,0.09177931727561568,0.0044525290507813,1.0,0.25,0.5,0.5,-2.0,-1.75,-0.75,0.0,1.0,1.0,-1.0,1.0,1,0,0
14.0,0.0,14.0,0.0,2.0,0.0,2.0,0.0,,,,left,2.9645832000001064,490.6910312,sn16,485.1115037,487.12565989999985,490.6910312,None,False,2.0,['p'],False,0.16,0.2,0.2,2.0,1.0,0.8198746470064713,0.0014517228749999,wait_cost,1.0,1.0,487.1256598999999,None,sn16,1,2023-03-21_11h29.14.221,threat_forest,2021.2.3,60.07312100281201,False,71.0,0.35,0.3214285714285714,-1.7350000000000003,-1.3917857142857144,0,0,0,1.0867364492125466,0.0014517228749999,0.16,0.16,0.2,0.8,-2.0,-1.7200000000000004,0.2799999999999996,0.2799999999999996,0.0,1.0,1.0,2.0,0,0,0
14.0,0.0,14.0,0.0,3.0,0.0,3.0,0.0,,,,left,1.0091081999999003,498.93694049999976,sn16,498.93694049999976,None,493.6883454999997,495.7011579,True,1.0,['p'],True,0.25,0.5,0.5,1.0,1.0,0.9463946303571862,0.0151815312499999,figh_cost,0.0,0.0,495.7011579,None,sn16,1,2023-03-21_11h29.14.221,threat_forest,2021.2.3,60.07312100281201,True,71.0,0.35,0.3214285714285714,-1.7350000000000003,-1.3917857142857144,0,0,1,0.009066970508149504,0.0151815312499999,1.0,0.25,0.5,0.5,-2.0,-1.75,-0.75,0.0,1.0,1.0,-1.0,1.0,1,0,0
15.0,0.0,15.0,0.0,0.0,0.0,0.0,0.0,503.00567169999977,506.5077851000001,None,left,1.3066278000001148,510.2152535999999,sn16,503.00567169999977,506.5077851000001,510.2152535999999,None,False,5.0,['r'],False,0.2222222222222222,0.6666666666666666,0.6666666666666666,2.0,2.0,0.77250688571426,-0.0387270176745866,wait_cost,1.0,4.0,,,sn16,1,2023-03-21_11h29.14.221,threat_forest,2021.2.3,60.07312100281201,False,68.0,0.5,0.425,-1.2222222222222223,-1.4786111111111113,0,0,0,0.2674496197940019,-0.0387270176745866,0.2222222222222222,0.2222222222222222,0.6666666666666666,0.33333333333333337,-1.3333333333333335,-1.777777777777778,3.2222222222222223,3.2222222222222223,0.0,2.0,-1.0,5.0,0,0,0
15.0,0.0,15.0,0.0,1.0,0.0,1.0,0.0,,,,left,1.073035600000367,515.5771611,sn16,515.5771611,None,511.5534502999999,513.5679077999998,True,4.0,['r'],True,0.3333333333333333,0.3333333333333333,0.0,0.0,2.0,0.5793801642856949,0.0916280864197529,unsucc_cost,0.0,2.0,513.5679077999998,None,sn16,1,2023-03-21_11h29.14.221,threat_forest,2021.2.3,60.07312100281201,True,68.0,0.5,0.425,-1.2222222222222223,-1.4786111111111113,1,0,1,0.07049164110411729,0.0916280864197529,0.3333333333333333,0.3333333333333333,0.3333333333333333,1.0,-0.6666666666666669,-0.6666666666666669,3.333333333333333,3.333333333333333,1.0,2.0,-1.0,4.0,0,0,1
15.0,0.0,15.0,0.0,2.0,0.0,2.0,0.0,,,,left,1.1416921000000002,521.5440654999998,sn16,521.5440654999998,None,511.5534502999999,513.5679077999998,True,2.0,['r'],True,0.3333333333333333,0.3333333333333333,0.0,0.0,2.0,0.5793801642856949,0.0437242798353909,unsucc_cost,0.0,0.0,518.6965568999999,None,sn16,1,2023-03-21_11h29.14.221,threat_forest,2021.2.3,60.07312100281201,True,68.0,0.5,0.425,-1.2222222222222223,-1.4786111111111113,1,0,1,0.1325114601702049,0.0437242798353909,0.3333333333333333,0.3333333333333333,0.3333333333333333,1.0,-0.6666666666666669,-0.6666666666666669,1.333333333333333,1.333333333333333,1.0,2.0,-1.0,2.0,0,0,1
16.0,0.0,16.0,0.0,0.0,0.0,0.0,0.0,528.4194812999999,531.9215576000001,None,right,0.8875976999997874,534.5908257000001,sn16,528.4194812999999,531.9215576000001,534.5908257000001,None,True,4.0,['p'],False,0.4444444444444445,0.6666666666666666,0.3333333333333333,1.0,2.0,0.9656336071428248,0.0822356493687493,figh_cost,1.0,1.0,,,sn16,1,2023-03-21_11h29.14.221,threat_forest,2021.2.3,60.07312100281201,True,21.0,0.47619047619047616,0.4880952380952381,-1.012471655328798,-1.1173469387755102,1,0,1,-0.11923667918461811,0.0822356493687493,0.4444444444444445,0.4444444444444445,0.6666666666666666,0.6666666666666667,-0.3333333333333335,-0.5555555555555556,3.4444444444444446,3.4444444444444446,0.0,2.0,-1.0,4.0,0,0,1
16.0,0.0,16.0,0.0,1.0,0.0,1.0,0.0,,,,left,1.7483468000000355,538.5230560999998,sn16,538.5230560999998,None,535.4976530999998,537.5121472000001,True,1.0,['p'],True,0.2040816326530612,0.2857142857142857,0.2857142857142857,2.0,2.0,0.9335459102197724,0.0518803872354329,succ_gain,0.0,3.0,537.5121472000001,None,sn16,1,2023-03-21_11h29.14.221,threat_forest,2021.2.3,60.07312100281201,True,21.0,0.47619047619047616,0.4880952380952381,-1.012471655328798,-1.1173469387755102,0,0,1,0.5586706557243863,0.0518803872354329,1.0,0.2040816326530612,0.2857142857142857,0.7142857142857143,-1.7142857142857144,-1.4693877551020407,-0.46938775510204067,0.0,1.0,2.0,-1.0,1.0,1,0,0
16.0,0.0,16.0,0.0,2.0,0.0,2.0,0.0,,,,right,1.8247102999998788,544.3768737999999,sn16,544.3768737999999,None,535.4976530999998,537.5121472000001,False,3.0,['p'],True,0.2040816326530612,0.2857142857142857,0.2857142857142857,2.0,2.0,0.9335459102197724,0.0021800726536297,wait_cost,0.0,2.0,542.3077530999999,None,sn16,1,2023-03-21_11h29.14.221,threat_forest,2021.2.3,60.07312100281201,False,21.0,0.47619047619047616,0.4880952380952381,-1.012471655328798,-1.1173469387755102,0,0,0,0.6014212347078772,0.0021800726536297,0.2040816326530612,0.2040816326530612,0.2857142857142857,0.7142857142857143,-1.7142857142857144,-1.4693877551020407,1.5306122448979593,1.5306122448979593,1.0,2.0,1.0,3.0,0,0,0
16.0,0.0,16.0,0.0,3.0,0.0,3.0,0.0,,,,left,1.277320900000177,549.3727881999998,sn16,549.3727881999998,None,535.4976530999998,537.5121472000001,True,2.0,['p'],True,0.2040816326530612,0.2857142857142857,0.2857142857142857,2.0,2.0,0.9335459102197724,-0.0306724464080636,unsucc_cost,0.0,0.0,548.2356033000001,None,sn16,1,2023-03-21_11h29.14.221,threat_forest,2021.2.3,60.07312100281201,True,21.0,0.47619047619047616,0.4880952380952381,-1.012471655328798,-1.1173469387755102,0,0,1,0.2447648375728098,-0.0306724464080636,0.2040816326530612,0.2040816326530612,0.2857142857142857,0.7142857142857143,-1.7142857142857144,-1.4693877551020407,0.5306122448979593,0.5306122448979593,1.0,2.0,-1.0,2.0,0,0,0
17.0,0.0,17.0,0.0,0.0,0.0,0.0,0.0,553.5133013999998,557.0125564,None,left,1.0971816000001129,557.6031414999998,sn16,557.6031414999998,None,553.5133013999998,557.0125564,True,4.0,['r'],True,0.4444444444444445,0.6666666666666666,0.3333333333333333,2.0,2.0,0.9656336071428248,0.0111006869633694,figh_cost,0.0,1.0,,,sn16,1,2023-03-21_11h29.14.221,threat_forest,2021.2.3,60.07312100281201,True,47.0,0.6333333333333333,0.5547619047619048,-0.07777777777777783,-0.545124716553288,0,0,1,0.09274470998089873,0.0111006869633694,0.4444444444444445,0.4444444444444445,0.6666666666666666,0.6666666666666667,-0.3333333333333335,-0.5555555555555556,3.4444444444444446,3.4444444444444446,1.0,2.0,-1.0,4.0,0,0,0
17.0,0.0,17.0,0.0,1.0,0.0,1.0,0.0,,,,right,1.6314634999998816,564.4095403000001,sn16,558.7323157000001,560.7404068999999,564.4095403000001,None,True,1.0,['r'],False,0.6,0.6,0.0,0.0,2.0,0.6126016192893442,0.3265010699588477,unsucc_cost,1.0,0.0,560.7404068999999,None,sn16,1,2023-03-21_11h29.14.221,threat_forest,2021.2.3,60.07312100281201,True,47.0,0.6333333333333333,0.5547619047619048,-0.07777777777777783,-0.545124716553288,1,1,1,0.48947746475064713,0.3265010699588477,1.0,0.6,0.6,1.0,0.3999999999999999,0.3999999999999999,1.4,1.4,0.0,2.0,-1.0,1.0,1,1,1
0.0,0.0,0.0,0.0,0.0,0.0,0.0,0.0,20.42367379999996,23.917382499999803,None,left,1.5670979000001353,25.18556209999997,sn16,25.18556209999997,None,20.42367379999996,23.917382499999803,True,5.0,['p'],True,0.4285714285714285,0.4285714285714285,0.0,0.0,2.0,0.6216097450797565,0.0526055132283747,unsucc_cost,0.0,3.0,,,sn16,2,2023-03-21_11h40.32.059,threat_forest,2021.2.3,60.22481925017943,True,52.0,0.43650793650793646,0.5349206349206349,-0.5626102292768962,-0.320194003527337,1,0,1,0.4492254374913433,0.0526055132283747,0.4285714285714285,0.4285714285714285,0.4285714285714285,1.0,-0.28571428571428603,-0.28571428571428603,4.7142857142857135,4.7142857142857135,1.0,2.0,-1.0,5.0,0,0,1
0.0,0.0,0.0,0.0,1.0,0.0,1.0,0.0,,,,left,1.4156668999999056,29.67584129999977,sn16,26.778920299999758,28.79324510000015,29.67584129999977,None,False,3.0,['p'],False,0.345679012345679,0.4444444444444444,0.2222222222222222,2.0,2.0,0.9685033186841367,0.0688188688757238,wait_cost,1.0,2.0,28.79324510000015,None,sn16,2,2023-03-21_11h40.32.059,threat_forest,2021.2.3,60.22481925017943,False,52.0,0.43650793650793646,0.5349206349206349,-0.5626102292768962,-0.320194003527337,0,0,0,0.34760072748517157,0.0688188688757238,0.345679012345679,0.345679012345679,0.4444444444444444,0.7777777777777778,-0.888888888888889,-0.8395061728395062,2.1604938271604937,2.1604938271604937,0.0,2.0,-1.0,3.0,0,0,0
0.0,0.0,0.0,0.0,2.0,0.0,2.0,0.0,,,,left,1.4073699000000488,35.020348699999886,sn16,35.020348699999886,None,31.11072319999994,33.12252390000003,True,2.0,['p'],True,0.4285714285714285,0.4285714285714285,0.0,0.0,2.0,0.6216097450797565,0.0412935399694925,unsucc_cost,0.0,0.0,33.12252390000003,None,sn16,2,2023-03-21_11h40.32.059,threat_forest,2021.2.3,60.22481925017943,True,52.0,0.43650793650793646,0.5349206349206349,-0.5626102292768962,-0.320194003527337,1,0,1,0.34172264336697383,0.0412935399694925,0.4285714285714285,0.4285714285714285,0.4285714285714285,1.0,-0.28571428571428603,-0.28571428571428603,1.714285714285714,1.714285714285714,1.0,2.0,-1.0,2.0,0,0,1
1.0,0.0,1.0,0.0,0.0,0.0,0.0,0.0,40.61572549999983,44.12900390000004,None,right,0.9417981999999938,47.6693593,sn16,47.6693593,None,40.61572549999983,44.12900390000004,False,4.0,['p'],True,0.36,0.6,0.4,2.0,2.0,0.9801625908629508,-0.0020350304999999,wait_cost,0.0,3.0,,,sn16,2,2023-03-21_11h40.32.059,threat_forest,2021.2.3,60.22481925017943,False,67.0,0.55,0.4932539682539683,-0.4800000000000001,-0.5213051146384482,0,0,0,-0.059964252408323426,-0.0020350304999999,0.36,0.36,0.6,0.6,-0.8000000000000003,-0.9600000000000002,3.04,3.04,1.0,2.0,-1.0,4.0,0,0,0
1.0,0.0,1.0,0.0,1.0,0.0,1.0,0.0,,,,right,1.0178359000001365,52.67535199999975,sn16,48.64130160000013,50.65624539999999,52.67535199999975,None,True,3.0,['p'],False,0.5,0.5,0.0,0.0,2.0,0.6309297535714574,0.1837645000000001,succ_gain,1.0,5.0,50.65624539999999,None,sn16,2,2023-03-21_11h40.32.059,threat_forest,2021.2.3,60.22481925017943,True,67.0,0.55,0.4932539682539683,-0.4800000000000001,-0.5213051146384482,1,1,1,0.01767870670631125,0.1837645000000001,0.5,0.5,0.5,1.0,0.0,0.0,3.0,3.0,0.0,2.0,-1.0,3.0,0,1,1
1.0,0.0,1.0,0.0,2.0,0.0,2.0,0.0,,,,right,1.739398700000038,57.2002966,sn16,48.64130160000013,50.65624539999999,57.2002966,None,True,5.0,['p'],False,0.5,0.5,0.0,0.0,2.0,0.6309297535714574,0.1117124999999999,succ_gain,1.0,6.0,55.73475849999977,None,sn16,2,2023-03-21_11h40.32.059,threat_forest,2021.2.3,60.22481925017943,True,67.0,0.55,0.4932539682539683,-0.4800000000000001,-0.5213051146384482,1,1,1,0.5535394787891148,0.1117124999999999,0.5,0.5,0.5,1.0,0.0,0.0,5.0,5.0,0.0,2.0,1.0,5.0,0,1,1
1.0,0.0,1.0,0.0,3.0,0.0,3.0,0.0,,,,right,0.8965310000003228,61.69429790000004,sn16,61.69429790000004,None,58.96540219999997,60.98002489999999,False,6.0,['p'],True,0.36,0.6,0.4,2.0,2.0,0.9801625908629508,-0.238868,wait_cost,0.0,5.0,60.98002489999999,None,sn16,2,2023-03-21_11h40.32.059,threat_forest,2021.2.3,60.22481925017943,False,67.0,0.55,0.4932539682539683,-0.4800000000000001,-0.5213051146384482,0,0,0,-0.10922240761641192,-0.238868,0.0,0.36,0.6,0.6,-0.8000000000000003,-0.9600000000000002,5.04,5.04,1.0,2.0,1.0,6.0,0,0,0
1.0,0.0,1.0,0.0,4.0,0.0,4.0,0.0,,,,right,0.9648879000001216,66.69754409999996,sn16,66.69754409999996,None,58.96540219999997,60.98002489999999,False,5.0,['p'],True,0.36,0.6,0.4,2.0,2.0,0.9801625908629508,-0.3124,wait_cost,0.0,4.0,64.62618399999974,None,sn16,2,2023-03-21_11h40.32.059,threat_forest,2021.2.3,60.22481925017943,False,67.0,0.55,0.4932539682539683,-0.4800000000000001,-0.5213051146384482,0,0,0,-0.0357433501939034,-0.3124,0.0,0.36,0.6,0.6,-0.8000000000000003,-0.9600000000000002,4.04,4.04,1.0,2.0,-1.0,5.0,0,0,0
1.0,0.0,1.0,0.0,5.0,0.0,5.0,0.0,,,,right,1.2189774999997098,71.89503579999973,sn16,71.89503579999973,None,58.96540219999997,60.98002489999999,False,4.0,['p'],True,0.36,0.6,0.4,2.0,2.0,0.9801625908629508,-0.3564,wait_cost,0.0,3.0,69.70502390000001,None,sn16,2,2023-03-21_11h40.32.059,threat_forest,2021.2.3,60.22481925017943,False,67.0,0.55,0.4932539682539683,-0.4800000000000001,-0.5213051146384482,0,0,0,0.19801239257629408,-0.3564,0.0,0.36,0.6,0.6,-0.8000000000000003,-0.9600000000000002,3.04,3.04,1.0,2.0,-1.0,4.0,0,0,0
1.0,0.0,1.0,0.0,6.0,0.0,6.0,0.0,,,,left,0.9856952999998612,77.20510719999993,sn16,73.13554489999979,75.14998979999973,77.20510719999993,None,False,3.0,['p'],False,0.5,0.5,0.0,0.0,2.0,0.6309297535714574,-0.285,wait_cost,1.0,2.0,75.14998979999973,None,sn16,2,2023-03-21_11h40.32.059,threat_forest,2021.2.3,60.22481925017943,False,67.0,0.55,0.4932539682539683,-0.4800000000000001,-0.5213051146384482,1,1,0,-0.014407998507298606,-0.285,0.0,0.5,0.5,1.0,0.0,0.0,3.0,3.0,0.0,2.0,-1.0,3.0,0,1,1
1.0,0.0,1.0,0.0,7.0,0.0,7.0,0.0,,,,right,0.796846799999912,83.88313609999977,sn16,83.88313609999977,None,78.21400630000016,80.22861079999984,False,2.0,['p'],True,0.36,0.6,0.4,2.0,2.0,0.9801625908629508,-0.64,wait_cost,0.0,1.0,80.22861079999984,None,sn16,2,2023-03-21_11h40.32.059,threat_forest,2021.2.3,60.22481925017943,False,67.0,0.55,0.4932539682539683,-0.4800000000000001,-0.5213051146384482,0,0,0,-0.22709283949692896,-0.64,0.0,0.36,0.6,0.6,-0.8000000000000003,-0.9600000000000002,1.0399999999999998,1.0399999999999998,1.0,2.0,-1.0,2.0,0,0,0
2.0,0.0,2.0,0.0,0.0,0.0,0.0,0.0,90.4720373,93.97420809999994,None,left,1.1211071000002448,96.99359400000004,sn16,90.4720373,93.97420809999994,96.99359400000004,None,False,4.0,['r'],False,0.16,0.2,0.2,2.0,2.0,0.8198746470064713,0.0025632255999997,wait_cost,1.0,3.0,,,sn16,2,2023-03-21_11h40.32.059,threat_forest,2021.2.3,60.22481925017943,False,65.0,0.30000000000000004,0.42500000000000004,-1.5000000000000002,-0.9900000000000002,0,0,0,0.11431667922331445,0.0025632255999997,0.16,0.16,0.2,0.8,-1.8000000000000003,-1.5600000000000003,2.4399999999999995,2.4399999999999995,0.0,2.0,-1.0,4.0,0,0,0
2.0,0.0,2.0,0.0,1.0,0.0,1.0,0.0,,,,left,1.5551464999998643,101.38276339999992,sn16,90.4720373,93.97420809999994,101.38276339999992,None,False,3.0,['r'],False,0.16,0.2,0.2,2.0,2.0,0.8198746470064713,0.0162975999999998,wait_cost,1.0,2.0,100.14349839999976,None,sn16,2,2023-03-21_11h40.32.059,threat_forest,2021.2.3,60.22481925017943,False,65.0,0.30000000000000004,0.42500000000000004,-1.5000000000000002,-0.9900000000000002,0,0,0,0.4415697534120674,0.0162975999999998,0.16,0.16,0.2,0.8,-1.8000000000000003,-1.5600000000000003,1.4399999999999997,1.4399999999999997,0.0,2.0,-1.0,3.0,0,0,0
2.0,0.0,2.0,0.0,2.0,0.0,2.0,0.0,,,,left,1.382798499999808,105.5446275999998,sn16,90.4720373,93.97420809999994,105.5446275999998,None,False,2.0,['r'],False,0.16,0.2,0.2,2.0,2.0,0.8198746470064713,-0.0075200000000001,wait_cost,1.0,1.0,104.97210349999978,None,sn16,2,2023-03-21_11h40.32.059,threat_forest,2021.2.3,60.22481925017943,False,65.0,0.30000000000000004,0.42500000000000004,-1.5000000000000002,-0.9900000000000002,0,0,0,0.32410934430903676,-0.0075200000000001,0.16,0.16,0.2,0.8,-1.8000000000000003,-1.5600000000000003,0.4399999999999997,0.4399999999999997,0.0,2.0,-1.0,2.0,0,0,0
2.0,0.0,2.0,0.0,3.0,0.0,3.0,0.0,,,,left,2.369145099999969,110.6437820000001,sn16,110.6437820000001,None,106.9540876000001,108.9681842,True,1.0,['r'],True,0.24,0.4,0.4,2.0,2.0,0.9801625908629508,0.072,succ_gain,0.0,3.0,108.9681842,None,sn16,2,2023-03-21_11h40.32.059,threat_forest,2021.2.3,60.22481925017943,True,65.0,0.30000000000000004,0.42500000000000004,-1.5000000000000002,-0.9900000000000002,0,0,1,0.8625291727733141,0.072,1.0,0.24,0.4,0.6,-1.6,-1.4400000000000002,-0.44000000000000017,0.0,1.0,2.0,-1.0,1.0,1,0,0
2.0,0.0,2.0,0.0,4.0,0.0,4.0,0.0,,,,left,1.3468799000002036,116.93165510000016,sn16,116.93165510000016,None,106.9540876000001,108.9681842,True,3.0,['r'],True,0.24,0.4,0.4,2.0,2.0,0.9801625908629508,0.092,fight_cost,0.0,0.0,115.04564619999974,None,sn16,2,2023-03-21_11h40.32.059,threat_forest,2021.2.3,60.22481925017943,True,65.0,0.30000000000000004,0.42500000000000004,-1.5000000000000002,-0.9900000000000002,0,0,1,0.2977907323545531,0.092,0.24,0.24,0.4,0.6,-1.6,-1.4400000000000002,1.5599999999999998,1.5599999999999998,1.0,2.0,1.0,3.0,0,0,0
3.0,0.0,3.0,0.0,0.0,0.0,0.0,0.0,121.81383210000013,125.31977589999995,None,left,0.617247099999986,127.4774825999998,sn16,127.4774825999998,None,121.81383210000013,125.31977589999997,True,4.0,['p'],True,0.3333333333333333,0.3333333333333333,0.0,0.0,1.0,0.5793801642856949,0.0341963083625462,unsucc_cost,0.0,2.0,,,sn16,2,2023-03-21_11h40.32.059,threat_forest,2021.2.3,60.22481925017943,True,66.0,0.5,0.4,-1.5,-1.5,1,0,1,-0.482485849026312,0.0341963083625462,0.3333333333333333,0.3333333333333333,0.3333333333333333,1.0,-1.0000000000000002,-1.0000000000000002,3.0,3.0,1.0,1.0,-1.0,4.0,0,0,1
3.0,0.0,3.0,0.0,1.0,0.0,1.0,0.0,,,,left,1.0431448000003911,133.86819839999998,sn16,128.1173134999999,130.13189120000015,133.86819839999998,None,False,2.0,['p'],False,0.2222222222222222,0.6666666666666666,0.6666666666666666,2.0,1.0,0.77250688571426,-0.0003519322935188,wait_cost,1.0,1.0,130.13189120000015,None,sn16,2,2023-03-21_11h40.32.059,threat_forest,2021.2.3,60.22481925017943,False,66.0,0.5,0.4,-1.5,-1.5,0,0,0,0.04223999668019602,-0.0003519322935188,0.2222222222222222,0.2222222222222222,0.6666666666666666,0.33333333333333337,-2.0,-2.0,0.0,0.0,0.0,1.0,-1.0,2.0,0,0,0
3.0,0.0,3.0,0.0,2.0,0.0,2.0,0.0,,,,left,0.9477446999999302,137.8137618000001,sn16,137.8137618000001,None,134.92763839999998,136.9421124999999,True,1.0,['p'],True,0.3333333333333333,0.3333333333333333,0.0,0.0,1.0,0.5793801642856949,0.0334647919524462,unsucc_cost,0.0,0.0,136.9421124999999,None,sn16,2,2023-03-21_11h40.32.059,threat_forest,2021.2.3,60.22481925017943,True,66.0,0.5,0.4,-1.5,-1.5,1,0,1,-0.05367011679343665,0.0334647919524462,1.0,0.3333333333333333,0.3333333333333333,1.0,-1.0000000000000002,-1.0000000000000002,-2.220446049250313e-16,0.0,1.0,1.0,-1.0,1.0,1,0,1
4.0,0.0,4.0,0.0,0.0,0.0,0.0,0.0,143.4831509999999,146.98415680000016,None,right,1.278397600000062,148.95931419999988,sn16,148.95931419999988,None,143.4831509999999,146.98415680000016,False,5.0,['r'],True,0.2448979591836734,0.2857142857142857,0.1428571428571428,1.0,1.0,0.8400769154957735,-0.0213375421468753,wait_cost,0.0,4.0,,,sn16,2,2023-03-21_11h40.32.059,threat_forest,2021.2.3,60.22481925017943,False,13.0,0.47619047619047616,0.4880952380952381,-1.2040816326530612,-1.3520408163265305,0,0,0,0.24560741868147615,-0.0213375421468753,0.2448979591836734,0.2448979591836734,0.2857142857142857,0.8571428571428572,-1.5714285714285712,-1.4081632653061225,3.5918367346938775,3.5918367346938775,1.0,1.0,-1.0,5.0,0,0,0
4.0,0.0,4.0,0.0,1.0,0.0,1.0,0.0,,,,right,2.3814745999998195,155.21272529999987,sn16,150.2633353000001,152.27796409999974,155.21272529999987,None,True,4.0,['r'],False,0.4444444444444445,0.6666666666666666,0.3333333333333333,1.0,1.0,0.9656336071428248,0.0716196827788062,succ_gain,1.0,5.0,152.27796409999974,None,sn16,2,2023-03-21_11h40.32.059,threat_forest,2021.2.3,60.22481925017943,True,13.0,0.47619047619047616,0.4880952380952381,-1.2040816326530612,-1.3520408163265305,1,0,1,0.8677198756549007,0.0716196827788062,0.4444444444444445,0.4444444444444445,0.6666666666666666,0.6666666666666667,-1.0,-1.0,3.0,3.0,0.0,1.0,-1.0,4.0,0,0,1
4.0,0.0,4.0,0.0,2.0,0.0,2.0,0.0,,,,right,2.085990799999763,161.6878775,sn16,150.2633353000001,152.27796409999974,161.6878775,None,True,5.0,['r'],False,0.4444444444444445,0.6666666666666666,0.3333333333333333,1.0,1.0,0.9656336071428248,0.0715913181934643,succ_gain,1.0,6.0,159.63785300000018,None,sn16,2,2023-03-21_11h40.32.059,threat_forest,2021.2.3,60.22481925017943,True,13.0,0.47619047619047616,0.4880952380952381,-1.2040816326530612,-1.3520408163265305,1,0,1,0.7352439462139956,0.0715913181934643,0.4444444444444445,0.4444444444444445,0.6666666666666666,0.6666666666666667,-1.0,-1.0,4.0,4.0,0.0,1.0,1.0,5.0,0,0,1
4.0,0.0,4.0,0.0,3.0,0.0,3.0,0.0,,,,right,1.0414306000002398,168.47805500000004,sn16,168.47805500000004,None,163.8008261,165.81487329999982,False,6.0,['r'],True,0.2448979591836734,0.2857142857142857,0.1428571428571428,1.0,1.0,0.8400769154957735,-0.3613780484321008,wait_cost,0.0,5.0,165.81487329999982,None,sn16,2,2023-03-21_11h40.32.059,threat_forest,2021.2.3,60.22481925017943,False,13.0,0.47619047619047616,0.4880952380952381,-1.2040816326530612,-1.3520408163265305,0,0,0,0.04059534483738635,-0.3613780484321008,0.0,0.2448979591836734,0.2857142857142857,0.8571428571428572,-1.5714285714285712,-1.4081632653061225,4.591836734693878,4.591836734693878,1.0,1.0,1.0,6.0,0,0,0
4.0,0.0,4.0,0.0,4.0,0.0,4.0,0.0,,,,right,0.6734166000001096,173.38022790000014,sn16,173.38022790000014,None,163.8008261,165.81487329999982,False,5.0,['r'],True,0.2448979591836734,0.2857142857142857,0.1428571428571428,1.0,1.0,0.8400769154957735,-0.3996674980788742,wait_cost,0.0,4.0,171.56008710000015,None,sn16,2,2023-03-21_11h40.32.059,threat_forest,2021.2.3,60.22481925017943,False,13.0,0.47619047619047616,0.4880952380952381,-1.2040816326530612,-1.3520408163265305,0,0,0,-0.39539112153418066,-0.3996674980788742,0.0,0.2448979591836734,0.2857142857142857,0.8571428571428572,-1.5714285714285712,-1.4081632653061225,3.5918367346938775,3.5918367346938775,1.0,1.0,-1.0,5.0,0,0,0
4.0,0.0,4.0,0.0,5.0,0.0,5.0,0.0,,,,left,1.2654410999998618,178.34390040000017,sn16,174.0744565,176.08904129999974,178.34390040000017,None,False,4.0,['r'],False,0.4444444444444445,0.6666666666666666,0.3333333333333333,1.0,1.0,0.9656336071428248,-0.3529856386999244,wait_cost,1.0,3.0,176.08904129999974,None,sn16,2,2023-03-21_11h40.32.059,threat_forest,2021.2.3,60.22481925017943,False,13.0,0.47619047619047616,0.4880952380952381,-1.2040816326530612,-1.3520408163265305,1,0,0,0.2354207570513481,-0.3529856386999244,0.0,0.4444444444444445,0.6666666666666666,0.6666666666666667,-1.0,-1.0,3.0,3.0,0.0,1.0,-1.0,4.0,0,0,1
4.0,0.0,4.0,0.0,6.0,0.0,6.0,0.0,,,,right,0.7444070000001375,182.22666299999992,sn16,182.22666299999992,None,179.63600730000007,181.65072610000016,False,3.0,['r'],True,0.2448979591836734,0.2857142857142857,0.1428571428571428,1.0,1.0,0.8400769154957735,-0.5440788560322087,wait_cost,0.0,2.0,181.65072610000016,None,sn16,2,2023-03-21_11h40.32.059,threat_forest,2021.2.3,60.22481925017943,False,13.0,0.47619047619047616,0.4880952380952381,-1.2040816326530612,-1.3520408163265305,0,0,0,-0.29516735071158934,-0.5440788560322087,0.0,0.2448979591836734,0.2857142857142857,0.8571428571428572,-1.5714285714285712,-1.4081632653061225,1.5918367346938775,1.5918367346938775,1.0,1.0,-1.0,3.0,0,0,0
4.0,0.0,4.0,0.0,7.0,0.0,7.0,0.0,,,,left,2.004375600000003,188.63259819999985,sn16,182.9995788000001,185.0139561000001,188.63259819999985,None,False,2.0,['r'],False,0.4444444444444445,0.6666666666666666,0.3333333333333333,1.0,1.0,0.9656336071428248,-0.5555555555555556,wait_cost,1.0,1.0,185.0139561000001,None,sn16,2,2023-03-21_11h40.32.059,threat_forest,2021.2.3,60.22481925017943,False,13.0,0.47619047619047616,0.4880952380952381,-1.2040816326530612,-1.3520408163265305,1,0,0,0.6953325908104214,-0.5555555555555556,0.0,0.4444444444444445,0.6666666666666666,0.6666666666666667,-1.0,-1.0,1.0,1.0,0.0,1.0,-1.0,2.0,0,0,1
5.0,0.0,5.0,0.0,0.0,0.0,0.0,0.0,194.1560353,197.66234609999992,None,left,0.9338611000002855,201.0445454000001,sn16,194.1560353,197.66234609999992,201.0445454000001,None,False,4.0,['p'],False,0.4081632653061224,0.5714285714285714,0.2857142857142857,2.0,2.0,0.9885754083994552,0.0102904310319958,wait_cost,1.0,3.0,,,sn16,2,2023-03-21_11h40.32.059,threat_forest,2021.2.3,60.22481925017943,False,64.0,0.5357142857142857,0.5059523809523809,-0.326530612244898,-0.7653061224489797,1,0,0,-0.06842756701561711,0.0102904310319958,0.4081632653061224,0.4081632653061224,0.5714285714285714,0.7142857142857143,-0.5714285714285715,-0.653061224489796,3.3469387755102042,3.3469387755102042,0.0,2.0,-1.0,4.0,0,0,1
5.0,0.0,5.0,0.0,1.0,0.0,1.0,0.0,,,,left,1.6451017000003958,205.67016490000012,sn16,194.1560353,197.66234609999992,205.67016490000012,None,False,3.0,['p'],False,0.4081632653061224,0.5714285714285714,0.2857142857142857,2.0,2.0,0.9885754083994552,0.0633701866529412,wait_cost,1.0,2.0,204.01319030000013,None,sn16,2,2023-03-21_11h40.32.059,threat_forest,2021.2.3,60.22481925017943,False,64.0,0.5357142857142857,0.5059523809523809,-0.326530612244898,-0.7653061224489797,1,0,0,0.4978022060147758,0.0633701866529412,0.4081632653061224,0.4081632653061224,0.5714285714285714,0.7142857142857143,-0.5714285714285715,-0.653061224489796,2.3469387755102042,2.3469387755102042,0.0,2.0,-1.0,3.0,0,0,1
5.0,0.0,5.0,0.0,2.0,0.0,2.0,0.0,,,,right,1.062891000000036,211.74376239999992,sn16,194.1560353,197.66234609999992,211.74376239999992,None,True,2.0,['p'],False,0.4081632653061224,0.5714285714285714,0.2857142857142857,2.0,2.0,0.9885754083994552,-0.0085576322365681,succ_gain,1.0,4.0,209.35814630000004,None,sn16,2,2023-03-21_11h40.32.059,threat_forest,2021.2.3,60.22481925017943,True,64.0,0.5357142857142857,0.5059523809523809,-0.326530612244898,-0.7653061224489797,1,0,1,0.06099255412107614,-0.0085576322365681,0.4081632653061224,0.4081632653061224,0.5714285714285714,0.7142857142857143,-0.5714285714285715,-0.653061224489796,1.346938775510204,1.346938775510204,0.0,2.0,-1.0,2.0,0,0,1
5.0,0.0,5.0,0.0,3.0,0.0,3.0,0.0,,,,left,1.983766000000287,216.1247232000001,sn16,194.1560353,197.66234609999992,216.1247232000001,None,False,4.0,['p'],False,0.4081632653061224,0.5714285714285714,0.2857142857142857,2.0,2.0,0.9885754083994552,-0.0002517703993597,wait_cost,1.0,3.0,214.8531450999999,None,sn16,2,2023-03-21_11h40.32.059,threat_forest,2021.2.3,60.22481925017943,False,64.0,0.5357142857142857,0.5059523809523809,-0.326530612244898,-0.7653061224489797,1,0,0,0.6849970583585514,-0.0002517703993597,0.4081632653061224,0.4081632653061224,0.5714285714285714,0.7142857142857143,-0.5714285714285715,-0.653061224489796,3.3469387755102042,3.3469387755102042,0.0,2.0,1.0,4.0,0,0,1
5.0,0.0,5.0,0.0,4.0,0.0,4.0,0.0,,,,left,0.9881027000001268,221.77381030000012,sn16,221.77381030000012,None,218.13331860000017,220.14808730000004,True,3.0,['p'],True,0.5,0.5,0.0,0.0,2.0,0.6309297535714574,0.25,succ_gain,0.0,5.0,220.14808730000004,None,sn16,2,2023-03-21_11h40.32.059,threat_forest,2021.2.3,60.22481925017943,True,64.0,0.5357142857142857,0.5059523809523809,-0.326530612244898,-0.7653061224489797,1,0,1,-0.011968639267873215,0.25,0.5,0.5,0.5,1.0,0.0,0.0,3.0,3.0,1.0,2.0,-1.0,3.0,0,0,1
5.0,0.0,5.0,0.0,5.0,0.0,5.0,0.0,,,,right,1.5725814000002174,225.9136113,sn16,225.9136113,None,218.13331860000017,220.14808730000004,False,5.0,['p'],True,0.5,0.5,0.0,0.0,2.0,0.6309297535714574,0.0,wait_cost,0.0,4.0,224.7934750999998,None,sn16,2,2023-03-21_11h40.32.059,threat_forest,2021.2.3,60.22481925017943,False,64.0,0.5357142857142857,0.5059523809523809,-0.326530612244898,-0.7653061224489797,1,0,0,0.45271847295873296,0.0,0.0,0.5,0.5,1.0,0.0,0.0,5.0,5.0,1.0,2.0,1.0,5.0,0,0,1
5.0,0.0,5.0,0.0,6.0,0.0,6.0,0.0,,,,left,2.0120529999999235,231.96693370000003,sn16,227.50836059999983,229.5223261000001,231.96693370000003,None,False,4.0,['p'],False,0.4081632653061224,0.5714285714285714,0.2857142857142857,2.0,2.0,0.9885754083994552,-0.1559766763848396,wait_cost,1.0,3.0,229.5223261000001,None,sn16,2,2023-03-21_11h40.32.059,threat_forest,2021.2.3,60.22481925017943,False,64.0,0.5357142857142857,0.5059523809523809,-0.326530612244898,-0.7653061224489797,1,0,0,0.6991555938388219,-0.1559766763848396,0.0,0.4081632653061224,0.5714285714285714,0.7142857142857143,-0.5714285714285715,-0.653061224489796,3.3469387755102042,3.3469387755102042,0.0,2.0,-1.0,4.0,0,0,1
5.0,0.0,5.0,0.0,7.0,0.0,7.0,0.0,,,,left,1.7490522999996756,237.0877213999997,sn16,227.50836059999983,229.5223261000001,237.0877213999997,None,False,3.0,['p'],False,0.4081632653061224,0.5714285714285714,0.2857142857142857,2.0,2.0,0.9885754083994552,-0.2857142857142857,wait_cost,1.0,2.0,236.01668759999984,None,sn16,2,2023-03-21_11h40.32.059,threat_forest,2021.2.3,60.22481925017943,False,64.0,0.5357142857142857,0.5059523809523809,-0.326530612244898,-0.7653061224489797,1,0,0,0.5590740983908006,-0.2857142857142857,0.0,0.4081632653061224,0.5714285714285714,0.7142857142857143,-0.5714285714285715,-0.653061224489796,2.3469387755102042,2.3469387755102042,0.0,2.0,-1.0,3.0,0,0,1
6.0,0.0,6.0,0.0,0.0,0.0,0.0,0.0,242.2122703,245.7175797,None,right,1.0436869999998637,248.64583589999984,sn16,242.2122703,245.7175797,248.64583589999984,None,True,4.0,['p'],False,0.375,0.5,0.25,1.0,1.0,0.9850568223215076,0.0292062806120119,unsucc_cost,1.0,2.0,,,sn16,2,2023-03-21_11h40.32.059,threat_forest,2021.2.3,60.22481925017943,True,9.0,0.4,0.46785714285714286,-1.3025,-0.814515306122449,0,0,1,0.04275963607966573,0.0292062806120119,0.375,0.375,0.5,0.75,-1.25,-1.125,2.875,2.875,0.0,1.0,-1.0,4.0,0,0,0
6.0,0.0,6.0,0.0,1.0,0.0,1.0,0.0,,,,right,1.2329098999998678,252.90075220000017,sn16,242.2122703,245.7175797,252.90075220000017,None,True,2.0,['p'],False,0.375,0.5,0.25,1.0,1.0,0.9850568223215076,0.017480561623462,unsucc_cost,1.0,0.0,251.73495420000015,None,sn16,2,2023-03-21_11h40.32.059,threat_forest,2021.2.3,60.22481925017943,True,9.0,0.4,0.46785714285714286,-1.3025,-0.814515306122449,0,0,1,0.20937714770834878,0.017480561623462,0.375,0.375,0.5,0.75,-1.25,-1.125,0.875,0.875,0.0,1.0,-1.0,2.0,0,0,0
7.0,0.0,7.0,0.0,0.0,0.0,0.0,0.0,258.2794986999997,261.77836100000013,None,right,1.1632173000002697,264.9701113000001,sn16,264.9701113000001,None,258.2794986999997,261.77836100000013,False,4.0,['p'],True,0.16,0.2,0.2,2.0,1.0,0.8198746470064713,-0.0034169425027313,wait_cost,0.0,3.0,,,sn16,2,2023-03-21_11h40.32.059,threat_forest,2021.2.3,60.22481925017943,False,3.0,0.35,0.375,-1.4225000000000003,-1.3625000000000003,0,0,0,0.15118970045153804,-0.0034169425027313,0.16,0.16,0.2,0.8,-2.0,-1.7200000000000004,2.2799999999999994,2.2799999999999994,1.0,1.0,-1.0,4.0,0,0,0
7.0,0.0,7.0,0.0,1.0,0.0,1.0,0.0,,,,right,0.8498099000003094,271.12950039999987,sn16,266.15689650000013,268.1697982999999,271.12950039999987,None,True,3.0,['p'],False,0.375,0.5,0.25,1.0,1.0,0.9850568223215076,0.0398144030189514,unsucc_cost,1.0,1.0,268.1697982999999,None,sn16,2,2023-03-21_11h40.32.059,threat_forest,2021.2.3,60.22481925017943,True,3.0,0.35,0.375,-1.4225000000000003,-1.3625000000000003,1,0,1,-0.16274260156896722,0.0398144030189514,0.375,0.375,0.5,0.75,-1.25,-1.125,1.875,1.875,0.0,1.0,-1.0,3.0,0,0,1
7.0,0.0,7.0,0.0,2.0,0.0,2.0,0.0,,,,right,2.2350781999998617,277.47918560000016,sn16,266.15689650000013,268.1697982999999,277.47918560000016,None,True,1.0,['p'],False,0.375,0.5,0.25,1.0,1.0,0.9850568223215076,0.0417231582641601,unsucc_cost,1.0,0.0,274.01460640000005,None,sn16,2,2023-03-21_11h40.32.059,threat_forest,2021.2.3,60.22481925017943,True,3.0,0.35,0.375,-1.4225000000000003,-1.3625000000000003,1,0,1,0.8042762162676936,0.0417231582641601,1.0,0.375,0.5,0.75,-1.25,-1.125,-0.125,0.0,0.0,1.0,-1.0,1.0,1,0,1
8.0,0.0,8.0,0.0,0.0,0.0,0.0,0.0,283.5897187999999,287.0912889000001,None,right,2.9435504999996738,289.59366420000015,sn16,283.5897187999999,287.0912889000001,289.59366420000015,None,True,5.0,['p'],False,0.32,0.4,0.2,1.0,1.0,0.9455672104350704,0.029786704162101,fight_cost,1.0,2.0,,,sn16,2,2023-03-21_11h40.32.059,threat_forest,2021.2.3,60.22481925017943,True,48.0,0.3111111111111111,0.33055555555555555,-1.3792592592592592,-1.4008796296296298,1,0,1,1.0796165057853053,0.029786704162101,0.32,0.32,0.4,0.8,-1.4,-1.24,3.76,3.76,0.0,1.0,-1.0,5.0,0,0,1
8.0,0.0,8.0,0.0,1.0,0.0,1.0,0.0,,,,right,1.8193397999998524,295.4313834999998,sn16,283.5897187999999,287.0912889000001,295.4313834999998,None,True,2.0,['p'],False,0.32,0.4,0.2,1.0,1.0,0.9455672104350704,0.0114535674586457,unsucc_cost,1.0,0.0,294.57875650000005,None,sn16,2,2023-03-21_11h40.32.059,threat_forest,2021.2.3,60.22481925017943,True,48.0,0.3111111111111111,0.33055555555555555,-1.3792592592592592,-1.4008796296296298,1,0,1,0.5984736880271758,0.0114535674586457,0.32,0.32,0.4,0.8,-1.4,-1.24,0.76,0.76,0.0,1.0,-1.0,2.0,0,0,1
9.0,0.0,9.0,0.0,0.0,0.0,0.0,0.0,301.1375546999998,304.6388913999999,None,right,1.2338958999998797,308.3462768999998,sn16,308.3462768999998,None,301.1375546999998,304.6388913999999,False,5.0,['p'],True,0.1728395061728395,0.2222222222222222,0.2222222222222222,2.0,2.0,0.8571721972794328,-0.0022646613356588,wait_cost,0.0,4.0,,,sn16,2,2023-03-21_11h40.32.059,threat_forest,2021.2.3,60.22481925017943,False,26.0,0.2111111111111111,0.2611111111111111,-1.3654320987654323,-1.3723456790123456,0,0,0,0.21017656211909952,-0.0022646613356588,0.1728395061728395,0.1728395061728395,0.2222222222222222,0.7777777777777778,-1.7777777777777777,-1.5308641975308643,3.4691358024691357,3.4691358024691357,1.0,2.0,-1.0,5.0,0,0,0
9.0,0.0,9.0,0.0,1.0,0.0,1.0,0.0,,,,right,2.654579200000171,312.2537828999998,sn16,309.5991248,311.6126912999998,312.2537828999998,None,True,4.0,['p'],False,0.2,0.2,0.0,0.0,2.0,0.4554859150035951,0.0186273582673113,succ_gain,1.0,6.0,311.6126912999998,None,sn16,2,2023-03-21_11h40.32.059,threat_forest,2021.2.3,60.22481925017943,True,26.0,0.2111111111111111,0.2611111111111111,-1.3654320987654323,-1.3723456790123456,1,0,1,0.9762861487238962,0.0186273582673113,0.2,0.2,0.2,1.0,-1.2000000000000002,-1.2000000000000002,2.8,2.8,0.0,2.0,-1.0,4.0,0,0,1
9.0,0.0,9.0,0.0,2.0,0.0,2.0,0.0,,,,right,1.547169599999961,319.7341081999998,sn16,319.7341081999998,None,314.92678350000006,316.94116859999986,False,6.0,['p'],True,0.1728395061728395,0.2222222222222222,0.2222222222222222,2.0,2.0,0.8571721972794328,-0.0040892323167761,wait_cost,0.0,5.0,316.94116859999986,None,sn16,2,2023-03-21_11h40.32.059,threat_forest,2021.2.3,60.22481925017943,False,26.0,0.2111111111111111,0.2611111111111111,-1.3654320987654323,-1.3723456790123456,0,0,0,0.43642719712673095,-0.0040892323167761,0.1728395061728395,0.1728395061728395,0.2222222222222222,0.7777777777777778,-1.7777777777777777,-1.5308641975308643,4.469135802469136,4.469135802469136,1.0,2.0,1.0,6.0,0,0,0
9.0,0.0,9.0,0.0,3.0,0.0,3.0,0.0,,,,right,2.230578499999865,325.02573570000004,sn16,325.02573570000004,None,314.92678350000006,316.94116859999986,False,5.0,['p'],True,0.1728395061728395,0.2222222222222222,0.2222222222222222,2.0,2.0,0.8571721972794328,0.0649096042646315,wait_cost,0.0,4.0,323.31860069999993,None,sn16,2,2023-03-21_11h40.32.059,threat_forest,2021.2.3,60.22481925017943,False,26.0,0.2111111111111111,0.2611111111111111,-1.3654320987654323,-1.3723456790123456,0,0,0,0.8022609688695435,0.0649096042646315,0.1728395061728395,0.1728395061728395,0.2222222222222222,0.7777777777777778,-1.7777777777777777,-1.5308641975308643,3.4691358024691357,3.4691358024691357,1.0,2.0,-1.0,5.0,0,0,0
9.0,0.0,9.0,0.0,4.0,0.0,4.0,0.0,,,,right,0.9707696999998916,330.3719348,sn16,327.2818306999998,329.29637550000007,330.3719348,None,True,4.0,['p'],False,0.2,0.2,0.0,0.0,2.0,0.4554859150035951,0.0371940253010211,unsucc_cost,1.0,2.0,329.29637550000007,None,sn16,2,2023-03-21_11h40.32.059,threat_forest,2021.2.3,60.22481925017943,True,26.0,0.2111111111111111,0.2611111111111111,-1.3654320987654323,-1.3723456790123456,1,0,1,-0.029666016988951684,0.0371940253010211,0.2,0.2,0.2,1.0,-1.2000000000000002,-1.2000000000000002,2.8,2.8,0.0,2.0,-1.0,4.0,0,0,1
9.0,0.0,9.0,0.0,5.0,0.0,5.0,0.0,,,,left,1.403384499999902,336.6669425,sn16,336.6669425,None,331.3612088,333.3757635000002,True,2.0,['p'],True,0.1728395061728395,0.2222222222222222,0.2222222222222222,2.0,2.0,0.8571721972794328,-0.0135802469135802,unsucc_cost,0.0,0.0,333.3757635000002,None,sn16,2,2023-03-21_11h40.32.059,threat_forest,2021.2.3,60.22481925017943,True,26.0,0.2111111111111111,0.2611111111111111,-1.3654320987654323,-1.3723456790123456,0,0,1,0.3388868191690323,-0.0135802469135802,0.1728395061728395,0.1728395061728395,0.2222222222222222,0.7777777777777778,-1.7777777777777777,-1.5308641975308643,0.46913580246913567,0.46913580246913567,1.0,2.0,-1.0,2.0,0,0,0
10.0,0.0,10.0,0.0,0.0,0.0,0.0,0.0,343.1515832,346.65247469999986,None,right,2.530908299999737,349.9577728999998,sn16,343.1515832,346.65247469999986,349.9577728999998,None,True,5.0,['p'],False,0.27,0.3,0.1,1.0,1.0,0.7963326591781347,-0.0040169508903756,succ_gain,1.0,6.0,,,sn16,2,2023-03-21_11h40.32.059,threat_forest,2021.2.3,60.22481925017943,True,16.0,0.4,0.3055555555555556,-1.1033333333333333,-1.2343827160493828,0,0,1,0.9285782501676957,-0.0040169508903756,0.27,0.27,0.3,0.9,-1.4,-1.29,3.71,3.71,0.0,1.0,-1.0,5.0,0,0,0
10.0,0.0,10.0,0.0,1.0,0.0,1.0,0.0,,,,left,1.3308493999998063,355.68213149999974,sn16,343.1515832,346.65247469999986,355.68213149999974,None,False,6.0,['p'],False,0.27,0.3,0.1,1.0,1.0,0.7963326591781347,-0.1384164811624332,wait_cost,1.0,5.0,354.50719290000006,None,sn16,2,2023-03-21_11h40.32.059,threat_forest,2021.2.3,60.22481925017943,False,16.0,0.4,0.3055555555555556,-1.1033333333333333,-1.2343827160493828,0,0,0,0.2858173850020944,-0.1384164811624332,0.27,0.27,0.3,0.9,-1.4,-1.29,4.71,4.71,0.0,1.0,1.0,6.0,0,0,0
10.0,0.0,10.0,0.0,2.0,0.0,2.0,0.0,,,,left,1.1769320999997035,362.7887820000001,sn16,343.1515832,346.65247469999986,362.7887820000001,None,False,5.0,['p'],False,0.27,0.3,0.1,1.0,1.0,0.7963326591781347,-0.0198676931790124,wait_cost,1.0,4.0,359.0520161999998,None,sn16,2,2023-03-21_11h40.32.059,threat_forest,2021.2.3,60.22481925017943,False,16.0,0.4,0.3055555555555556,-1.1033333333333333,-1.2343827160493828,0,0,0,0.16291113757387904,-0.0198676931790124,0.27,0.27,0.3,0.9,-1.4,-1.29,3.71,3.71,0.0,1.0,-1.0,5.0,0,0,0
10.0,0.0,10.0,0.0,3.0,0.0,3.0,0.0,,,,right,0.8887022999997498,368.2732114,sn16,368.2732114,None,363.9903752999999,365.99524470000006,False,4.0,['p'],True,0.4166666666666667,0.5,0.1666666666666666,1.0,1.0,0.9358932809493992,0.0877168672839506,wait_cost,0.0,3.0,365.99524470000006,None,sn16,2,2023-03-21_11h40.32.059,threat_forest,2021.2.3,60.22481925017943,False,16.0,0.4,0.3055555555555556,-1.1033333333333333,-1.2343827160493828,1,1,0,-0.11799297019137743,0.0877168672839506,0.4166666666666667,0.4166666666666667,0.5,0.8333333333333334,-0.9999999999999998,-0.9166666666666665,3.0833333333333335,3.0833333333333335,1.0,1.0,-1.0,4.0,0,1,1
10.0,0.0,10.0,0.0,4.0,0.0,4.0,0.0,,,,right,1.023647600000004,374.48400589999983,sn16,369.1926939,371.2073098999999,374.48400589999983,None,True,3.0,['p'],False,0.27,0.3,0.1,1.0,1.0,0.7963326591781347,-0.0278060000000001,succ_gain,1.0,4.0,371.2073098999999,None,sn16,2,2023-03-21_11h40.32.059,threat_forest,2021.2.3,60.22481925017943,True,16.0,0.4,0.3055555555555556,-1.1033333333333333,-1.2343827160493828,0,0,1,0.023372326762345807,-0.0278060000000001,0.27,0.27,0.3,0.9,-1.4,-1.29,1.71,1.71,0.0,1.0,-1.0,3.0,0,0,0
10.0,0.0,10.0,0.0,5.0,0.0,5.0,0.0,,,,left,1.2087534000002051,380.67132390000006,sn16,369.1926939,371.2073098999999,380.67132390000006,None,False,4.0,['p'],False,0.27,0.3,0.1,1.0,1.0,0.7963326591781347,-0.4562666666666666,wait_cost,1.0,3.0,377.551125,None,sn16,2,2023-03-21_11h40.32.059,threat_forest,2021.2.3,60.22481925017943,False,16.0,0.4,0.3055555555555556,-1.1033333333333333,-1.2343827160493828,0,0,0,0.1895895806047452,-0.4562666666666666,0.0,0.27,0.3,0.9,-1.4,-1.29,2.71,2.71,0.0,1.0,1.0,4.0,0,0,0
10.0,0.0,10.0,0.0,6.0,0.0,6.0,0.0,,,,right,0.7625041999999667,386.8982633999999,sn16,386.8982633999999,None,381.89748770000006,383.9118674000001,False,3.0,['p'],True,0.4166666666666667,0.5,0.1666666666666666,1.0,1.0,0.9358932809493992,-0.4402777777777777,wait_cost,0.0,2.0,383.9118674000001,None,sn16,2,2023-03-21_11h40.32.059,threat_forest,2021.2.3,60.22481925017943,False,16.0,0.4,0.3055555555555556,-1.1033333333333333,-1.2343827160493828,1,1,0,-0.27114726231906283,-0.4402777777777777,0.0,0.4166666666666667,0.5,0.8333333333333334,-0.9999999999999998,-0.9166666666666665,2.0833333333333335,2.0833333333333335,1.0,1.0,-1.0,3.0,0,1,1
10.0,0.0,10.0,0.0,7.0,0.0,7.0,0.0,,,,right,0.7085818000000472,392.33905719999984,sn16,392.33905719999984,None,381.89748770000006,383.9118674000001,False,2.0,['p'],True,0.4166666666666667,0.5,0.1666666666666666,1.0,1.0,0.9358932809493992,-0.5833333333333333,wait_cost,0.0,1.0,389.7064415,None,sn16,2,2023-03-21_11h40.32.059,threat_forest,2021.2.3,60.22481925017943,False,16.0,0.4,0.3055555555555556,-1.1033333333333333,-1.2343827160493828,1,1,0,-0.34448977132875763,-0.5833333333333333,0.0,0.4166666666666667,0.5,0.8333333333333334,-0.9999999999999998,-0.9166666666666665,1.0833333333333335,1.0833333333333335,1.0,1.0,-1.0,2.0,0,1,1
11.0,0.0,11.0,0.0,0.0,0.0,0.0,0.0,396.29922510000006,399.7993425999998,None,right,1.8398502999998527,402.36964979999993,sn16,396.29922510000006,399.7993425999998,402.36964979999993,None,True,5.0,['r'],False,0.375,0.5,0.25,1.0,1.0,0.9850568223215076,0.0361323788439721,unsucc_cost,1.0,3.0,,,sn16,2,2023-03-21_11h40.32.059,threat_forest,2021.2.3,60.22481925017943,True,69.0,0.39285714285714285,0.39642857142857146,-1.2665816326530612,-1.1849574829931973,1,0,1,0.6096842096153638,0.0361323788439721,0.375,0.375,0.5,0.75,-1.25,-1.125,3.875,3.875,0.0,1.0,-1.0,5.0,0,0,1
11.0,0.0,11.0,0.0,1.0,0.0,1.0,0.0,,,,right,1.205558900000142,406.97409460000017,sn16,396.29922510000006,399.7993425999998,406.97409460000017,None,True,3.0,['r'],False,0.375,0.5,0.25,1.0,1.0,0.9850568223215076,0.0375814591545523,fight_cost,1.0,0.0,406.2410651,None,sn16,2,2023-03-21_11h40.32.059,threat_forest,2021.2.3,60.22481925017943,True,69.0,0.39285714285714285,0.39642857142857146,-1.2665816326530612,-1.1849574829931973,1,0,1,0.18694327684006737,0.0375814591545523,0.375,0.375,0.5,0.75,-1.25,-1.125,1.875,1.875,0.0,1.0,-1.0,3.0,0,0,1
12.0,0.0,12.0,0.0,0.0,0.0,0.0,0.0,413.9977798,417.5002208000001,None,right,1.551782799999728,418.8721876999998,sn16,413.9977798,417.5002208000001,418.8721876999998,None,True,4.0,['r'],False,0.375,0.5,0.25,1.0,2.0,0.9850568223215076,0.0485326513426469,fight_cost,1.0,1.0,,,sn16,2,2023-03-21_11h40.32.059,threat_forest,2021.2.3,60.22481925017943,True,42.0,0.39285714285714285,0.39285714285714285,-0.9566326530612245,-1.1116071428571428,1,0,1,0.4394044635135449,0.0485326513426469,0.375,0.375,0.5,0.75,-0.75,-0.75,3.25,3.25,0.0,2.0,-1.0,4.0,0,0,1
12.0,0.0,12.0,0.0,1.0,0.0,1.0,0.0,,,,left,1.8441047000001165,423.2181842999999,sn16,423.2181842999999,None,420.4448072,422.45931519999976,True,1.0,['r'],True,0.2448979591836734,0.2857142857142857,0.1428571428571428,1.0,2.0,0.8400769154957735,0.0633254287122703,unsucc_cost,0.0,0.0,422.45931519999976,None,sn16,2,2023-03-21_11h40.32.059,threat_forest,2021.2.3,60.22481925017943,True,42.0,0.39285714285714285,0.39285714285714285,-0.9566326530612245,-1.1116071428571428,0,0,1,0.611993902264479,0.0633254287122703,1.0,0.2448979591836734,0.2857142857142857,0.8571428571428572,-1.2857142857142856,-1.163265306122449,-0.16326530612244894,0.0,1.0,2.0,-1.0,1.0,1,0,0
13.0,0.0,13.0,0.0,0.0,0.0,0.0,0.0,429.4542219999999,432.9548420000001,None,right,1.8986267000000223,436.3454855,sn16,436.3454855,None,429.4542219999999,432.9548420000001,False,5.0,['r'],True,0.1728395061728395,0.2222222222222222,0.2222222222222222,2.0,2.0,0.8571721972794328,-0.0270759260606772,wait_cost,0.0,4.0,,,sn16,2,2023-03-21_11h40.32.059,threat_forest,2021.2.3,60.22481925017943,False,59.0,0.3611111111111111,0.376984126984127,-1.1404320987654322,-1.0485323759133283,0,0,0,0.6411308353604748,-0.0270759260606772,0.1728395061728395,0.1728395061728395,0.2222222222222222,0.7777777777777778,-1.7777777777777777,-1.5308641975308643,3.4691358024691357,3.4691358024691357,1.0,2.0,-1.0,5.0,0,0,0
13.0,0.0,13.0,0.0,1.0,0.0,1.0,0.0,,,,right,1.5748151000002508,443.2627339999999,sn16,443.2627339999999,None,429.4542219999999,432.9548420000001,False,4.0,['r'],True,0.1728395061728395,0.2222222222222222,0.2222222222222222,2.0,2.0,0.8571721972794328,0.0062757750896342,wait_cost,0.0,3.0,440.2761780999999,None,sn16,2,2023-03-21_11h40.32.059,threat_forest,2021.2.3,60.22481925017943,False,59.0,0.3611111111111111,0.376984126984127,-1.1404320987654322,-1.0485323759133283,0,0,0,0.4541378685608122,0.0062757750896342,0.1728395061728395,0.1728395061728395,0.2222222222222222,0.7777777777777778,-1.7777777777777777,-1.5308641975308643,2.4691358024691357,2.4691358024691357,1.0,2.0,-1.0,4.0,0,0,0
13.0,0.0,13.0,0.0,2.0,0.0,2.0,0.0,,,,right,2.245754800000213,447.5795256000001,sn16,447.5795256000001,None,429.4542219999999,432.9548420000001,False,3.0,['r'],True,0.1728395061728395,0.2222222222222222,0.2222222222222222,2.0,2.0,0.8571721972794328,0.0140809028074422,wait_cost,0.0,2.0,446.8699302,None,sn16,2,2023-03-21_11h40.32.059,threat_forest,2021.2.3,60.22481925017943,False,59.0,0.3611111111111111,0.376984126984127,-1.1404320987654322,-1.0485323759133283,0,0,0,0.8090416784955785,0.0140809028074422,0.1728395061728395,0.1728395061728395,0.2222222222222222,0.7777777777777778,-1.7777777777777777,-1.5308641975308643,1.4691358024691357,1.4691358024691357,1.0,2.0,-1.0,3.0,0,0,0
13.0,0.0,13.0,0.0,3.0,0.0,3.0,0.0,,,,right,1.1393635999997969,453.33902469999975,sn16,449.8506653,451.8647596999999,453.33902469999975,None,True,2.0,['r'],False,0.375,0.5,0.25,1.0,2.0,0.9850568223215076,0.0747935552891219,unsucc_cost,1.0,0.0,451.8647596999999,None,sn16,2,2023-03-21_11h40.32.059,threat_forest,2021.2.3,60.22481925017943,True,59.0,0.3611111111111111,0.376984126984127,-1.1404320987654322,-1.0485323759133283,1,0,1,0.1304698609150934,0.0747935552891219,0.375,0.375,0.5,0.75,-0.75,-0.75,1.25,1.25,0.0,2.0,-1.0,2.0,0,0,1
14.0,0.0,14.0,0.0,0.0,0.0,0.0,0.0,458.7103601999997,462.2095838,None,left,1.3920398000000205,465.9143595999999,sn16,465.9143595999999,None,458.7103601999997,462.2095838,True,5.0,['r'],True,0.46875,0.625,0.25,2.0,2.0,0.9634951148421658,-0.0188382549218505,unsucc_cost,0.0,3.0,,,sn16,2,2023-03-21_11h40.32.059,threat_forest,2021.2.3,60.22481925017943,True,62.0,0.6125,0.4868055555555556,0.012499999999999956,-0.5639660493827161,1,0,1,0.3307701534575235,-0.0188382549218505,0.46875,0.46875,0.625,0.75,-0.25,-0.375,4.625,4.625,1.0,2.0,-1.0,5.0,0,0,1
14.0,0.0,14.0,0.0,1.0,0.0,1.0,0.0,,,,right,0.923139099999844,473.05227060000016,sn16,467.3344729,469.3488253999999,473.05227060000016,None,True,3.0,['r'],False,0.6,0.6,0.0,0.0,2.0,0.6126016192893442,0.2104563208898306,succ_gain,1.0,5.0,469.3488253999999,None,sn16,2,2023-03-21_11h40.32.059,threat_forest,2021.2.3,60.22481925017943,True,62.0,0.6125,0.4868055555555556,0.012499999999999956,-0.5639660493827161,1,1,1,-0.07997535160884274,0.2104563208898306,0.6,0.6,0.6,1.0,0.3999999999999999,0.3999999999999999,3.4,3.4,0.0,2.0,-1.0,3.0,0,1,1
14.0,0.0,14.0,0.0,2.0,0.0,2.0,0.0,,,,right,1.6860983999999917,477.95480880000014,sn16,477.95480880000014,None,473.9950936,476.0094380999999,False,5.0,['r'],True,0.46875,0.625,0.25,2.0,2.0,0.9634951148421658,-0.0122776407927275,wait_cost,0.0,4.0,476.0094380999999,None,sn16,2,2023-03-21_11h40.32.059,threat_forest,2021.2.3,60.22481925017943,False,62.0,0.6125,0.4868055555555556,0.012499999999999956,-0.5639660493827161,1,0,0,0.5224172208659296,-0.0122776407927275,0.46875,0.46875,0.625,0.75,-0.25,-0.375,4.625,4.625,1.0,2.0,1.0,5.0,0,0,1
14.0,0.0,14.0,0.0,3.0,0.0,3.0,0.0,,,,left,1.7718494999999166,483.4949118,sn16,483.4949118,None,473.9950936,476.0094380999999,True,4.0,['r'],True,0.46875,0.625,0.25,2.0,2.0,0.9634951148421658,0.0075810928344726,succ_gain,0.0,6.0,481.6873784,None,sn16,2,2023-03-21_11h40.32.059,threat_forest,2021.2.3,60.22481925017943,True,62.0,0.6125,0.4868055555555556,0.012499999999999956,-0.5639660493827161,1,0,1,0.5720239162959821,0.0075810928344726,0.46875,0.46875,0.625,0.75,-0.25,-0.375,3.625,3.625,1.0,2.0,-1.0,4.0,0,0,1
14.0,0.0,14.0,0.0,4.0,0.0,4.0,0.0,,,,right,0.8946978000003583,491.1202152999999,sn16,491.1202152999999,None,473.9950936,476.0094380999999,False,6.0,['r'],True,0.46875,0.625,0.25,2.0,2.0,0.9634951148421658,-0.07090087890625,wait_cost,0.0,5.0,487.2987616,None,sn16,2,2023-03-21_11h40.32.059,threat_forest,2021.2.3,60.22481925017943,False,62.0,0.6125,0.4868055555555556,0.012499999999999956,-0.5639660493827161,1,0,0,-0.11126927135598874,-0.07090087890625,0.0,0.46875,0.625,0.75,-0.25,-0.375,5.625,5.625,1.0,2.0,1.0,6.0,0,0,1
14.0,0.0,14.0,0.0,5.0,0.0,5.0,0.0,,,,right,1.9702622999998312,494.65023900000006,sn16,494.65023900000006,None,473.9950936,476.0094380999999,False,5.0,['r'],True,0.46875,0.625,0.25,2.0,2.0,0.9634951148421658,-0.108203125,wait_cost,0.0,4.0,494.0591624999997,None,sn16,2,2023-03-21_11h40.32.059,threat_forest,2021.2.3,60.22481925017943,False,62.0,0.6125,0.4868055555555556,0.012499999999999956,-0.5639660493827161,1,0,0,0.6781666810946305,-0.108203125,0.0,0.46875,0.625,0.75,-0.25,-0.375,4.625,4.625,1.0,2.0,-1.0,5.0,0,0,1
14.0,0.0,14.0,0.0,6.0,0.0,6.0,0.0,,,,right,1.6297309999999925,500.01171369999975,sn16,496.6406281999998,498.6551184,500.01171369999975,None,True,4.0,['r'],False,0.6,0.6,0.0,0.0,2.0,0.6126016192893442,0.0,unsucc_cost,1.0,2.0,498.6551184,None,sn16,2,2023-03-21_11h40.32.059,threat_forest,2021.2.3,60.22481925017943,True,62.0,0.6125,0.4868055555555556,0.012499999999999956,-0.5639660493827161,1,1,1,0.4884149705247595,0.0,0.0,0.6,0.6,1.0,0.3999999999999999,0.3999999999999999,4.4,4.4,0.0,2.0,-1.0,4.0,0,1,1
14.0,0.0,14.0,0.0,7.0,0.0,7.0,0.0,,,,left,0.7215151000000333,505.7819976999999,sn16,496.6406281999998,498.6551184,505.7819976999999,None,False,2.0,['r'],False,0.6,0.6,0.0,0.0,2.0,0.6126016192893442,-0.4,wait_cost,1.0,1.0,503.6836472999999,None,sn16,2,2023-03-21_11h40.32.059,threat_forest,2021.2.3,60.22481925017943,False,62.0,0.6125,0.4868055555555556,0.012499999999999956,-0.5639660493827161,1,1,0,-0.3264019723662373,-0.4,0.0,0.6,0.6,1.0,0.3999999999999999,0.3999999999999999,2.4,2.4,0.0,2.0,-1.0,2.0,0,1,1
15.0,0.0,15.0,0.0,0.0,0.0,0.0,0.0,512.1904481000001,515.6911224999999,None,left,0.912576100000024,518.4790864000001,sn16,512.1904481000001,515.6911224999999,518.4790864000001,None,False,5.0,['p'],False,0.36,0.6,0.4,2.0,1.0,0.9801625908629508,-0.019480620685,wait_cost,1.0,4.0,,,sn16,2,2023-03-21_11h40.32.059,threat_forest,2021.2.3,60.22481925017943,False,24.0,0.55,0.58125,-0.9100000000000001,-0.4487500000000001,0,0,0,-0.0914837997425484,-0.019480620685,0.36,0.36,0.6,0.6,-1.4000000000000004,-1.3200000000000003,3.6799999999999997,3.6799999999999997,0.0,1.0,-1.0,5.0,0,0,0
15.0,0.0,15.0,0.0,1.0,0.0,1.0,0.0,,,,left,1.2726592999997592,523.1069726000001,sn16,523.1069726000001,None,519.4192176000001,521.4338701000001,True,4.0,['p'],True,0.5,0.5,0.0,0.0,1.0,0.6309297535714574,0.102124415,succ_gain,0.0,5.0,521.4338701000001,None,sn16,2,2023-03-21_11h40.32.059,threat_forest,2021.2.3,60.22481925017943,True,24.0,0.55,0.58125,-0.9100000000000001,-0.4487500000000001,0,0,1,0.2411086482476295,0.102124415,0.5,0.5,0.5,1.0,-0.5,-0.5,3.5,3.5,1.0,1.0,-1.0,4.0,0,0,0
15.0,0.0,15.0,0.0,2.0,0.0,2.0,0.0,,,,left,1.9803317000000789,528.3140669,sn16,528.3140669,None,519.4192176000001,521.4338701000001,True,5.0,['p'],True,0.5,0.5,0.0,0.0,1.0,0.6309297535714574,0.09949075,unsucc_cost,0.0,3.0,526.4123488999999,None,sn16,2,2023-03-21_11h40.32.059,threat_forest,2021.2.3,60.22481925017943,True,24.0,0.55,0.58125,-0.9100000000000001,-0.4487500000000001,0,0,1,0.6832643559282208,0.09949075,0.5,0.5,0.5,1.0,-0.5,-0.5,4.5,4.5,1.0,1.0,1.0,5.0,0,0,0
15.0,0.0,15.0,0.0,3.0,0.0,3.0,0.0,,,,left,1.2725673999998437,533.6806209000001,sn16,533.6806209000001,None,519.4192176000001,521.4338701000001,True,3.0,['p'],True,0.5,0.5,0.0,0.0,1.0,0.6309297535714574,0.1769,unsucc_cost,0.0,1.0,532.3401822000001,None,sn16,2,2023-03-21_11h40.32.059,threat_forest,2021.2.3,60.22481925017943,True,24.0,0.55,0.58125,-0.9100000000000001,-0.4487500000000001,0,0,1,0.24103643464091581,0.1769,0.5,0.5,0.5,1.0,-0.5,-0.5,2.5,2.5,1.0,1.0,-1.0,3.0,0,0,0
15.0,0.0,15.0,0.0,4.0,0.0,4.0,0.0,,,,right,0.9563924999997652,540.6904479,sn16,534.971258,536.9857539,540.6904479,None,True,1.0,['p'],False,0.36,0.6,0.4,2.0,1.0,0.9801625908629508,0.1674,unsucc_cost,1.0,0.0,536.9857539,None,sn16,2,2023-03-21_11h40.32.059,threat_forest,2021.2.3,60.22481925017943,True,24.0,0.55,0.58125,-0.9100000000000001,-0.4487500000000001,0,0,1,-0.04458688533611266,0.1674,1.0,0.36,0.6,0.6,-1.4000000000000004,-1.3200000000000003,-0.3200000000000003,0.0,0.0,1.0,-1.0,1.0,1,0,0
16.0,0.0,16.0,0.0,0.0,0.0,0.0,0.0,545.3973101000001,548.8994334999998,None,right,1.1849577000002682,551.4350245999999,sn16,551.4350245999999,None,545.3973101000001,548.8994334999998,False,5.0,['p'],True,0.2962962962962963,0.3333333333333333,0.1111111111111111,1.0,2.0,0.8325252476189534,-0.0036833572583059,wait_cost,0.0,4.0,,,sn16,2,2023-03-21_11h40.32.059,threat_forest,2021.2.3,60.22481925017943,False,22.0,0.41666666666666663,0.48333333333333334,-0.7129629629629629,-0.8114814814814815,0,0,0,0.16970707774766464,-0.0036833572583059,0.2962962962962963,0.2962962962962963,0.3333333333333333,0.8888888888888888,-1.0000000000000002,-0.925925925925926,4.074074074074074,4.074074074074074,1.0,2.0,-1.0,5.0,0,0,0
16.0,0.0,16.0,0.0,1.0,0.0,1.0,0.0,,,,right,0.9536880000000564,558.1894400000001,sn16,552.6380911000001,554.6360322999999,558.1894400000001,None,True,4.0,['p'],False,0.4166666666666667,0.5,0.1666666666666666,1.0,2.0,0.9358932809493992,0.0740380070829472,succ_gain,1.0,6.0,554.6360322999999,None,sn16,2,2023-03-21_11h40.32.059,threat_forest,2021.2.3,60.22481925017943,True,22.0,0.41666666666666663,0.48333333333333334,-0.7129629629629629,-0.8114814814814815,1,0,1,-0.047418705049508666,0.0740380070829472,0.4166666666666667,0.4166666666666667,0.5,0.8333333333333334,-0.4999999999999998,-0.4999999999999998,3.5,3.5,0.0,2.0,-1.0,4.0,0,0,1
16.0,0.0,16.0,0.0,2.0,0.0,2.0,0.0,,,,left,1.9275617000002967,563.7451065,sn16,552.6380911000001,554.6360322999999,563.7451065,None,False,6.0,['p'],False,0.4166666666666667,0.5,0.1666666666666666,1.0,2.0,0.9358932809493992,0.0522009962996441,wait_cost,1.0,5.0,561.1797784999999,None,sn16,2,2023-03-21_11h40.32.059,threat_forest,2021.2.3,60.22481925017943,False,22.0,0.41666666666666663,0.48333333333333334,-0.7129629629629629,-0.8114814814814815,1,0,0,0.6562558363193152,0.0522009962996441,0.4166666666666667,0.4166666666666667,0.5,0.8333333333333334,-0.4999999999999998,-0.4999999999999998,5.5,5.5,0.0,2.0,1.0,6.0,0,0,1
16.0,0.0,16.0,0.0,3.0,0.0,3.0,0.0,,,,right,1.4981602000002567,570.8418741,sn16,552.6380911000001,554.6360322999999,570.8418741,None,True,5.0,['p'],False,0.4166666666666667,0.5,0.1666666666666666,1.0,2.0,0.9358932809493992,0.1035147319387288,succ_gain,1.0,6.0,567.7071040999999,None,sn16,2,2023-03-21_11h40.32.059,threat_forest,2021.2.3,60.22481925017943,True,22.0,0.41666666666666663,0.48333333333333334,-0.7129629629629629,-0.8114814814814815,1,0,1,0.4042378219673681,0.1035147319387288,0.4166666666666667,0.4166666666666667,0.5,0.8333333333333334,-0.4999999999999998,-0.4999999999999998,4.5,4.5,0.0,2.0,-1.0,5.0,0,0,1
16.0,0.0,16.0,0.0,4.0,0.0,4.0,0.0,,,,right,0.9705705000001216,575.6292923999999,sn16,575.6292923999999,None,572.3697001,574.3837361000001,False,6.0,['p'],True,0.2962962962962963,0.3333333333333333,0.1111111111111111,1.0,2.0,0.8325252476189534,-0.0515141556165218,wait_cost,0.0,5.0,574.3837361000001,None,sn16,2,2023-03-21_11h40.32.059,threat_forest,2021.2.3,60.22481925017943,False,22.0,0.41666666666666663,0.48333333333333334,-0.7129629629629629,-0.8114814814814815,0,0,0,-0.02987123604377694,-0.0515141556165218,0.0,0.2962962962962963,0.3333333333333333,0.8888888888888888,-1.0000000000000002,-0.925925925925926,5.074074074074074,5.074074074074074,1.0,2.0,1.0,6.0,0,0,0
16.0,0.0,16.0,0.0,5.0,0.0,5.0,0.0,,,,right,0.7021432999999888,579.5634727000001,sn16,579.5634727000001,None,572.3697001,574.3837361000001,False,5.0,['p'],True,0.2962962962962963,0.3333333333333333,0.1111111111111111,1.0,2.0,0.8325252476189534,-0.0681584362139917,wait_cost,0.0,4.0,578.6299260999999,None,sn16,2,2023-03-21_11h40.32.059,threat_forest,2021.2.3,60.22481925017943,False,22.0,0.41666666666666663,0.48333333333333334,-0.7129629629629629,-0.8114814814814815,0,0,0,-0.35361776473411954,-0.0681584362139917,0.0,0.2962962962962963,0.3333333333333333,0.8888888888888888,-1.0000000000000002,-0.925925925925926,4.074074074074074,4.074074074074074,1.0,2.0,-1.0,5.0,0,0,0
16.0,0.0,16.0,0.0,6.0,0.0,6.0,0.0,,,,right,0.6799283999998806,583.2666089999998,sn16,583.2666089999998,None,572.3697001,574.3837361000001,False,4.0,['p'],True,0.2962962962962963,0.3333333333333333,0.1111111111111111,1.0,2.0,0.8325252476189534,-0.0715020576131687,wait_cost,0.0,3.0,582.3101430000002,None,sn16,2,2023-03-21_11h40.32.059,threat_forest,2021.2.3,60.22481925017943,False,22.0,0.41666666666666663,0.48333333333333334,-0.7129629629629629,-0.8114814814814815,0,0,0,-0.38576778047362204,-0.0715020576131687,0.0,0.2962962962962963,0.3333333333333333,0.8888888888888888,-1.0000000000000002,-0.925925925925926,3.074074074074074,3.074074074074074,1.0,2.0,-1.0,4.0,0,0,0
16.0,0.0,16.0,0.0,7.0,0.0,7.0,0.0,,,,right,0.7357504000001427,586.9615115000001,sn16,586.9615115000001,None,572.3697001,574.3837361000001,False,3.0,['p'],True,0.2962962962962963,0.3333333333333333,0.1111111111111111,1.0,2.0,0.8325252476189534,-0.1111111111111111,wait_cost,0.0,2.0,585.9901049999999,None,sn16,2,2023-03-21_11h40.32.059,threat_forest,2021.2.3,60.22481925017943,False,22.0,0.41666666666666663,0.48333333333333334,-0.7129629629629629,-0.8114814814814815,0,0,0,-0.3068643482055798,-0.1111111111111111,0.0,0.2962962962962963,0.3333333333333333,0.8888888888888888,-1.0000000000000002,-0.925925925925926,2.074074074074074,2.074074074074074,1.0,2.0,-1.0,3.0,0,0,0
17.0,0.0,17.0,0.0,0.0,0.0,0.0,0.0,591.2341686999998,594.7258044,None,left,2.8939048000002003,596.9735811,sn16,596.9735811,None,591.2341686999998,594.7258044,True,5.0,['r'],True,0.4,0.4,0.0,0.0,1.0,0.6126016192893442,0.049106757699623,succ_gain,0.0,6.0,,,sn16,2,2023-03-21_11h40.32.059,threat_forest,2021.2.3,60.22481925017943,True,36.0,0.41428571428571426,0.41547619047619044,-1.083673469387755,-0.8983182161753589,1,0,1,1.0626067320221233,0.049106757699623,0.4,0.4,0.4,1.0,-0.7999999999999999,-0.7999999999999999,4.2,4.2,1.0,1.0,-1.0,5.0,0,0,1
17.0,0.0,17.0,0.0,1.0,0.0,1.0,0.0,,,,left,1.3906741999999213,605.3996082999997,sn16,599.8938210000001,601.9085129999999,605.3996082999997,None,False,6.0,['r'],False,0.3061224489795918,0.4285714285714285,0.2857142857142857,2.0,1.0,0.9885754083994552,-0.1361931246535034,wait_cost,1.0,5.0,601.9085129999999,None,sn16,2,2023-03-21_11h40.32.059,threat_forest,2021.2.3,60.22481925017943,False,36.0,0.41428571428571426,0.41547619047619044,-1.083673469387755,-0.8983182161753589,0,0,0,0.32978866552184277,-0.1361931246535034,0.3061224489795918,0.3061224489795918,0.4285714285714285,0.7142857142857143,-1.5714285714285716,-1.3673469387755102,4.63265306122449,4.63265306122449,0.0,1.0,1.0,6.0,0,0,0
17.0,0.0,17.0,0.0,2.0,0.0,2.0,0.0,,,,left,2.116885100000218,610.1612555000002,sn16,599.8938210000001,601.9085129999999,610.1612555000002,None,False,5.0,['r'],False,0.3061224489795918,0.4285714285714285,0.2857142857142857,2.0,1.0,0.9885754083994552,-0.0100264508263164,wait_cost,1.0,4.0,608.8351287,None,sn16,2,2023-03-21_11h40.32.059,threat_forest,2021.2.3,60.22481925017943,False,36.0,0.41428571428571426,0.41547619047619044,-1.083673469387755,-0.8983182161753589,0,0,0,0.7499457157625585,-0.0100264508263164,0.3061224489795918,0.3061224489795918,0.4285714285714285,0.7142857142857143,-1.5714285714285716,-1.3673469387755102,3.63265306122449,3.63265306122449,0.0,1.0,-1.0,5.0,0,0,0
17.0,0.0,17.0,0.0,3.0,0.0,3.0,0.0,,,,left,2.484058399999867,616.1239391999998,sn16,616.1239391999998,None,612.2994066000001,614.3137053,True,4.0,['r'],True,0.4,0.4,0.0,0.0,1.0,0.6126016192893442,0.0843454623498712,unsucc_cost,0.0,2.0,614.3137053,None,sn16,2,2023-03-21_11h40.32.059,threat_forest,2021.2.3,60.22481925017943,True,36.0,0.41428571428571426,0.41547619047619044,-1.083673469387755,-0.8983182161753589,1,0,1,0.9098936742618009,0.0843454623498712,0.4,0.4,0.4,1.0,-0.7999999999999999,-0.7999999999999999,3.2,3.2,1.0,1.0,-1.0,4.0,0,0,1
17.0,0.0,17.0,0.0,4.0,0.0,4.0,0.0,,,,right,0.9395832999998674,623.0334446000002,sn16,618.6262477,620.6410083000001,623.0334446000002,None,True,2.0,['r'],False,0.3061224489795918,0.4285714285714285,0.2857142857142857,2.0,1.0,0.9885754083994552,0.0296227337248934,succ_gain,1.0,3.0,620.6410083000001,None,sn16,2,2023-03-21_11h40.32.059,threat_forest,2021.2.3,60.22481925017943,True,36.0,0.41428571428571426,0.41547619047619044,-1.083673469387755,-0.8983182161753589,0,0,1,-0.06231879987611837,0.0296227337248934,0.3061224489795918,0.3061224489795918,0.4285714285714285,0.7142857142857143,-1.5714285714285716,-1.3673469387755102,0.6326530612244898,0.6326530612244898,0.0,1.0,-1.0,2.0,0,0,0
17.0,0.0,17.0,0.0,5.0,0.0,5.0,0.0,,,,left,0.9236365999995542,629.2044967999996,sn16,618.6262477,620.6410083000001,629.2044967999996,None,False,3.0,['r'],False,0.3061224489795918,0.4285714285714285,0.2857142857142857,2.0,1.0,0.9885754083994552,0.0736984589754268,wait_cost,1.0,2.0,626.0193107999999,None,sn16,2,2023-03-21_11h40.32.059,threat_forest,2021.2.3,60.22481925017943,False,36.0,0.41428571428571426,0.41547619047619044,-1.083673469387755,-0.8983182161753589,0,0,0,-0.07943657474303834,0.0736984589754268,0.3061224489795918,0.3061224489795918,0.4285714285714285,0.7142857142857143,-1.5714285714285716,-1.3673469387755102,1.6326530612244898,1.6326530612244898,0.0,1.0,1.0,3.0,0,0,0
17.0,0.0,17.0,0.0,6.0,0.0,6.0,0.0,,,,left,1.624883399999817,634.6144028000003,sn16,634.6144028000003,None,630.1493519999999,632.1633552999997,True,2.0,['r'],True,0.4,0.4,0.0,0.0,1.0,0.6126016192893442,0.046938775510204,unsucc_cost,0.0,0.0,632.1633552999997,None,sn16,2,2023-03-21_11h40.32.059,threat_forest,2021.2.3,60.22481925017943,True,36.0,0.41428571428571426,0.41547619047619044,-1.083673469387755,-0.8983182161753589,1,0,1,0.4854360593610039,0.046938775510204,0.4,0.4,0.4,1.0,-0.7999999999999999,-0.7999999999999999,1.2000000000000002,1.2000000000000002,1.0,1.0,-1.0,2.0,0,0,1
0.0,0.0,0.0,0.0,0.0,0.0,0.0,0.0,15.963065099999769,19.461273299999448,None,right,1.1823222000002716,20.709512899999936,sn16,15.963065099999769,19.461273299999448,20.709512899999936,None,True,5.0,['r'],False,0.5,0.5,0.0,0.0,1.0,0.6309297535714574,0.0653299800297634,succ_gain,1.0,6.0,,,sn16,3,2023-03-21_11h56.03.728,threat_forest,2021.2.3,60.09261473779409,True,35.0,0.5357142857142857,0.475,-0.7806122448979592,-0.9321428571428572,1,1,1,0.1674804706710378,0.0653299800297634,0.5,0.5,0.5,1.0,-0.5,-0.5,4.5,4.5,0.0,1.0,-1.0,5.0,0,1,1
0.0,0.0,0.0,0.0,1.0,0.0,1.0,0.0,,,,left,1.5450842000000191,24.93989590000001,sn16,15.963065099999769,19.461273299999448,24.93989590000001,None,False,6.0,['r'],False,0.5,0.5,0.0,0.0,1.0,0.6309297535714574,-0.0434388067740604,wait_cost,1.0,5.0,23.93575119999969,None,sn16,3,2023-03-21_11h56.03.728,threat_forest,2021.2.3,60.09261473779409,False,35.0,0.5357142857142857,0.475,-0.7806122448979592,-0.9321428571428572,1,1,0,0.43507840724661534,-0.0434388067740604,0.5,0.5,0.5,1.0,-0.5,-0.5,5.5,5.5,0.0,1.0,1.0,6.0,0,1,1
0.0,0.0,0.0,0.0,2.0,0.0,2.0,0.0,,,,right,1.073333399999683,29.20253589999993,sn16,15.963065099999769,19.461273299999448,29.20253589999993,None,True,5.0,['r'],False,0.5,0.5,0.0,0.0,1.0,0.6309297535714574,0.0981848763621676,succ_gain,1.0,6.0,28.53156390000004,None,sn16,3,2023-03-21_11h56.03.728,threat_forest,2021.2.3,60.09261473779409,True,35.0,0.5357142857142857,0.475,-0.7806122448979592,-0.9321428571428572,1,1,1,0.07076913299971124,0.0981848763621676,0.5,0.5,0.5,1.0,-0.5,-0.5,4.5,4.5,0.0,1.0,-1.0,5.0,0,1,1
0.0,0.0,0.0,0.0,3.0,0.0,3.0,0.0,,,,left,1.842410799999925,33.08184379999966,sn16,15.963065099999769,19.461273299999448,33.08184379999966,None,False,6.0,['r'],False,0.5,0.5,0.0,0.0,1.0,0.6309297535714574,-0.1560938150770512,wait_cost,1.0,5.0,32.31156279999959,None,sn16,3,2023-03-21_11h56.03.728,threat_forest,2021.2.3,60.09261473779409,False,35.0,0.5357142857142857,0.475,-0.7806122448979592,-0.9321428571428572,1,1,0,0.6110749314263525,-0.1560938150770512,0.0,0.5,0.5,1.0,-0.5,-0.5,5.5,5.5,0.0,1.0,1.0,6.0,0,1,1
0.0,0.0,0.0,0.0,4.0,0.0,4.0,0.0,,,,right,0.8027977000001556,37.70654999999988,sn16,37.70654999999988,None,34.942566599999736,36.957203499999196,False,5.0,['r'],True,0.4081632653061224,0.5714285714285714,0.2857142857142857,2.0,1.0,0.9885754083994552,-0.2605074203775637,wait_cost,0.0,4.0,36.9572034999992,None,sn16,3,2023-03-21_11h56.03.728,threat_forest,2021.2.3,60.09261473779409,False,35.0,0.5357142857142857,0.475,-0.7806122448979592,-0.9321428571428572,0,0,0,-0.2196525270364601,-0.2605074203775637,0.0,0.4081632653061224,0.5714285714285714,0.7142857142857143,-1.1428571428571428,-1.0612244897959184,3.9387755102040813,3.9387755102040813,1.0,1.0,-1.0,5.0,0,0,0
