miniblock.thisRepN,miniblock.thisTrialN,miniblock.thisN,miniblock.thisIndex,day.thisRepN,day.thisTrialN,day.thisN,day.thisIndex,forest.started,fixation_forest.started,fixation_forest.stopped,key_resp.keys,key_resp.rt,key_resp.started,Subject_ID,weather_left.started,weather_left.stopped,weather_right.started,weather_right.stopped,foraging T/F,in_LP,p/r heuristic,good_weather.T/F,p_succ_correct,p_succ_uncorrected,r_threat,n_oponents,gain_if_succ,weather_entropy,OP_value_difference,action_outcome,forest_side_L=0_R=1,out_LP,fixation_day.started,fixation_day.stopped,participant,session,date,expName,psychopyVersion,frameRate,foraging T/F NaNs,fora_NR,forest_mean_p,mvt_cutoff_p,forest_mean_ev,mvt_cutoff_ev,mvt_policy_eg,mvt_policy_p,fora_response,logRT,optimal policy,$\mathit{p}$ success cor + cap,$\mathit{p}$ success cor,$\mathit{p}$ success,risk threat encounter,expected gain naive,expected gain correct,expected state no bounds,expected state with bounds,weather type,gain magnitude,win stay lose shift,continuous energy state,binary energy state,$\mathit{p}$ success based MVT,expected gain based MVT
0.0,0.0,0.0,0.0,0.0,0.0,0.0,0.0,23.67020583152771,27.18068599700928,None,right,1.862494945526123,28.806397914886475,pt3,28.806397914886475,None,23.67020583152771,27.180685997009277,False,5.0,['r'],True,0.3333333333333333,0.3333333333333333,0.0,0.0,1.0,0.5793801642856949,0.037608671236214,wait_cost,0.0,4.0,,,pt3,1,2023-03-30_11h44.39.847,threat_forest,2021.2.3,59.81787817376163,False,28.0,0.3666666666666667,0.3666666666666667,-1.3400000000000003,-1.3400000000000003,1,0,0,0.6219169574564176,0.037608671236214,0.3333333333333333,0.3333333333333333,0.3333333333333333,1.0,-1.0000000000000002,-1.0000000000000002,4.0,4.0,1.0,1.0,,5.0,0,0,1
0.0,0.0,0.0,0.0,1.0,0.0,1.0,0.0,,,,right,1.5069639682769775,33.65680384635925,pt3,33.65680384635925,None,23.67020583152771,27.180685997009277,False,4.0,['r'],True,0.3333333333333333,0.3333333333333333,0.0,0.0,1.0,0.5793801642856949,0.047174490166255,wait_cost,0.0,3.0,32.7197539806366,None,pt3,1,2023-03-30_11h44.39.847,threat_forest,2021.2.3,59.81787817376163,False,28.0,0.3666666666666667,0.3666666666666667,-1.3400000000000003,-1.3400000000000003,1,0,0,0.410097009787835,0.047174490166255,0.3333333333333333,0.3333333333333333,0.3333333333333333,1.0,-1.0000000000000002,-1.0000000000000002,3.0,3.0,1.0,1.0,-1.0,4.0,0,0,1
0.0,0.0,0.0,0.0,2.0,0.0,2.0,0.0,,,,right,1.69504714012146,40.000216007232666,pt3,35.1946918964386,37.208069801330566,40.000216007232666,None,True,3.0,['r'],False,0.24,0.4,0.4,2.0,1.0,0.9801625908629508,0.0019563714370369,figh_cost,1.0,0.0,37.208069801330566,None,pt3,1,2023-03-30_11h44.39.847,threat_forest,2021.2.3,59.81787817376163,True,28.0,0.3666666666666667,0.3666666666666667,-1.3400000000000003,-1.3400000000000003,0,0,1,0.5277105517267844,0.0019563714370369,0.24,0.24,0.4,0.6,-2.0,-1.6800000000000002,1.3199999999999998,1.3199999999999998,0.0,1.0,-1.0,3.0,0,0,0
1.0,0.0,1.0,0.0,0.0,0.0,0.0,0.0,44.92221784591675,48.43707489967346,None,right,0.9896628856658936,50.59742283821106,pt3,44.92221784591675,48.43707489967346,50.59742283821106,None,True,5.0,['p'],False,0.4444444444444445,0.6666666666666666,0.3333333333333333,1.0,1.0,0.9656336071428248,0.0487968663670544,succ_gain,1.0,6.0,,,pt3,1,2023-03-30_11h44.39.847,threat_forest,2021.2.3,59.81787817376163,True,13.0,0.47619047619047616,0.42142857142857143,-1.2040816326530612,-1.2720408163265309,1,1,1,-0.010390913372841688,0.0487968663670544,0.4444444444444445,0.4444444444444445,0.6666666666666666,0.6666666666666667,-1.0,-1.0,4.0,4.0,0.0,1.0,-1.0,5.0,0,1,1
1.0,0.0,1.0,0.0,1.0,0.0,1.0,0.0,,,,right,1.496062994003296,56.44512581825256,pt3,44.92221784591675,48.43707489967346,56.44512581825256,None,True,6.0,['p'],False,0.4444444444444445,0.6666666666666666,0.3333333333333333,1.0,1.0,0.9656336071428248,-0.1217426439145263,succ_gain,1.0,6.0,53.62673592567444,None,pt3,1,2023-03-30_11h44.39.847,threat_forest,2021.2.3,59.81787817376163,True,13.0,0.47619047619047616,0.42142857142857143,-1.2040816326530612,-1.2720408163265309,1,1,1,0.4028369869567295,-0.1217426439145263,0.4444444444444445,0.4444444444444445,0.6666666666666666,0.6666666666666667,-1.0,-1.0,5.0,5.0,0.0,1.0,1.0,6.0,0,1,1
1.0,0.0,1.0,0.0,2.0,0.0,2.0,0.0,,,,left,1.145055055618286,63.234251976013184,pt3,44.92221784591675,48.43707489967346,63.234251976013184,None,False,6.0,['p'],False,0.4444444444444445,0.6666666666666666,0.3333333333333333,1.0,1.0,0.9656336071428248,0.0618863686432212,wait_cost,1.0,5.0,59.96694302558899,None,pt3,1,2023-03-30_11h44.39.847,threat_forest,2021.2.3,59.81787817376163,False,13.0,0.47619047619047616,0.42142857142857143,-1.2040816326530612,-1.2720408163265309,1,1,0,0.1354527193596481,0.0618863686432212,0.4444444444444445,0.4444444444444445,0.6666666666666666,0.6666666666666667,-1.0,-1.0,5.0,5.0,0.0,1.0,-1.0,6.0,0,1,1
1.0,0.0,1.0,0.0,3.0,0.0,3.0,0.0,,,,right,1.5621018409729004,69.13409900665283,pt3,69.13409900665283,None,64.408695936203,66.40771794319153,False,5.0,['p'],True,0.2448979591836734,0.2857142857142857,0.1428571428571428,1.0,1.0,0.8400769154957735,-0.0054655380765092,wait_cost,0.0,4.0,66.40771794319153,None,pt3,1,2023-03-30_11h44.39.847,threat_forest,2021.2.3,59.81787817376163,False,13.0,0.47619047619047616,0.42142857142857143,-1.2040816326530612,-1.2720408163265309,0,0,0,0.44603224837849004,-0.0054655380765092,0.2448979591836734,0.2448979591836734,0.2857142857142857,0.8571428571428572,-1.5714285714285712,-1.4081632653061225,3.5918367346938775,3.5918367346938775,1.0,1.0,-1.0,5.0,0,0,0
1.0,0.0,1.0,0.0,4.0,0.0,4.0,0.0,,,,right,1.0325849056243896,76.12161302566528,pt3,70.71807479858398,72.73148798942566,76.12161302566528,None,True,4.0,['p'],False,0.4444444444444445,0.6666666666666666,0.3333333333333333,1.0,1.0,0.9656336071428248,0.088975272648742,succ_gain,1.0,5.0,72.73148798942566,None,pt3,1,2023-03-30_11h44.39.847,threat_forest,2021.2.3,59.81787817376163,True,13.0,0.47619047619047616,0.42142857142857143,-1.2040816326530612,-1.2720408163265309,1,1,1,0.032065275522355156,0.088975272648742,0.4444444444444445,0.4444444444444445,0.6666666666666666,0.6666666666666667,-1.0,-1.0,3.0,3.0,0.0,1.0,-1.0,4.0,0,1,1
1.0,0.0,1.0,0.0,5.0,0.0,5.0,0.0,,,,left,1.182392120361328,80.95674681663513,pt3,70.71807479858398,72.73148798942566,80.95674681663513,None,False,5.0,['p'],False,0.4444444444444445,0.6666666666666666,0.3333333333333333,1.0,1.0,0.9656336071428248,-0.2018140589569161,wait_cost,1.0,4.0,79.2057478427887,None,pt3,1,2023-03-30_11h44.39.847,threat_forest,2021.2.3,59.81787817376163,False,13.0,0.47619047619047616,0.42142857142857143,-1.2040816326530612,-1.2720408163265309,1,1,0,0.16753960708381688,-0.2018140589569161,0.0,0.4444444444444445,0.6666666666666666,0.6666666666666667,-1.0,-1.0,4.0,4.0,0.0,1.0,1.0,5.0,0,1,1
1.0,0.0,1.0,0.0,6.0,0.0,6.0,0.0,,,,right,0.8672630786895752,85.30305480957031,pt3,85.30305480957031,None,82.16108083724976,84.16140580177307,False,4.0,['p'],True,0.2448979591836734,0.2857142857142857,0.1428571428571428,1.0,1.0,0.8400769154957735,-0.0936183997408486,wait_cost,0.0,3.0,84.16140580177307,None,pt3,1,2023-03-30_11h44.39.847,threat_forest,2021.2.3,59.81787817376163,False,13.0,0.47619047619047616,0.42142857142857143,-1.2040816326530612,-1.2720408163265309,0,0,0,-0.14241291260076036,-0.0936183997408486,0.0,0.2448979591836734,0.2857142857142857,0.8571428571428572,-1.5714285714285712,-1.4081632653061225,2.5918367346938775,2.5918367346938775,1.0,1.0,-1.0,4.0,0,0,0
1.0,0.0,1.0,0.0,7.0,0.0,7.0,0.0,,,,left,1.305716037750244,91.21852087974548,pt3,86.19698691368103,88.19914388656616,91.21852087974548,None,False,3.0,['p'],False,0.4444444444444445,0.6666666666666666,0.3333333333333333,1.0,1.0,0.9656336071428248,-0.3333333333333333,wait_cost,1.0,2.0,88.19914388656616,None,pt3,1,2023-03-30_11h44.39.847,threat_forest,2021.2.3,59.81787817376163,False,13.0,0.47619047619047616,0.42142857142857143,-1.2040816326530612,-1.2720408163265309,1,1,0,0.26675157823169493,-0.3333333333333333,0.0,0.4444444444444445,0.6666666666666666,0.6666666666666667,-1.0,-1.0,2.0,2.0,0.0,1.0,-1.0,3.0,0,1,1
2.0,0.0,2.0,0.0,0.0,0.0,0.0,0.0,96.30847883224487,99.8087649345398,None,right,1.356114149093628,102.975075006485,pt3,96.30847883224487,99.8087649345398,102.975075006485,None,True,5.0,['r'],False,0.4,0.4,0.0,0.0,2.0,0.6126016192893442,0.0501704926254868,unsucc_cost,1.0,3.0,,,pt3,1,2023-03-30_11h44.39.847,threat_forest,2021.2.3,59.81787817376163,True,33.0,0.41428571428571426,0.4452380952380952,-0.7306122448979593,-0.9673469387755103,1,0,1,0.3046233667227168,0.0501704926254868,0.4,0.4,0.4,1.0,-0.3999999999999999,-0.3999999999999999,4.6,4.6,0.0,2.0,-1.0,5.0,0,0,1
2.0,0.0,2.0,0.0,1.0,0.0,1.0,0.0,,,,left,1.6169500350952148,107.01427292823792,pt3,96.30847883224487,99.8087649345398,107.01427292823792,None,False,3.0,['r'],False,0.4,0.4,0.0,0.0,2.0,0.6126016192893442,0.1347766176536976,wait_cost,1.0,2.0,106.36163783073424,None,pt3,1,2023-03-30_11h44.39.847,threat_forest,2021.2.3,59.81787817376163,False,33.0,0.41428571428571426,0.4452380952380952,-0.7306122448979593,-0.9673469387755103,1,0,0,0.4805416803619749,0.1347766176536976,0.4,0.4,0.4,1.0,-0.3999999999999999,-0.3999999999999999,2.6,2.6,0.0,2.0,-1.0,3.0,0,0,1
2.0,0.0,2.0,0.0,2.0,0.0,2.0,0.0,,,,right,0.9042861461639404,111.43811798095705,pt3,96.30847883224487,99.8087649345398,111.43811798095705,None,True,2.0,['r'],False,0.4,0.4,0.0,0.0,2.0,0.6126016192893442,0.0439031270984029,succ_gain,1.0,4.0,110.67419290542604,None,pt3,1,2023-03-30_11h44.39.847,threat_forest,2021.2.3,59.81787817376163,True,33.0,0.41428571428571426,0.4452380952380952,-0.7306122448979593,-0.9673469387755103,1,0,1,-0.10060943530888708,0.0439031270984029,0.4,0.4,0.4,1.0,-0.3999999999999999,-0.3999999999999999,1.6,1.6,0.0,2.0,-1.0,2.0,0,0,1
2.0,0.0,2.0,0.0,3.0,0.0,3.0,0.0,,,,left,1.5442070960998535,115.12489295005798,pt3,115.12489295005798,None,112.3673129081726,114.37835502624512,True,4.0,['r'],True,0.3061224489795918,0.4285714285714285,0.2857142857142857,2.0,2.0,0.9885754083994552,-0.0176567392352312,figh_cost,0.0,1.0,114.37835502624512,None,pt3,1,2023-03-30_11h44.39.847,threat_forest,2021.2.3,59.81787817376163,True,33.0,0.41428571428571426,0.4452380952380952,-0.7306122448979593,-0.9673469387755103,0,0,1,0.43451057220636485,-0.0176567392352312,0.3061224489795918,0.3061224489795918,0.4285714285714285,0.7142857142857143,-1.1428571428571432,-1.0612244897959187,2.9387755102040813,2.9387755102040813,1.0,2.0,1.0,4.0,0,0,0
2.0,0.0,2.0,0.0,4.0,0.0,4.0,0.0,,,,right,0.649832010269165,121.22946882247923,pt3,116.69501686096191,118.70008301734924,121.22946882247923,None,True,1.0,['r'],False,0.4,0.4,0.0,0.0,2.0,0.6126016192893442,0.2124131611828403,unsucc_cost,1.0,0.0,118.70008301734924,None,pt3,1,2023-03-30_11h44.39.847,threat_forest,2021.2.3,59.81787817376163,True,33.0,0.41428571428571426,0.4452380952380952,-0.7306122448979593,-0.9673469387755103,1,0,1,-0.4310413952350559,0.2124131611828403,1.0,0.4,0.4,1.0,-0.3999999999999999,-0.3999999999999999,0.6000000000000001,0.6000000000000001,0.0,2.0,-1.0,1.0,1,0,1
3.0,0.0,3.0,0.0,0.0,0.0,0.0,0.0,125.26094198226927,128.76130986213684,None,right,0.8738958835601807,131.75351190567017,pt3,125.26094198226927,128.76130986213684,131.75351190567017,None,True,4.0,['p'],False,0.4444444444444445,0.6666666666666666,0.3333333333333333,1.0,2.0,0.9656336071428248,0.0696585132666405,succ_gain,1.0,6.0,,,pt3,1,2023-03-30_11h44.39.847,threat_forest,2021.2.3,59.81787817376163,True,29.0,0.47619047619047616,0.4452380952380952,-0.8594104308390023,-0.7950113378684808,1,0,1,-0.1347940367840595,0.0696585132666405,0.4444444444444445,0.4444444444444445,0.6666666666666666,0.6666666666666667,-0.3333333333333335,-0.5555555555555556,3.4444444444444446,3.4444444444444446,0.0,2.0,-1.0,4.0,0,0,1
3.0,0.0,3.0,0.0,1.0,0.0,1.0,0.0,,,,right,1.2506568431854248,137.6055920124054,pt3,137.6055920124054,None,132.65363693237305,134.66796588897705,False,6.0,['p'],True,0.2448979591836734,0.2857142857142857,0.1428571428571428,1.0,2.0,0.8400769154957735,-0.0717249489552175,wait_cost,0.0,5.0,134.66796588897705,None,pt3,1,2023-03-30_11h44.39.847,threat_forest,2021.2.3,59.81787817376163,False,29.0,0.47619047619047616,0.4452380952380952,-0.8594104308390023,-0.7950113378684808,0,0,0,0.22366888784914535,-0.0717249489552175,0.2448979591836734,0.2448979591836734,0.2857142857142857,0.8571428571428572,-1.2857142857142856,-1.163265306122449,4.836734693877551,4.836734693877551,1.0,2.0,1.0,6.0,0,0,0
3.0,0.0,3.0,0.0,2.0,0.0,2.0,0.0,,,,right,1.419502019882202,141.673565864563,pt3,141.673565864563,None,132.65363693237305,134.66796588897705,False,5.0,['p'],True,0.2448979591836734,0.2857142857142857,0.1428571428571428,1.0,2.0,0.8400769154957735,-0.0053927091035934,wait_cost,0.0,4.0,140.87484002113342,None,pt3,1,2023-03-30_11h44.39.847,threat_forest,2021.2.3,59.81787817376163,False,29.0,0.47619047619047616,0.4452380952380952,-0.8594104308390023,-0.7950113378684808,0,0,0,0.3503061198831712,-0.0053927091035934,0.2448979591836734,0.2448979591836734,0.2857142857142857,0.8571428571428572,-1.2857142857142856,-1.163265306122449,3.836734693877551,3.836734693877551,1.0,2.0,-1.0,5.0,0,0,0
3.0,0.0,3.0,0.0,3.0,0.0,3.0,0.0,,,,right,0.9448039531707764,147.98520398139954,pt3,143.11510300636292,145.113538980484,147.98520398139954,None,True,4.0,['p'],False,0.4444444444444445,0.6666666666666666,0.3333333333333333,1.0,2.0,0.9656336071428248,0.0997659825764223,succ_gain,1.0,6.0,145.113538980484,None,pt3,1,2023-03-30_11h44.39.847,threat_forest,2021.2.3,59.81787817376163,True,29.0,0.47619047619047616,0.4452380952380952,-0.8594104308390023,-0.7950113378684808,1,0,1,-0.056777829972707944,0.0997659825764223,0.4444444444444445,0.4444444444444445,0.6666666666666666,0.6666666666666667,-0.3333333333333335,-0.5555555555555556,3.4444444444444446,3.4444444444444446,0.0,2.0,-1.0,4.0,0,0,1
3.0,0.0,3.0,0.0,4.0,0.0,4.0,0.0,,,,right,0.6448078155517578,154.34190392494202,pt3,154.34190392494202,None,148.95434379577637,150.95403480529785,False,6.0,['p'],True,0.2448979591836734,0.2857142857142857,0.1428571428571428,1.0,2.0,0.8400769154957735,-0.0730743436560456,wait_cost,0.0,5.0,150.95403480529785,None,pt3,1,2023-03-30_11h44.39.847,threat_forest,2021.2.3,59.81787817376163,False,29.0,0.47619047619047616,0.4452380952380952,-0.8594104308390023,-0.7950113378684808,0,0,0,-0.4388029669702513,-0.0730743436560456,0.0,0.2448979591836734,0.2857142857142857,0.8571428571428572,-1.2857142857142856,-1.163265306122449,4.836734693877551,4.836734693877551,1.0,2.0,1.0,6.0,0,0,0
3.0,0.0,3.0,0.0,5.0,0.0,5.0,0.0,,,,left,1.762052059173584,160.21927285194397,pt3,155.01062202453613,157.0100438594818,160.21927285194397,None,False,5.0,['p'],False,0.4444444444444445,0.6666666666666666,0.3333333333333333,1.0,2.0,0.9656336071428248,-0.2018140589569161,wait_cost,1.0,4.0,157.0100438594818,None,pt3,1,2023-03-30_11h44.39.847,threat_forest,2021.2.3,59.81787817376163,False,29.0,0.47619047619047616,0.4452380952380952,-0.8594104308390023,-0.7950113378684808,1,0,0,0.5664790725789945,-0.2018140589569161,0.0,0.4444444444444445,0.6666666666666666,0.6666666666666667,-0.3333333333333335,-0.5555555555555556,4.444444444444445,4.444444444444445,0.0,2.0,-1.0,5.0,0,0,1
3.0,0.0,3.0,0.0,6.0,0.0,6.0,0.0,,,,right,1.289630889892578,164.72071981430054,pt3,164.72071981430054,None,162.00560998916626,164.01786994934082,False,4.0,['p'],True,0.2448979591836734,0.2857142857142857,0.1428571428571428,1.0,2.0,0.8400769154957735,-0.0936183997408486,wait_cost,0.0,3.0,164.01786994934082,None,pt3,1,2023-03-30_11h44.39.847,threat_forest,2021.2.3,59.81787817376163,False,29.0,0.47619047619047616,0.4452380952380952,-0.8594104308390023,-0.7950113378684808,0,0,0,0.2543560455638293,-0.0936183997408486,0.0,0.2448979591836734,0.2857142857142857,0.8571428571428572,-1.2857142857142856,-1.163265306122449,2.836734693877551,2.836734693877551,1.0,2.0,-1.0,4.0,0,0,0
3.0,0.0,3.0,0.0,7.0,0.0,7.0,0.0,,,,right,0.6552538871765137,170.34200191497803,pt3,170.34200191497803,None,162.00560998916626,164.01786994934082,False,3.0,['p'],True,0.2448979591836734,0.2857142857142857,0.1428571428571428,1.0,2.0,0.8400769154957735,-0.1428571428571428,wait_cost,0.0,2.0,168.03865480422974,None,pt3,1,2023-03-30_11h44.39.847,threat_forest,2021.2.3,59.81787817376163,False,29.0,0.47619047619047616,0.4452380952380952,-0.8594104308390023,-0.7950113378684808,0,0,0,-0.4227325044398443,-0.1428571428571428,0.0,0.2448979591836734,0.2857142857142857,0.8571428571428572,-1.2857142857142856,-1.163265306122449,1.836734693877551,1.836734693877551,1.0,2.0,-1.0,3.0,0,0,0
4.0,0.0,4.0,0.0,0.0,0.0,0.0,0.0,175.0575728416443,178.56701493263245,None,right,0.9510340690612792,181.2289538383484,pt3,175.0575728416443,178.56701493263245,181.2289538383484,None,True,5.0,['p'],False,0.32,0.4,0.2,1.0,2.0,0.9455672104350704,0.02103847866381,succ_gain,1.0,6.0,,,pt3,1,2023-03-30_11h44.39.847,threat_forest,2021.2.3,59.81787817376163,True,12.0,0.3111111111111111,0.39365079365079364,-1.1204938271604938,-0.989952128999748,1,0,1,-0.05020539261861751,0.02103847866381,0.32,0.32,0.4,0.8,-1.0,-0.92,4.08,4.08,0.0,2.0,-1.0,5.0,0,0,1
4.0,0.0,4.0,0.0,1.0,0.0,1.0,0.0,,,,right,0.7952010631561279,186.31616687774655,pt3,186.31616687774655,None,182.2090167999268,184.22357082366943,False,6.0,['p'],True,0.1975308641975308,0.2222222222222222,0.1111111111111111,1.0,2.0,0.7461067557824965,-0.0857974019845032,wait_cost,0.0,5.0,184.22357082366943,None,pt3,1,2023-03-30_11h44.39.847,threat_forest,2021.2.3,59.81787817376163,False,12.0,0.3111111111111111,0.39365079365079364,-1.1204938271604938,-0.989952128999748,0,0,0,-0.22916028667370483,-0.0857974019845032,0.1975308641975308,0.1975308641975308,0.2222222222222222,0.8888888888888888,-1.4444444444444444,-1.3209876543209877,4.679012345679013,4.679012345679013,1.0,2.0,1.0,6.0,0,0,0
4.0,0.0,4.0,0.0,2.0,0.0,2.0,0.0,,,,left,2.3089771270751958,192.53494691848755,pt3,187.13413190841675,189.14603400230408,192.53494691848755,None,False,5.0,['p'],False,0.32,0.4,0.2,1.0,2.0,0.9455672104350704,0.0588641611795491,wait_cost,1.0,4.0,189.14603400230408,None,pt3,1,2023-03-30_11h44.39.847,threat_forest,2021.2.3,59.81787817376163,False,12.0,0.3111111111111111,0.39365079365079364,-1.1204938271604938,-0.989952128999748,1,0,0,0.836804624335938,0.0588641611795491,0.32,0.32,0.4,0.8,-1.0,-0.92,4.08,4.08,0.0,2.0,-1.0,5.0,0,0,1
4.0,0.0,4.0,0.0,3.0,0.0,3.0,0.0,,,,left,1.917054891586304,198.4882459640503,pt3,187.13413190841675,189.14603400230408,198.4882459640503,None,False,4.0,['p'],False,0.32,0.4,0.2,1.0,2.0,0.9455672104350704,0.0698200591614121,wait_cost,1.0,3.0,196.87171602249143,None,pt3,1,2023-03-30_11h44.39.847,threat_forest,2021.2.3,59.81787817376163,False,12.0,0.3111111111111111,0.39365079365079364,-1.1204938271604938,-0.989952128999748,1,0,0,0.6507900977622206,0.0698200591614121,0.32,0.32,0.4,0.8,-1.0,-0.92,3.08,3.08,0.0,2.0,-1.0,4.0,0,0,1
4.0,0.0,4.0,0.0,4.0,0.0,4.0,0.0,,,,right,2.4977259635925293,205.882994890213,pt3,205.882994890213,None,200.4328498840332,202.44412684440613,False,3.0,['p'],True,0.1975308641975308,0.2222222222222222,0.1111111111111111,1.0,2.0,0.7461067557824965,0.0870477061423563,wait_cost,0.0,2.0,202.44412684440613,None,pt3,1,2023-03-30_11h44.39.847,threat_forest,2021.2.3,59.81787817376163,False,12.0,0.3111111111111111,0.39365079365079364,-1.1204938271604938,-0.989952128999748,0,0,0,0.9153807033607976,0.0870477061423563,0.1975308641975308,0.1975308641975308,0.2222222222222222,0.8888888888888888,-1.4444444444444444,-1.3209876543209877,1.6790123456790123,1.6790123456790123,1.0,2.0,-1.0,3.0,0,0,0
4.0,0.0,4.0,0.0,5.0,0.0,5.0,0.0,,,,right,0.7221360206604004,213.5906479358673,pt3,208.40720391273496,210.41986083984375,213.5906479358673,None,True,2.0,['p'],False,0.32,0.4,0.2,1.0,2.0,0.9455672104350704,0.0612345679012346,figh_cost,1.0,0.0,210.41986083984372,None,pt3,1,2023-03-30_11h44.39.847,threat_forest,2021.2.3,59.81787817376163,True,12.0,0.3111111111111111,0.39365079365079364,-1.1204938271604938,-0.989952128999748,1,0,1,-0.3255417635667996,0.0612345679012346,0.32,0.32,0.4,0.8,-1.0,-0.92,1.08,1.08,0.0,2.0,-1.0,2.0,0,0,1
5.0,0.0,5.0,0.0,0.0,0.0,0.0,0.0,219.10201501846316,222.61682987213132,None,right,1.4861059188842771,223.74379587173465,pt3,219.10201501846316,222.61682987213135,223.74379587173465,None,True,5.0,['p'],False,0.4444444444444445,0.6666666666666666,0.3333333333333333,1.0,1.0,0.9656336071428248,0.0468159241685405,unsucc_cost,1.0,3.0,,,pt3,1,2023-03-30_11h44.39.847,threat_forest,2021.2.3,59.81787817376163,True,23.0,0.43333333333333335,0.37222222222222223,-1.3600000000000003,-1.240246913580247,1,1,1,0.39615922160486844,0.0468159241685405,0.4444444444444445,0.4444444444444445,0.6666666666666666,0.6666666666666667,-1.0,-1.0,4.0,4.0,0.0,1.0,-1.0,5.0,0,1,1
5.0,0.0,5.0,0.0,1.0,0.0,1.0,0.0,,,,right,0.7124309539794922,228.39055180549624,pt3,219.10201501846316,222.61682987213135,228.39055180549624,None,True,3.0,['p'],False,0.4444444444444445,0.6666666666666666,0.3333333333333333,1.0,1.0,0.9656336071428248,0.0515660479037183,succ_gain,1.0,4.0,227.27170085906985,None,pt3,1,2023-03-30_11h44.39.847,threat_forest,2021.2.3,59.81787817376163,True,23.0,0.43333333333333335,0.37222222222222223,-1.3600000000000003,-1.240246913580247,1,1,1,-0.3390722782305382,0.0515660479037183,0.4444444444444445,0.4444444444444445,0.6666666666666666,0.6666666666666667,-1.0,-1.0,2.0,2.0,0.0,1.0,-1.0,3.0,0,1,1
5.0,0.0,5.0,0.0,2.0,0.0,2.0,0.0,,,,right,0.8683469295501709,234.01654601097107,pt3,234.01654601097107,None,229.13821387290955,231.14340496063232,False,4.0,['p'],True,0.16,0.2,0.2,2.0,1.0,0.8198746470064713,-0.0089819439719553,wait_cost,0.0,3.0,231.14340496063232,None,pt3,1,2023-03-30_11h44.39.847,threat_forest,2021.2.3,59.81787817376163,False,23.0,0.43333333333333335,0.37222222222222223,-1.3600000000000003,-1.240246913580247,0,0,0,-0.14116395575407115,-0.0089819439719553,0.16,0.16,0.2,0.8,-2.0,-1.7200000000000004,2.2799999999999994,2.2799999999999994,1.0,1.0,1.0,4.0,0,0,0
5.0,0.0,5.0,0.0,3.0,0.0,3.0,0.0,,,,right,1.0815708637237549,237.9529869556427,pt3,237.9529869556427,None,229.13821387290955,231.14340496063232,False,3.0,['p'],True,0.16,0.2,0.2,2.0,1.0,0.8198746470064713,-0.0019314128943759,wait_cost,0.0,2.0,236.9264550209045,None,pt3,1,2023-03-30_11h44.39.847,threat_forest,2021.2.3,59.81787817376163,False,23.0,0.43333333333333335,0.37222222222222223,-1.3600000000000003,-1.240246913580247,0,0,0,0.07841448781849816,-0.0019314128943759,0.16,0.16,0.2,0.8,-2.0,-1.7200000000000004,1.2799999999999996,1.2799999999999996,1.0,1.0,-1.0,3.0,0,0,0
5.0,0.0,5.0,0.0,4.0,0.0,4.0,0.0,,,,right,0.9114959239959716,243.42937898635864,pt3,239.0534420013428,241.05397391319275,243.42937898635864,None,True,2.0,['p'],False,0.4444444444444445,0.6666666666666666,0.3333333333333333,1.0,1.0,0.9656336071428248,0.0838233196159121,figh_cost,1.0,0.0,241.05397391319275,None,pt3,1,2023-03-30_11h44.39.847,threat_forest,2021.2.3,59.81787817376163,True,23.0,0.43333333333333335,0.37222222222222223,-1.3600000000000003,-1.240246913580247,1,1,1,-0.09266815662770007,0.0838233196159121,0.4444444444444445,0.4444444444444445,0.6666666666666666,0.6666666666666667,-1.0,-1.0,1.0,1.0,0.0,1.0,-1.0,2.0,0,1,1
6.0,0.0,6.0,0.0,0.0,0.0,0.0,0.0,249.06300592422485,252.56688594818115,None,left,2.4373459815979004,254.34650301933289,pt3,254.34650301933289,None,249.06300592422485,252.56688594818115,True,4.0,['r'],True,0.3333333333333333,0.5,0.3333333333333333,2.0,1.0,1.0,0.0143529277549154,unsucc_cost,0.0,2.0,,,pt3,1,2023-03-30_11h44.39.847,threat_forest,2021.2.3,59.81787817376163,True,7.0,0.45,0.44166666666666665,-1.0666666666666667,-1.2133333333333334,0,0,1,0.8909097348567214,0.0143529277549154,0.3333333333333333,0.3333333333333333,0.5,0.6666666666666667,-1.5,-1.3333333333333335,2.6666666666666665,2.6666666666666665,1.0,1.0,-1.0,4.0,0,0,0
6.0,0.0,6.0,0.0,1.0,0.0,1.0,0.0,,,,right,1.0567500591278076,262.24345898628235,pt3,262.24345898628235,None,249.06300592422485,252.56688594818115,False,2.0,['r'],True,0.3333333333333333,0.5,0.3333333333333333,2.0,1.0,1.0,0.0118452194787379,wait_cost,0.0,1.0,258.84122490882874,None,pt3,1,2023-03-30_11h44.39.847,threat_forest,2021.2.3,59.81787817376163,False,7.0,0.45,0.44166666666666665,-1.0666666666666667,-1.2133333333333334,0,0,0,0.05519821641726374,0.0118452194787379,0.3333333333333333,0.3333333333333333,0.5,0.6666666666666667,-1.5,-1.3333333333333335,0.6666666666666665,0.6666666666666665,1.0,1.0,-1.0,2.0,0,0,0
6.0,0.0,6.0,0.0,2.0,0.0,2.0,0.0,,,,right,0.7466268539428711,265.9538719654083,pt3,263.3297829627991,265.3318839073181,265.9538719654083,None,True,1.0,['r'],False,0.4,0.4,0.0,0.0,1.0,0.6126016192893442,0.0636288888888888,unsucc_cost,1.0,0.0,265.3318839073181,None,pt3,1,2023-03-30_11h44.39.847,threat_forest,2021.2.3,59.81787817376163,True,7.0,0.45,0.44166666666666665,-1.0666666666666667,-1.2133333333333334,1,0,1,-0.2921897448349818,0.0636288888888888,1.0,0.4,0.4,1.0,-0.7999999999999999,-0.7999999999999999,0.20000000000000007,0.20000000000000007,0.0,1.0,-1.0,1.0,1,0,1
7.0,0.0,7.0,0.0,0.0,0.0,0.0,0.0,272.1117949485779,275.6262919902801,None,left,2.049962043762207,276.2035279273987,pt3,276.2035279273987,None,272.1117949485779,275.62629199028015,True,5.0,['p'],True,0.375,0.5,0.25,1.0,1.0,0.9850568223215076,0.0395346585071088,figh_cost,0.0,2.0,,,pt3,1,2023-03-30_11h44.39.847,threat_forest,2021.2.3,59.81787817376163,True,50.0,0.35,0.4,-1.2625000000000002,-1.1645833333333333,1,0,1,0.7178212777409599,0.0395346585071088,0.375,0.375,0.5,0.75,-1.25,-1.125,3.875,3.875,1.0,1.0,-1.0,5.0,0,0,1
7.0,0.0,7.0,0.0,1.0,0.0,1.0,0.0,,,,left,0.9316158294677734,282.68840885162354,pt3,278.288614988327,280.2985198497772,282.68840885162354,None,False,2.0,['p'],False,0.2,0.2,0.0,0.0,1.0,0.4554859150035951,-0.0051644691467286,wait_cost,1.0,1.0,280.2985198497772,None,pt3,1,2023-03-30_11h44.39.847,threat_forest,2021.2.3,59.81787817376163,False,50.0,0.35,0.4,-1.2625000000000002,-1.1645833333333333,0,0,0,-0.07083474941625106,-0.0051644691467286,0.2,0.2,0.2,1.0,-1.4000000000000001,-1.4000000000000001,0.5999999999999999,0.5999999999999999,0.0,1.0,-1.0,2.0,0,0,0
7.0,0.0,7.0,0.0,2.0,0.0,2.0,0.0,,,,left,0.5842649936676025,287.59035897254944,pt3,287.59035897254944,None,283.65792179107666,285.67163491249084,True,1.0,['p'],True,0.375,0.5,0.25,1.0,1.0,0.9850568223215076,0.0439410781860352,succ_gain,0.0,2.0,285.67163491249084,None,pt3,1,2023-03-30_11h44.39.847,threat_forest,2021.2.3,59.81787817376163,True,50.0,0.35,0.4,-1.2625000000000002,-1.1645833333333333,1,0,1,-0.5374006427900181,0.0439410781860352,1.0,0.375,0.5,0.75,-1.25,-1.125,-0.125,0.0,1.0,1.0,-1.0,1.0,1,0,1
7.0,0.0,7.0,0.0,3.0,0.0,3.0,0.0,,,,right,1.642836093902588,291.33000588417053,pt3,288.19791197776794,290.2102298736572,291.33000588417053,None,True,2.0,['p'],False,0.2,0.2,0.0,0.0,1.0,0.4554859150035951,-0.0210380859375,unsucc_cost,1.0,0.0,290.2102298736572,None,pt3,1,2023-03-30_11h44.39.847,threat_forest,2021.2.3,59.81787817376163,True,50.0,0.35,0.4,-1.2625000000000002,-1.1645833333333333,0,0,1,0.49642407382469106,-0.0210380859375,0.2,0.2,0.2,1.0,-1.4000000000000001,-1.4000000000000001,0.5999999999999999,0.5999999999999999,0.0,1.0,1.0,2.0,0,0,0
8.0,0.0,8.0,0.0,0.0,0.0,0.0,0.0,297.5075008869171,301.0222749710083,None,left,1.182484149932861,302.0295088291168,pt3,302.0295088291168,None,297.5075008869171,301.0222749710083,True,4.0,['p'],True,0.4166666666666667,0.5,0.1666666666666666,1.0,2.0,0.9358932809493992,0.0524876732571487,unsucc_cost,0.0,2.0,,,pt3,1,2023-03-30_11h44.39.847,threat_forest,2021.2.3,59.81787817376163,True,22.0,0.41666666666666663,0.3833333333333333,-0.7129629629629629,-0.9877314814814815,1,1,1,0.1676174374318445,0.0524876732571487,0.4166666666666667,0.4166666666666667,0.5,0.8333333333333334,-0.4999999999999998,-0.4999999999999998,3.5,3.5,1.0,2.0,-1.0,4.0,0,1,1
8.0,0.0,8.0,0.0,1.0,0.0,1.0,0.0,,,,left,2.395336151123047,308.5469620227814,pt3,308.5469620227814,None,297.5075008869171,301.0222749710083,True,2.0,['p'],True,0.4166666666666667,0.5,0.1666666666666666,1.0,2.0,0.9358932809493992,0.0455069422842053,succ_gain,0.0,4.0,305.26101183891296,None,pt3,1,2023-03-30_11h44.39.847,threat_forest,2021.2.3,59.81787817376163,True,22.0,0.41666666666666663,0.3833333333333333,-0.7129629629629629,-0.9877314814814815,1,1,1,0.8735235763889518,0.0455069422842053,0.4166666666666667,0.4166666666666667,0.5,0.8333333333333334,-0.4999999999999998,-0.4999999999999998,1.5000000000000002,1.5000000000000002,1.0,2.0,-1.0,2.0,0,1,1
8.0,0.0,8.0,0.0,2.0,0.0,2.0,0.0,,,,right,1.4741768836975098,315.1303298473358,pt3,310.97481989860535,312.98642683029175,315.1303298473358,None,True,4.0,['p'],False,0.2962962962962963,0.3333333333333333,0.1111111111111111,1.0,2.0,0.8325252476189534,-0.0045686299615397,unsucc_cost,1.0,2.0,312.98642683029175,None,pt3,1,2023-03-30_11h44.39.847,threat_forest,2021.2.3,59.81787817376163,True,22.0,0.41666666666666663,0.3833333333333333,-0.7129629629629629,-0.9877314814814815,1,0,1,0.38809978907590675,-0.0045686299615397,0.2962962962962963,0.2962962962962963,0.3333333333333333,0.8888888888888888,-1.0000000000000002,-0.925925925925926,3.074074074074074,3.074074074074074,0.0,2.0,1.0,4.0,0,0,1
8.0,0.0,8.0,0.0,3.0,0.0,3.0,0.0,,,,left,1.3729441165924072,320.9458658695221,pt3,320.9458658695221,None,316.62957096099854,318.64267086982727,True,2.0,['p'],True,0.4166666666666667,0.5,0.1666666666666666,1.0,2.0,0.9358932809493992,0.0592387386958288,unsucc_cost,0.0,0.0,318.64267086982727,None,pt3,1,2023-03-30_11h44.39.847,threat_forest,2021.2.3,59.81787817376163,True,22.0,0.41666666666666663,0.3833333333333333,-0.7129629629629629,-0.9877314814814815,1,1,1,0.3169574242768042,0.0592387386958288,0.4166666666666667,0.4166666666666667,0.5,0.8333333333333334,-0.4999999999999998,-0.4999999999999998,1.5000000000000002,1.5000000000000002,1.0,2.0,-1.0,2.0,0,1,1
9.0,0.0,9.0,0.0,0.0,0.0,0.0,0.0,326.97267293930054,330.47323989868164,None,right,1.1874399185180664,332.8347158432007,pt3,326.97267293930054,330.47323989868164,332.8347158432007,None,True,5.0,['r'],False,0.6,0.6,0.0,0.0,2.0,0.6126016192893442,0.0562706701368849,succ_gain,1.0,6.0,,,pt3,1,2023-03-30_11h44.39.847,threat_forest,2021.2.3,59.81787817376163,True,62.0,0.6125,0.5145833333333334,0.012499999999999956,-0.3502314814814815,1,1,1,0.17179966071453787,0.0562706701368849,0.6,0.6,0.6,1.0,0.3999999999999999,0.3999999999999999,5.4,5.4,0.0,2.0,-1.0,5.0,0,1,1
9.0,0.0,9.0,0.0,1.0,0.0,1.0,0.0,,,,right,0.9116837978363036,339.54079389572144,pt3,339.54079389572144,None,334.0537660121918,336.0628550052643,False,6.0,['r'],True,0.46875,0.625,0.25,2.0,2.0,0.9634951148421658,-0.056437416691035,wait_cost,0.0,5.0,336.0628550052643,None,pt3,1,2023-03-30_11h44.39.847,threat_forest,2021.2.3,59.81787817376163,False,62.0,0.6125,0.5145833333333334,0.012499999999999956,-0.3502314814814815,0,0,0,-0.09246206192540905,-0.056437416691035,0.46875,0.46875,0.625,0.75,-0.25,-0.375,5.625,5.625,1.0,2.0,1.0,6.0,0,0,0
9.0,0.0,9.0,0.0,2.0,0.0,2.0,0.0,,,,right,1.5928730964660645,344.0056059360504,pt3,340.4871518611908,342.4866979122162,344.0056059360504,None,True,5.0,['r'],False,0.6,0.6,0.0,0.0,2.0,0.6126016192893442,0.0904835319900512,succ_gain,1.0,6.0,342.4866979122162,None,pt3,1,2023-03-30_11h44.39.847,threat_forest,2021.2.3,59.81787817376163,True,62.0,0.6125,0.5145833333333334,0.012499999999999956,-0.3502314814814815,1,1,1,0.465539364519263,0.0904835319900512,0.6,0.6,0.6,1.0,0.3999999999999999,0.3999999999999999,5.4,5.4,0.0,2.0,-1.0,5.0,0,1,1
9.0,0.0,9.0,0.0,3.0,0.0,3.0,0.0,,,,right,1.9783520698547363,351.22024393081665,pt3,351.22024393081665,None,345.6278529167176,347.64278292655945,False,6.0,['r'],True,0.46875,0.625,0.25,2.0,2.0,0.9634951148421658,-0.1287342834472656,wait_cost,0.0,5.0,347.64278292655945,None,pt3,1,2023-03-30_11h44.39.847,threat_forest,2021.2.3,59.81787817376163,False,62.0,0.6125,0.5145833333333334,0.012499999999999956,-0.3502314814814815,0,0,0,0.6822642102103766,-0.1287342834472656,0.0,0.46875,0.625,0.75,-0.25,-0.375,5.625,5.625,1.0,2.0,1.0,6.0,0,0,0
9.0,0.0,9.0,0.0,4.0,0.0,4.0,0.0,,,,left,2.900887012481689,356.2541229724884,pt3,353.2186858654022,355.21785593032837,356.2541229724884,None,False,5.0,['r'],False,0.6,0.6,0.0,0.0,2.0,0.6126016192893442,-0.11344140625,wait_cost,1.0,4.0,355.2178559303284,None,pt3,1,2023-03-30_11h44.39.847,threat_forest,2021.2.3,59.81787817376163,False,62.0,0.6125,0.5145833333333334,0.012499999999999956,-0.3502314814814815,1,1,0,1.0650165565978416,-0.11344140625,0.0,0.6,0.6,1.0,0.3999999999999999,0.3999999999999999,5.4,5.4,0.0,2.0,-1.0,5.0,0,1,1
9.0,0.0,9.0,0.0,5.0,0.0,5.0,0.0,,,,left,1.645050048828125,364.4292538166046,pt3,353.2186858654022,355.21785593032837,364.4292538166046,None,False,4.0,['r'],False,0.6,0.6,0.0,0.0,2.0,0.6126016192893442,-0.173125,wait_cost,1.0,3.0,361.1753129959106,None,pt3,1,2023-03-30_11h44.39.847,threat_forest,2021.2.3,59.81787817376163,False,62.0,0.6125,0.5145833333333334,0.012499999999999956,-0.3502314814814815,1,1,0,0.49777080857403866,-0.173125,0.0,0.6,0.6,1.0,0.3999999999999999,0.3999999999999999,4.4,4.4,0.0,2.0,-1.0,4.0,0,1,1
9.0,0.0,9.0,0.0,6.0,0.0,6.0,0.0,,,,left,0.9650590419769288,370.500097990036,pt3,353.2186858654022,355.21785593032837,370.500097990036,None,False,3.0,['r'],False,0.6,0.6,0.0,0.0,2.0,0.6126016192893442,-0.18625,wait_cost,1.0,2.0,368.1046769618988,None,pt3,1,2023-03-30_11h44.39.847,threat_forest,2021.2.3,59.81787817376163,False,62.0,0.6125,0.5145833333333334,0.012499999999999956,-0.3502314814814815,1,1,0,-0.03556599611899758,-0.18625,0.0,0.6,0.6,1.0,0.3999999999999999,0.3999999999999999,3.4,3.4,0.0,2.0,-1.0,3.0,0,1,1
9.0,0.0,9.0,0.0,7.0,0.0,7.0,0.0,,,,right,1.2160000801086426,376.1626679897308,pt3,376.1626679897308,None,371.4915390014648,373.50627994537354,False,2.0,['r'],True,0.46875,0.625,0.25,2.0,2.0,0.9634951148421658,-0.53125,wait_cost,0.0,1.0,373.5062799453736,None,pt3,1,2023-03-30_11h44.39.847,threat_forest,2021.2.3,59.81787817376163,False,62.0,0.6125,0.5145833333333334,0.012499999999999956,-0.3502314814814815,0,0,0,0.195566849422791,-0.53125,0.0,0.46875,0.625,0.75,-0.25,-0.375,1.625,1.625,1.0,2.0,-1.0,2.0,0,0,0
10.0,0.0,10.0,0.0,0.0,0.0,0.0,0.0,380.5005648136139,383.9985008239746,None,left,1.4134418964385986,387.1481659412384,pt3,387.1481659412384,None,380.5005648136139,383.9985008239746,True,5.0,['r'],True,0.3333333333333333,0.3333333333333333,0.0,0.0,2.0,0.5793801642856949,0.0388172421765338,succ_gain,0.0,6.0,,,pt3,1,2023-03-30_11h44.39.847,threat_forest,2021.2.3,59.81787817376163,True,10.0,0.35416666666666663,0.48333333333333334,-0.8958333333333335,-0.44166666666666676,0,0,1,0.3460277911436259,0.0388172421765338,0.3333333333333333,0.3333333333333333,0.3333333333333333,1.0,-0.6666666666666669,-0.6666666666666669,4.333333333333333,4.333333333333333,1.0,2.0,-1.0,5.0,0,0,0
10.0,0.0,10.0,0.0,1.0,0.0,1.0,0.0,,,,right,1.3138201236724854,392.707799911499,pt3,392.707799911499,None,380.5005648136139,383.9985008239746,False,6.0,['r'],True,0.3333333333333333,0.3333333333333333,0.0,0.0,2.0,0.5793801642856949,-0.059542589226868,wait_cost,0.0,5.0,390.6089329719544,None,pt3,1,2023-03-30_11h44.39.847,threat_forest,2021.2.3,59.81787817376163,False,10.0,0.35416666666666663,0.48333333333333334,-0.8958333333333335,-0.44166666666666676,0,0,0,0.27293901850954977,-0.059542589226868,0.3333333333333333,0.3333333333333333,0.3333333333333333,1.0,-0.6666666666666669,-0.6666666666666669,5.333333333333333,5.333333333333333,1.0,2.0,1.0,6.0,0,0,0
10.0,0.0,10.0,0.0,2.0,0.0,2.0,0.0,,,,None,,398.8520448207855,pt3,398.8520448207855,None,380.5005648136139,383.9985008239746,False,5.0,['r'],True,0.3333333333333333,0.3333333333333333,0.0,0.0,2.0,0.5793801642856949,0.0799125393722283,wait_cost,0.0,4.0,396.0651888847351,None,pt3,1,2023-03-30_11h44.39.847,threat_forest,2021.2.3,59.81787817376163,None,10.0,0.35416666666666663,0.48333333333333334,-0.8958333333333335,-0.44166666666666676,0,0,0,,0.0799125393722283,0.3333333333333333,0.3333333333333333,0.3333333333333333,1.0,-0.6666666666666669,-0.6666666666666669,4.333333333333333,4.333333333333333,1.0,2.0,-1.0,5.0,0,0,0
10.0,0.0,10.0,0.0,3.0,0.0,3.0,0.0,,,,left,1.5896480083465576,404.9228358268738,pt3,404.9228358268738,None,380.5005648136139,383.9985008239746,True,4.0,['r'],True,0.3333333333333333,0.3333333333333333,0.0,0.0,2.0,0.5793801642856949,0.0651312934027776,unsucc_cost,0.0,2.0,403.8741447925568,None,pt3,1,2023-03-30_11h44.39.847,threat_forest,2021.2.3,59.81787817376163,True,10.0,0.35416666666666663,0.48333333333333334,-0.8958333333333335,-0.44166666666666676,0,0,1,0.463512613325934,0.0651312934027776,0.3333333333333333,0.3333333333333333,0.3333333333333333,1.0,-0.6666666666666669,-0.6666666666666669,3.333333333333333,3.333333333333333,1.0,2.0,-1.0,4.0,0,0,0
10.0,0.0,10.0,0.0,4.0,0.0,4.0,0.0,,,,left,1.1191768646240234,410.7989349365234,pt3,410.7989349365234,None,380.5005648136139,383.9985008239746,True,2.0,['r'],True,0.3333333333333333,0.3333333333333333,0.0,0.0,2.0,0.5793801642856949,0.0260416666666666,succ_gain,0.0,4.0,408.5553929805756,None,pt3,1,2023-03-30_11h44.39.847,threat_forest,2021.2.3,59.81787817376163,True,10.0,0.35416666666666663,0.48333333333333334,-0.8958333333333335,-0.44166666666666676,0,0,1,0.11259347280453501,0.0260416666666666,0.3333333333333333,0.3333333333333333,0.3333333333333333,1.0,-0.6666666666666669,-0.6666666666666669,1.333333333333333,1.333333333333333,1.0,2.0,-1.0,2.0,0,0,0
10.0,0.0,10.0,0.0,5.0,0.0,5.0,0.0,,,,right,0.9710102081298828,416.06703996658325,pt3,416.06703996658325,None,380.5005648136139,383.9985008239746,False,4.0,['r'],True,0.3333333333333333,0.3333333333333333,0.0,0.0,2.0,0.5793801642856949,-0.4531250000000001,wait_cost,0.0,3.0,413.9690508842468,None,pt3,1,2023-03-30_11h44.39.847,threat_forest,2021.2.3,59.81787817376163,False,10.0,0.35416666666666663,0.48333333333333334,-0.8958333333333335,-0.44166666666666676,0,0,0,-0.029418297738985036,-0.4531250000000001,0.0,0.3333333333333333,0.3333333333333333,1.0,-0.6666666666666669,-0.6666666666666669,3.333333333333333,3.333333333333333,1.0,2.0,1.0,4.0,0,0,0
10.0,0.0,10.0,0.0,6.0,0.0,6.0,0.0,,,,left,1.6180779933929443,420.7334108352661,pt3,417.06184697151184,419.07486295700073,420.7334108352661,None,False,3.0,['r'],False,0.28125,0.375,0.25,2.0,2.0,0.9634951148421658,-0.57470703125,wait_cost,1.0,2.0,419.07486295700073,None,pt3,1,2023-03-30_11h44.39.847,threat_forest,2021.2.3,59.81787817376163,False,10.0,0.35416666666666663,0.48333333333333334,-0.8958333333333335,-0.44166666666666676,0,0,0,0.4812390210548564,-0.57470703125,0.0,0.28125,0.375,0.75,-1.25,-1.125,1.875,1.875,0.0,2.0,-1.0,3.0,0,0,0
10.0,0.0,10.0,0.0,7.0,0.0,7.0,0.0,,,,left,0.9494731426239014,426.2482128143311,pt3,417.06184697151184,419.07486295700073,426.2482128143311,None,False,2.0,['r'],False,0.28125,0.375,0.25,2.0,2.0,0.9634951148421658,-0.71875,wait_cost,1.0,1.0,424.3975188732147,None,pt3,1,2023-03-30_11h44.39.847,threat_forest,2021.2.3,59.81787817376163,False,10.0,0.35416666666666663,0.48333333333333334,-0.8958333333333335,-0.44166666666666676,0,0,0,-0.05184803493932477,-0.71875,0.0,0.28125,0.375,0.75,-1.25,-1.125,0.875,0.875,0.0,2.0,-1.0,2.0,0,0,0
11.0,0.0,11.0,0.0,0.0,0.0,0.0,0.0,430.78891491889954,434.2918739318848,None,left,1.3135721683502195,435.05013394355774,pt3,435.05013394355774,None,430.78891491889954,434.29187393188477,True,5.0,['r'],True,0.3333333333333333,0.3333333333333333,0.0,0.0,2.0,0.5793801642856949,0.042200214959848,succ_gain,0.0,6.0,,,pt3,1,2023-03-30_11h44.39.847,threat_forest,2021.2.3,59.81787817376163,True,70.0,0.41666666666666663,0.38541666666666663,-1.0833333333333335,-0.9895833333333335,1,0,1,0.2727502721820563,0.042200214959848,0.3333333333333333,0.3333333333333333,0.3333333333333333,1.0,-0.6666666666666669,-0.6666666666666669,4.333333333333333,4.333333333333333,1.0,2.0,-1.0,5.0,0,0,1
11.0,0.0,11.0,0.0,1.0,0.0,1.0,0.0,,,,left,1.1462039947509766,441.1043620109558,pt3,436.3995168209076,438.4134759902954,441.1043620109558,None,False,6.0,['r'],False,0.25,0.5,0.5,2.0,2.0,0.9463946303571862,-0.1669600372942388,wait_cost,1.0,5.0,438.4134759902954,None,pt3,1,2023-03-30_11h44.39.847,threat_forest,2021.2.3,59.81787817376163,False,70.0,0.41666666666666663,0.38541666666666663,-1.0833333333333335,-0.9895833333333335,0,0,0,0.13645560834228357,-0.1669600372942388,0.25,0.25,0.5,0.5,-1.5,-1.5,4.5,4.5,0.0,2.0,1.0,6.0,0,0,0
11.0,0.0,11.0,0.0,2.0,0.0,2.0,0.0,,,,right,1.4687368869781494,445.2559549808502,pt3,445.2559549808502,None,442.2735459804535,444.28668880462646,False,5.0,['r'],True,0.3333333333333333,0.3333333333333333,0.0,0.0,2.0,0.5793801642856949,0.0926729681069958,wait_cost,0.0,4.0,444.28668880462646,None,pt3,1,2023-03-30_11h44.39.847,threat_forest,2021.2.3,59.81787817376163,False,70.0,0.41666666666666663,0.38541666666666663,-1.0833333333333335,-0.9895833333333335,1,0,0,0.3844027708556001,0.0926729681069958,0.3333333333333333,0.3333333333333333,0.3333333333333333,1.0,-0.6666666666666669,-0.6666666666666669,4.333333333333333,4.333333333333333,1.0,2.0,-1.0,5.0,0,0,1
11.0,0.0,11.0,0.0,3.0,0.0,3.0,0.0,,,,left,1.2925841808319092,449.9127638339996,pt3,446.7583808898926,448.7588210105896,449.9127638339996,None,False,4.0,['r'],False,0.25,0.5,0.5,2.0,2.0,0.9463946303571862,-0.0351924189814815,wait_cost,1.0,3.0,448.7588210105896,None,pt3,1,2023-03-30_11h44.39.847,threat_forest,2021.2.3,59.81787817376163,False,70.0,0.41666666666666663,0.38541666666666663,-1.0833333333333335,-0.9895833333333335,0,0,0,0.2566434555170192,-0.0351924189814815,0.25,0.25,0.5,0.5,-1.5,-1.5,2.5,2.5,0.0,2.0,-1.0,4.0,0,0,0
11.0,0.0,11.0,0.0,4.0,0.0,4.0,0.0,,,,left,1.6658971309661863,455.2009148597717,pt3,455.2009148597717,None,451.2308168411255,453.2305979728699,True,3.0,['r'],True,0.3333333333333333,0.3333333333333333,0.0,0.0,2.0,0.5793801642856949,0.2152777777777777,unsucc_cost,0.0,1.0,453.2305979728699,None,pt3,1,2023-03-30_11h44.39.847,threat_forest,2021.2.3,59.81787817376163,True,70.0,0.41666666666666663,0.38541666666666663,-1.0833333333333335,-0.9895833333333335,1,0,1,0.5103637957195452,0.2152777777777777,0.3333333333333333,0.3333333333333333,0.3333333333333333,1.0,-0.6666666666666669,-0.6666666666666669,2.333333333333333,2.333333333333333,1.0,2.0,-1.0,3.0,0,0,1
11.0,0.0,11.0,0.0,5.0,0.0,5.0,0.0,,,,left,0.6580088138580322,460.0799729824066,pt3,460.0799729824066,None,451.2308168411255,453.2305979728699,True,1.0,['r'],True,0.3333333333333333,0.3333333333333333,0.0,0.0,2.0,0.5793801642856949,0.3333333333333332,unsucc_cost,0.0,0.0,458.8874459266663,None,pt3,1,2023-03-30_11h44.39.847,threat_forest,2021.2.3,59.81787817376163,True,70.0,0.41666666666666663,0.38541666666666663,-1.0833333333333335,-0.9895833333333335,1,0,1,-0.4185369528255094,0.3333333333333332,1.0,0.3333333333333333,0.3333333333333333,1.0,-0.6666666666666669,-0.6666666666666669,0.33333333333333315,0.33333333333333315,1.0,2.0,-1.0,1.0,1,0,1
12.0,0.0,12.0,0.0,0.0,0.0,0.0,0.0,463.62438201904297,467.12969493865967,None,left,1.452080011367798,467.82138991355896,pt3,463.62438201904297,467.12969493865967,467.82138991355896,None,False,4.0,['p'],False,0.25,0.5,0.5,1.0,2.0,0.9463946303571862,0.0192737415335937,wait_cost,1.0,3.0,,,pt3,1,2023-03-30_11h44.39.847,threat_forest,2021.2.3,59.81787817376163,False,8.0,0.35,0.3833333333333333,-1.5300000000000002,-1.3066666666666669,0,0,0,0.3729970191322159,0.0192737415335937,0.25,0.25,0.5,0.5,-1.5,-1.5,2.5,2.5,0.0,2.0,-1.0,4.0,0,0,0
12.0,0.0,12.0,0.0,1.0,0.0,1.0,0.0,,,,right,1.4879648685455322,472.0119569301605,pt3,472.0119569301605,None,469.3053770065308,471.3183000087738,False,3.0,['p'],True,0.16,0.2,0.2,2.0,2.0,0.8198746470064713,0.0157060969937498,wait_cost,0.0,2.0,471.3183000087738,None,pt3,1,2023-03-30_11h44.39.847,threat_forest,2021.2.3,59.81787817376163,False,8.0,0.35,0.3833333333333333,-1.5300000000000002,-1.3066666666666669,0,0,0,0.39740932628375064,0.0157060969937498,0.16,0.16,0.2,0.8,-1.8000000000000003,-1.5600000000000003,1.4399999999999997,1.4399999999999997,1.0,2.0,-1.0,3.0,0,0,0
12.0,0.0,12.0,0.0,2.0,0.0,2.0,0.0,,,,left,1.2202699184417725,476.6291859149933,pt3,476.6291859149933,None,469.3053770065308,471.3183000087738,True,2.0,['p'],True,0.16,0.2,0.2,2.0,2.0,0.8198746470064713,-0.008327462,unsucc_cost,0.0,0.0,475.5227749347687,None,pt3,1,2023-03-30_11h44.39.847,threat_forest,2021.2.3,59.81787817376163,True,8.0,0.35,0.3833333333333333,-1.5300000000000002,-1.3066666666666669,0,0,1,0.19907207889858625,-0.008327462,0.16,0.16,0.2,0.8,-1.8000000000000003,-1.5600000000000003,0.4399999999999997,0.4399999999999997,1.0,2.0,-1.0,2.0,0,0,0
13.0,0.0,13.0,0.0,0.0,0.0,0.0,0.0,482.7850348949432,486.2848789691925,None,left,1.892467975616455,489.1310198307037,pt3,482.7850348949432,486.2848789691925,489.1310198307037,None,False,5.0,['r'],False,0.36,0.6,0.4,2.0,1.0,0.9801625908629508,-0.019480620685,wait_cost,1.0,4.0,,,pt3,1,2023-03-30_11h44.39.847,threat_forest,2021.2.3,59.81787817376163,False,24.0,0.55,0.45,-0.9100000000000001,-1.2200000000000002,0,0,0,0.6378817844512623,-0.019480620685,0.36,0.36,0.6,0.6,-1.4000000000000004,-1.3200000000000003,3.6799999999999997,3.6799999999999997,0.0,1.0,-1.0,5.0,0,0,0
13.0,0.0,13.0,0.0,1.0,0.0,1.0,0.0,,,,left,0.9594919681549072,493.62864995002747,pt3,493.62864995002747,None,491.0445959568024,493.05919098854065,True,4.0,['r'],True,0.5,0.5,0.0,0.0,1.0,0.6309297535714574,0.102124415,succ_gain,0.0,5.0,493.0591909885407,None,pt3,1,2023-03-30_11h44.39.847,threat_forest,2021.2.3,59.81787817376163,True,24.0,0.55,0.45,-0.9100000000000001,-1.2200000000000002,1,1,1,-0.0413513344345489,0.102124415,0.5,0.5,0.5,1.0,-0.5,-0.5,3.5,3.5,1.0,1.0,-1.0,4.0,0,1,1
13.0,0.0,13.0,0.0,2.0,0.0,2.0,0.0,,,,left,0.9278249740600586,498.5519309043884,pt3,494.6116499900818,496.61406087875366,498.5519309043884,None,False,5.0,['r'],False,0.36,0.6,0.4,2.0,1.0,0.9801625908629508,-0.0404334399999999,wait_cost,1.0,4.0,496.61406087875366,None,pt3,1,2023-03-30_11h44.39.847,threat_forest,2021.2.3,59.81787817376163,False,24.0,0.55,0.45,-0.9100000000000001,-1.2200000000000002,0,0,0,-0.07491216952292774,-0.0404334399999999,0.36,0.36,0.6,0.6,-1.4000000000000004,-1.3200000000000003,3.6799999999999997,3.6799999999999997,0.0,1.0,1.0,5.0,0,0,0
13.0,0.0,13.0,0.0,3.0,0.0,3.0,0.0,,,,left,0.958812952041626,502.2866859436035,pt3,494.6116499900818,496.61406087875366,502.2866859436035,None,False,4.0,['r'],False,0.36,0.6,0.4,2.0,1.0,0.9801625908629508,-0.0316195,wait_cost,1.0,3.0,501.5023009777069,None,pt3,1,2023-03-30_11h44.39.847,threat_forest,2021.2.3,59.81787817376163,False,24.0,0.55,0.45,-0.9100000000000001,-1.2200000000000002,0,0,0,-0.04205926791737624,-0.0316195,0.36,0.36,0.6,0.6,-1.4000000000000004,-1.3200000000000003,2.6799999999999997,2.6799999999999997,0.0,1.0,-1.0,4.0,0,0,0
13.0,0.0,13.0,0.0,4.0,0.0,4.0,0.0,,,,left,0.7977309226989746,507.1782338619232,pt3,507.1782338619232,None,503.27578997612,505.2900478839874,True,3.0,['r'],True,0.5,0.5,0.0,0.0,1.0,0.6309297535714574,0.134975,succ_gain,0.0,4.0,505.2900478839874,None,pt3,1,2023-03-30_11h44.39.847,threat_forest,2021.2.3,59.81787817376163,True,24.0,0.55,0.45,-0.9100000000000001,-1.2200000000000002,1,1,1,-0.22598392799380637,0.134975,0.5,0.5,0.5,1.0,-0.5,-0.5,2.5,2.5,1.0,1.0,-1.0,3.0,0,1,1
13.0,0.0,13.0,0.0,5.0,0.0,5.0,0.0,,,,right,0.9681351184844972,512.0147860050201,pt3,512.0147860050201,None,503.27578997612,505.2900478839874,False,4.0,['r'],True,0.5,0.5,0.0,0.0,1.0,0.6309297535714574,-0.2675,wait_cost,0.0,3.0,510.0124080181122,None,pt3,1,2023-03-30_11h44.39.847,threat_forest,2021.2.3,59.81787817376163,False,24.0,0.55,0.45,-0.9100000000000001,-1.2200000000000002,1,1,0,-0.03238361623541175,-0.2675,0.0,0.5,0.5,1.0,-0.5,-0.5,3.5,3.5,1.0,1.0,1.0,4.0,0,1,1
13.0,0.0,13.0,0.0,6.0,0.0,6.0,0.0,,,,right,0.8064241409301758,516.8322010040283,pt3,516.8322010040283,None,503.27578997612,505.2900478839874,False,3.0,['r'],True,0.5,0.5,0.0,0.0,1.0,0.6309297535714574,-0.285,wait_cost,0.0,2.0,515.017805814743,None,pt3,1,2023-03-30_11h44.39.847,threat_forest,2021.2.3,59.81787817376163,False,24.0,0.55,0.45,-0.9100000000000001,-1.2200000000000002,1,1,0,-0.2151454454437612,-0.285,0.0,0.5,0.5,1.0,-0.5,-0.5,2.5,2.5,1.0,1.0,-1.0,3.0,0,1,1
13.0,0.0,13.0,0.0,7.0,0.0,7.0,0.0,,,,left,0.931171178817749,520.8971419334412,pt3,517.6752510070801,519.6901648044586,520.8971419334412,None,False,2.0,['r'],False,0.36,0.6,0.4,2.0,1.0,0.9801625908629508,-0.64,wait_cost,1.0,1.0,519.6901648044586,None,pt3,1,2023-03-30_11h44.39.847,threat_forest,2021.2.3,59.81787817376163,False,24.0,0.55,0.45,-0.9100000000000001,-1.2200000000000002,0,0,0,-0.07131215306625703,-0.64,0.0,0.36,0.6,0.6,-1.4000000000000004,-1.3200000000000003,0.6799999999999997,0.6799999999999997,0.0,1.0,-1.0,2.0,0,0,0
14.0,0.0,14.0,0.0,0.0,0.0,0.0,0.0,527.3745918273926,530.885904788971,None,left,1.766611099243164,532.9835028648376,pt3,527.3745918273926,530.885904788971,532.9835028648376,None,False,5.0,['p'],False,0.2,0.2,0.0,0.0,2.0,0.4554859150035951,0.0071816455152592,wait_cost,1.0,4.0,,,pt3,1,2023-03-30_11h44.39.847,threat_forest,2021.2.3,59.81787817376163,False,37.0,0.26666666666666666,0.4083333333333333,-1.1277777777777778,-1.018888888888889,0,0,0,0.569063078136716,0.0071816455152592,0.2,0.2,0.2,1.0,-1.2000000000000002,-1.2000000000000002,3.8,3.8,0.0,2.0,-1.0,5.0,0,0,0
14.0,0.0,14.0,0.0,1.0,0.0,1.0,0.0,,,,right,1.7709498405456543,539.496298789978,pt3,527.3745918273926,530.885904788971,539.496298789978,None,True,4.0,['p'],False,0.2,0.2,0.0,0.0,2.0,0.4554859150035951,0.0032219477467866,succ_gain,1.0,6.0,536.7926888465881,None,pt3,1,2023-03-30_11h44.39.847,threat_forest,2021.2.3,59.81787817376163,True,37.0,0.26666666666666666,0.4083333333333333,-1.1277777777777778,-1.018888888888889,0,0,1,0.5715160357263407,0.0032219477467866,0.2,0.2,0.2,1.0,-1.2000000000000002,-1.2000000000000002,2.8,2.8,0.0,2.0,-1.0,4.0,0,0,0
14.0,0.0,14.0,0.0,2.0,0.0,2.0,0.0,,,,left,1.0410730838775637,546.7401599884033,pt3,527.3745918273926,530.885904788971,546.7401599884033,None,False,6.0,['p'],False,0.2,0.2,0.0,0.0,2.0,0.4554859150035951,0.0054966620941929,wait_cost,1.0,5.0,543.3061590194702,None,pt3,1,2023-03-30_11h44.39.847,threat_forest,2021.2.3,59.81787817376163,False,37.0,0.26666666666666666,0.4083333333333333,-1.1277777777777778,-1.018888888888889,0,0,0,0.040251992622495965,0.0054966620941929,0.2,0.2,0.2,1.0,-1.2000000000000002,-1.2000000000000002,4.8,4.8,0.0,2.0,1.0,6.0,0,0,0
14.0,0.0,14.0,0.0,3.0,0.0,3.0,0.0,,,,right,0.8969230651855469,550.560017824173,pt3,550.560017824173,None,547.8106698989868,549.8204379081726,False,5.0,['p'],True,0.2777777777777778,0.3333333333333333,0.1666666666666666,1.0,2.0,0.8929352898779304,0.1096124828532236,wait_cost,0.0,4.0,549.8204379081726,None,pt3,1,2023-03-30_11h44.39.847,threat_forest,2021.2.3,59.81787817376163,False,37.0,0.26666666666666666,0.4083333333333333,-1.1277777777777778,-1.018888888888889,0,0,0,-0.10878518962563052,0.1096124828532236,0.2777777777777778,0.2777777777777778,0.3333333333333333,0.8333333333333334,-1.1666666666666665,-1.0555555555555556,3.9444444444444446,3.9444444444444446,1.0,2.0,-1.0,5.0,0,0,0
14.0,0.0,14.0,0.0,4.0,0.0,4.0,0.0,,,,right,1.1908419132232666,555.9669048786163,pt3,551.4817109107971,553.4952449798584,555.9669048786163,None,True,4.0,['p'],False,0.2,0.2,0.0,0.0,2.0,0.4554859150035951,0.0058641975308642,unsucc_cost,1.0,2.0,553.4952449798584,None,pt3,1,2023-03-30_11h44.39.847,threat_forest,2021.2.3,59.81787817376163,True,37.0,0.26666666666666666,0.4083333333333333,-1.1277777777777778,-1.018888888888889,0,0,1,0.17466054707388035,0.0058641975308642,0.2,0.2,0.2,1.0,-1.2000000000000002,-1.2000000000000002,2.8,2.8,0.0,2.0,-1.0,4.0,0,0,0
14.0,0.0,14.0,0.0,5.0,0.0,5.0,0.0,,,,right,1.845879077911377,561.9797239303589,pt3,561.9797239303589,None,557.1881129741669,559.2017087936401,False,2.0,['p'],True,0.2777777777777778,0.3333333333333333,0.1666666666666666,1.0,2.0,0.8929352898779304,0.0388888888888888,wait_cost,0.0,1.0,559.2017087936401,None,pt3,1,2023-03-30_11h44.39.847,threat_forest,2021.2.3,59.81787817376163,False,37.0,0.26666666666666666,0.4083333333333333,-1.1277777777777778,-1.018888888888889,0,0,0,0.6129556290117048,0.0388888888888888,0.2777777777777778,0.2777777777777778,0.3333333333333333,0.8333333333333334,-1.1666666666666665,-1.0555555555555556,0.9444444444444444,0.9444444444444444,1.0,2.0,-1.0,2.0,0,0,0
14.0,0.0,14.0,0.0,6.0,0.0,6.0,0.0,,,,left,0.8864240646362305,567.3396098613739,pt3,567.3396098613739,None,557.1881129741669,559.2017087936401,True,1.0,['p'],True,0.2777777777777778,0.3333333333333333,0.1666666666666666,1.0,2.0,0.8929352898779304,0.2777777777777777,unsucc_cost,0.0,0.0,565.8759458065033,None,pt3,1,2023-03-30_11h44.39.847,threat_forest,2021.2.3,59.81787817376163,True,37.0,0.26666666666666666,0.4083333333333333,-1.1277777777777778,-1.018888888888889,0,0,1,-0.12055981462542839,0.2777777777777777,1.0,0.2777777777777778,0.3333333333333333,0.8333333333333334,-1.1666666666666665,-1.0555555555555556,-0.05555555555555558,0.0,1.0,2.0,-1.0,1.0,1,0,0
15.0,0.0,15.0,0.0,0.0,0.0,0.0,0.0,573.6345918178558,577.1334629058838,None,left,1.868152141571045,578.3183128833771,pt3,573.6345918178558,577.1334629058838,578.3183128833771,None,False,5.0,['r'],False,0.36,0.6,0.4,2.0,2.0,0.9801625908629508,-0.0333353473,wait_cost,1.0,4.0,,,pt3,1,2023-03-30_11h44.39.847,threat_forest,2021.2.3,59.81787817376163,False,18.0,0.55,0.4083333333333333,-0.4800000000000001,-0.8038888888888889,0,0,0,0.6249497827272623,-0.0333353473,0.36,0.36,0.6,0.6,-0.8000000000000003,-0.9600000000000002,4.04,4.04,0.0,2.0,-1.0,5.0,0,0,0
15.0,0.0,15.0,0.0,1.0,0.0,1.0,0.0,,,,left,0.8046009540557861,583.1795649528503,pt3,583.1795649528503,None,580.2102658748627,582.2111790180206,True,4.0,['r'],True,0.5,0.5,0.0,0.0,2.0,0.6309297535714574,0.126394,unsucc_cost,0.0,2.0,582.2111790180206,None,pt3,1,2023-03-30_11h44.39.847,threat_forest,2021.2.3,59.81787817376163,True,18.0,0.55,0.4083333333333333,-0.4800000000000001,-0.8038888888888889,1,1,1,-0.2174088337154916,0.126394,0.5,0.5,0.5,1.0,0.0,0.0,4.0,4.0,1.0,2.0,-1.0,4.0,0,1,1
15.0,0.0,15.0,0.0,2.0,0.0,2.0,0.0,,,,left,0.6681301593780518,588.2441878318787,pt3,588.2441878318787,None,580.2102658748627,582.2111790180206,True,2.0,['r'],True,0.5,0.5,0.0,0.0,2.0,0.6309297535714574,0.076925,succ_gain,0.0,4.0,586.0152368545532,None,pt3,1,2023-03-30_11h44.39.847,threat_forest,2021.2.3,59.81787817376163,True,18.0,0.55,0.4083333333333333,-0.4800000000000001,-0.8038888888888889,1,1,1,-0.403272275057823,0.076925,0.5,0.5,0.5,1.0,0.0,0.0,2.0,2.0,1.0,2.0,-1.0,2.0,0,1,1
15.0,0.0,15.0,0.0,3.0,0.0,3.0,0.0,,,,right,2.078253984451294,594.3278260231018,pt3,588.9365448951721,590.9382109642029,594.3278260231018,None,True,4.0,['r'],False,0.36,0.6,0.4,2.0,2.0,0.9801625908629508,-0.0169199999999999,unsucc_cost,1.0,2.0,590.9382109642029,None,pt3,1,2023-03-30_11h44.39.847,threat_forest,2021.2.3,59.81787817376163,True,18.0,0.55,0.4083333333333333,-0.4800000000000001,-0.8038888888888889,0,0,1,0.7315281106418473,-0.0169199999999999,0.36,0.36,0.6,0.6,-0.8000000000000003,-0.9600000000000002,3.04,3.04,0.0,2.0,1.0,4.0,0,0,0
15.0,0.0,15.0,0.0,4.0,0.0,4.0,0.0,,,,right,1.5437378883361816,601.3168869018555,pt3,588.9365448951721,590.9382109642029,601.3168869018555,None,True,2.0,['r'],False,0.36,0.6,0.4,2.0,2.0,0.9801625908629508,-0.0699999999999999,succ_gain,1.0,4.0,598.4405198097229,None,pt3,1,2023-03-30_11h44.39.847,threat_forest,2021.2.3,59.81787817376163,True,18.0,0.55,0.4083333333333333,-0.4800000000000001,-0.8038888888888889,0,0,1,0.43420667575118327,-0.0699999999999999,0.36,0.36,0.6,0.6,-0.8000000000000003,-0.9600000000000002,1.0399999999999998,1.0399999999999998,0.0,2.0,-1.0,2.0,0,0,0
15.0,0.0,15.0,0.0,5.0,0.0,5.0,0.0,,,,right,0.8808839321136475,605.7476589679718,pt3,605.7476589679718,None,602.8892118930817,604.9035449028015,False,4.0,['r'],True,0.5,0.5,0.0,0.0,2.0,0.6309297535714574,-0.2675,wait_cost,0.0,3.0,604.9035449028015,None,pt3,1,2023-03-30_11h44.39.847,threat_forest,2021.2.3,59.81787817376163,False,18.0,0.55,0.4083333333333333,-0.4800000000000001,-0.8038888888888889,1,1,0,-0.1268294073396484,-0.2675,0.0,0.5,0.5,1.0,0.0,0.0,4.0,4.0,1.0,2.0,1.0,4.0,0,1,1
15.0,0.0,15.0,0.0,6.0,0.0,6.0,0.0,,,,right,0.6658830642700195,611.538519859314,pt3,611.538519859314,None,602.8892118930817,604.9035449028015,False,3.0,['r'],True,0.5,0.5,0.0,0.0,2.0,0.6309297535714574,-0.285,wait_cost,0.0,2.0,608.6807107925415,None,pt3,1,2023-03-30_11h44.39.847,threat_forest,2021.2.3,59.81787817376163,False,18.0,0.55,0.4083333333333333,-0.4800000000000001,-0.8038888888888889,1,1,0,-0.40664120303172047,-0.285,0.0,0.5,0.5,1.0,0.0,0.0,3.0,3.0,1.0,2.0,-1.0,3.0,0,1,1
15.0,0.0,15.0,0.0,7.0,0.0,7.0,0.0,,,,right,0.7433450222015381,617.0602970123291,pt3,617.0602970123291,None,602.8892118930817,604.9035449028015,False,2.0,['r'],True,0.5,0.5,0.0,0.0,2.0,0.6309297535714574,-0.5,wait_cost,0.0,1.0,614.247386932373,None,pt3,1,2023-03-30_11h44.39.847,threat_forest,2021.2.3,59.81787817376163,False,18.0,0.55,0.4083333333333333,-0.4800000000000001,-0.8038888888888889,1,1,0,-0.29659497838491317,-0.5,0.0,0.5,0.5,1.0,0.0,0.0,2.0,2.0,1.0,2.0,-1.0,2.0,0,1,1
16.0,0.0,16.0,0.0,0.0,0.0,0.0,0.0,621.9122018814087,625.4267909526825,None,left,2.085129976272583,628.164223909378,pt3,628.164223909378,None,621.9122018814087,625.4267909526825,True,4.0,['r'],True,0.3333333333333333,0.3333333333333333,0.0,0.0,2.0,0.5793801642856949,0.0501512138139916,succ_gain,0.0,6.0,,,pt3,1,2023-03-30_11h44.39.847,threat_forest,2021.2.3,59.81787817376163,True,46.0,0.3666666666666667,0.45833333333333337,-1.0533333333333335,-0.7666666666666668,1,0,1,0.7348311920476343,0.0501512138139916,0.3333333333333333,0.3333333333333333,0.3333333333333333,1.0,-0.6666666666666669,-0.6666666666666669,3.333333333333333,3.333333333333333,1.0,2.0,-1.0,4.0,0,0,1
16.0,0.0,16.0,0.0,1.0,0.0,1.0,0.0,,,,right,1.128467082977295,633.3981850147247,pt3,633.3981850147247,None,621.9122018814087,625.4267909526825,False,6.0,['r'],True,0.3333333333333333,0.3333333333333333,0.0,0.0,2.0,0.5793801642856949,-0.0616746995884774,wait_cost,0.0,5.0,632.2876768112183,None,pt3,1,2023-03-30_11h44.39.847,threat_forest,2021.2.3,59.81787817376163,False,46.0,0.3666666666666667,0.45833333333333337,-1.0533333333333335,-0.7666666666666668,1,0,0,0.12086014802176268,-0.0616746995884774,0.3333333333333333,0.3333333333333333,0.3333333333333333,1.0,-0.6666666666666669,-0.6666666666666669,5.333333333333333,5.333333333333333,1.0,2.0,1.0,6.0,0,0,1
16.0,0.0,16.0,0.0,2.0,0.0,2.0,0.0,,,,right,1.693516969680786,640.3040678501129,pt3,640.3040678501129,None,621.9122018814087,625.4267909526825,False,5.0,['r'],True,0.3333333333333333,0.3333333333333333,0.0,0.0,2.0,0.5793801642856949,0.0885027489711933,wait_cost,0.0,4.0,636.5726008415222,None,pt3,1,2023-03-30_11h44.39.847,threat_forest,2021.2.3,59.81787817376163,False,46.0,0.3666666666666667,0.45833333333333337,-1.0533333333333335,-0.7666666666666668,1,0,0,0.5268074137042481,0.0885027489711933,0.3333333333333333,0.3333333333333333,0.3333333333333333,1.0,-0.6666666666666669,-0.6666666666666669,4.333333333333333,4.333333333333333,1.0,2.0,-1.0,5.0,0,0,1
16.0,0.0,16.0,0.0,3.0,0.0,3.0,0.0,,,,right,1.849642992019653,647.2367877960205,pt3,642.0350008010864,644.0484409332275,647.2367877960205,None,True,4.0,['r'],False,0.24,0.4,0.4,2.0,2.0,0.9801625908629508,-0.0324772740740739,unsucc_cost,1.0,2.0,644.0484409332275,None,pt3,1,2023-03-30_11h44.39.847,threat_forest,2021.2.3,59.81787817376163,True,46.0,0.3666666666666667,0.45833333333333337,-1.0533333333333335,-0.7666666666666668,0,0,1,0.614992643181047,-0.0324772740740739,0.24,0.24,0.4,0.6,-1.6,-1.4400000000000002,2.5599999999999996,2.5599999999999996,0.0,2.0,-1.0,4.0,0,0,0
16.0,0.0,16.0,0.0,4.0,0.0,4.0,0.0,,,,right,1.4445369243621826,653.1539268493652,pt3,642.0350008010864,644.0484409332275,653.1539268493652,None,True,2.0,['r'],False,0.24,0.4,0.4,2.0,2.0,0.9801625908629508,-0.0466666666666666,figh_cost,1.0,0.0,651.1064269542694,None,pt3,1,2023-03-30_11h44.39.847,threat_forest,2021.2.3,59.81787817376163,True,46.0,0.3666666666666667,0.45833333333333337,-1.0533333333333335,-0.7666666666666668,0,0,1,0.3677888026342669,-0.0466666666666666,0.24,0.24,0.4,0.6,-1.6,-1.4400000000000002,0.5599999999999998,0.5599999999999998,0.0,2.0,-1.0,2.0,0,0,0
17.0,0.0,17.0,0.0,0.0,0.0,0.0,0.0,659.5090608596802,663.0196080207825,None,left,2.599940061569214,664.0160179138184,pt3,659.5090608596802,663.0196080207825,664.0160179138184,None,False,4.0,['p'],False,0.1975308641975308,0.2222222222222222,0.1111111111111111,1.0,1.0,0.7461067557824965,0.000620491815553,wait_cost,1.0,3.0,,,pt3,1,2023-03-30_11h44.39.847,threat_forest,2021.2.3,59.81787817376163,False,48.0,0.3111111111111111,0.3388888888888889,-1.3792592592592592,-1.2162962962962962,0,0,0,0.9554883915190963,0.000620491815553,0.1975308641975308,0.1975308641975308,0.2222222222222222,0.8888888888888888,-1.6666666666666667,-1.5185185185185184,2.481481481481482,2.481481481481482,0.0,1.0,-1.0,4.0,0,0,0
17.0,0.0,17.0,0.0,1.0,0.0,1.0,0.0,,,,right,1.360419988632202,669.777853012085,pt3,669.777853012085,None,666.6459608078003,668.6597340106964,False,3.0,['p'],True,0.32,0.4,0.2,1.0,1.0,0.9455672104350704,0.0271702936740403,wait_cost,0.0,2.0,668.6597340106964,None,pt3,1,2023-03-30_11h44.39.847,threat_forest,2021.2.3,59.81787817376163,False,48.0,0.3111111111111111,0.3388888888888889,-1.3792592592592592,-1.2162962962962962,0,0,0,0.30779346724510714,0.0271702936740403,0.32,0.32,0.4,0.8,-1.4,-1.24,1.76,1.76,1.0,1.0,-1.0,3.0,0,0,0
17.0,0.0,17.0,0.0,2.0,0.0,2.0,0.0,,,,left,1.113487958908081,676.5890698432922,pt3,671.1618528366089,673.1649827957153,676.5890698432922,None,False,2.0,['p'],False,0.1975308641975308,0.2222222222222222,0.1111111111111111,1.0,1.0,0.7461067557824965,0.0037858795279334,wait_cost,1.0,1.0,673.1649827957153,None,pt3,1,2023-03-30_11h44.39.847,threat_forest,2021.2.3,59.81787817376163,False,48.0,0.3111111111111111,0.3388888888888889,-1.3792592592592592,-1.2162962962962962,0,0,0,0.10749739392361576,0.0037858795279334,0.1975308641975308,0.1975308641975308,0.2222222222222222,0.8888888888888888,-1.6666666666666667,-1.5185185185185184,0.4814814814814816,0.4814814814814816,0.0,1.0,-1.0,2.0,0,0,0
17.0,0.0,17.0,0.0,3.0,0.0,3.0,0.0,,,,left,1.2726409435272217,680.6897668838501,pt3,680.6897668838501,None,677.7255117893219,679.7416689395905,True,1.0,['p'],True,0.32,0.4,0.2,1.0,1.0,0.9455672104350704,0.0339764324116506,succ_gain,0.0,2.0,679.7416689395905,None,pt3,1,2023-03-30_11h44.39.847,threat_forest,2021.2.3,59.81787817376163,True,48.0,0.3111111111111111,0.3388888888888889,-1.3792592592592592,-1.2162962962962962,0,0,1,0.24109422443056938,0.0339764324116506,1.0,0.32,0.4,0.8,-1.4,-1.24,-0.24,0.0,1.0,1.0,-1.0,1.0,1,0,0
17.0,0.0,17.0,0.0,4.0,0.0,4.0,0.0,,,,left,0.9461569786071776,686.7592058181763,pt3,686.7592058181763,None,677.7255117893219,679.7416689395905,True,2.0,['p'],True,0.32,0.4,0.2,1.0,1.0,0.9455672104350704,0.0564198091754306,unsucc_cost,0.0,0.0,683.9941499233246,None,pt3,1,2023-03-30_11h44.39.847,threat_forest,2021.2.3,59.81787817376163,True,48.0,0.3111111111111111,0.3388888888888889,-1.3792592592592592,-1.2162962962962962,0,0,1,-0.0553467843656121,0.0564198091754306,0.32,0.32,0.4,0.8,-1.4,-1.24,0.76,0.76,1.0,1.0,1.0,2.0,0,0,0
0.0,0.0,0.0,0.0,0.0,0.0,0.0,0.0,10.313416004180908,13.815302848815918,None,right,1.85576605796814,14.651437997817991,pt3,10.313416004180908,13.815302848815918,14.651437997817991,None,True,4.0,['p'],False,0.1728395061728395,0.2222222222222222,0.2222222222222222,2.0,2.0,0.8571721972794328,-0.0023371412519707,fight_cost,1.0,1.0,,,pt3,2,2023-03-30_11h57.28.625,threat_forest,2021.2.3,59.93412582396306,True,26.0,0.2111111111111111,0.2611111111111111,-1.3654320987654323,-1.3723456790123456,0,0,1,0.6182975800661269,-0.0023371412519707,0.1728395061728395,0.1728395061728395,0.2222222222222222,0.7777777777777778,-1.7777777777777777,-1.5308641975308643,2.4691358024691357,2.4691358024691357,0.0,2.0,-1.0,4.0,0,0,0
0.0,0.0,0.0,0.0,1.0,0.0,1.0,0.0,,,,right,1.529774188995361,20.70730781555176,pt3,10.313416004180908,13.815302848815918,20.70730781555176,None,True,1.0,['p'],False,0.1728395061728395,0.2222222222222222,0.2222222222222222,2.0,2.0,0.8571721972794328,0.0210651906873664,succ_gain,1.0,3.0,18.53789782524109,None,pt3,2,2023-03-30_11h57.28.625,threat_forest,2021.2.3,59.93412582396306,True,26.0,0.2111111111111111,0.2611111111111111,-1.3654320987654323,-1.3723456790123456,0,0,1,0.42512013562011103,0.0210651906873664,1.0,0.1728395061728395,0.2222222222222222,0.7777777777777778,-1.7777777777777777,-1.5308641975308643,-0.5308641975308643,0.0,0.0,2.0,-1.0,1.0,1,0,0
0.0,0.0,0.0,0.0,2.0,0.0,2.0,0.0,,,,right,1.2637939453125,25.89580488204956,pt3,10.313416004180908,13.815302848815918,25.89580488204956,None,True,3.0,['p'],False,0.1728395061728395,0.2222222222222222,0.2222222222222222,2.0,2.0,0.8571721972794328,0.0463406441921558,unsucc_cost,1.0,1.0,24.27766489982605,None,pt3,2,2023-03-30_11h57.28.625,threat_forest,2021.2.3,59.93412582396306,True,26.0,0.2111111111111111,0.2611111111111111,-1.3654320987654323,-1.3723456790123456,0,0,1,0.23411826448682407,0.0463406441921558,0.1728395061728395,0.1728395061728395,0.2222222222222222,0.7777777777777778,-1.7777777777777777,-1.5308641975308643,1.4691358024691357,1.4691358024691357,0.0,2.0,1.0,3.0,0,0,0
0.0,0.0,0.0,0.0,3.0,0.0,3.0,0.0,,,,left,1.534719944000244,29.700737953186035,pt3,29.700737953186035,None,27.183220863342285,29.18339991569519,True,1.0,['p'],True,0.2,0.2,0.0,0.0,2.0,0.4554859150035951,0.0634747751867093,unsucc_cost,0.0,0.0,29.18339991569519,None,pt3,2,2023-03-30_11h57.28.625,threat_forest,2021.2.3,59.93412582396306,True,26.0,0.2111111111111111,0.2611111111111111,-1.3654320987654323,-1.3723456790123456,1,0,1,0.42834791748832063,0.0634747751867093,1.0,0.2,0.2,1.0,-1.2000000000000002,-1.2000000000000002,-0.20000000000000018,0.0,1.0,2.0,-1.0,1.0,1,0,1
1.0,0.0,1.0,0.0,0.0,0.0,0.0,0.0,36.565409898757935,40.06066083908081,None,left,2.0406928062438965,40.67557978630066,pt3,36.565409898757935,40.06066083908081,40.67557978630066,None,False,4.0,['p'],False,0.18,0.2,0.1,1.0,2.0,0.7058405977926203,-0.0041239600981238,wait_cost,1.0,3.0,,,pt3,2,2023-03-30_11h57.28.625,threat_forest,2021.2.3,59.93412582396306,False,41.0,0.43333333333333335,0.32222222222222224,-0.9677777777777778,-1.166604938271605,0,0,0,0.7132893611052659,-0.0041239600981238,0.18,0.18,0.2,0.9,-1.5000000000000002,-1.3800000000000001,2.62,2.62,0.0,2.0,-1.0,4.0,0,0,0
1.0,0.0,1.0,0.0,1.0,0.0,1.0,0.0,,,,left,2.8618409633636475,48.13827180862427,pt3,36.565409898757935,40.06066083908081,48.13827180862427,None,False,3.0,['p'],False,0.18,0.2,0.1,1.0,2.0,0.7058405977926203,0.0098185922261646,wait_cost,1.0,2.0,44.75092577934265,None,pt3,2,2023-03-30_11h57.28.625,threat_forest,2021.2.3,59.93412582396306,False,41.0,0.43333333333333335,0.32222222222222224,-0.9677777777777778,-1.166604938271605,0,0,0,1.0514651112337636,0.0098185922261646,0.18,0.18,0.2,0.9,-1.5000000000000002,-1.3800000000000001,1.6199999999999999,1.6199999999999999,0.0,2.0,-1.0,3.0,0,0,0
1.0,0.0,1.0,0.0,2.0,0.0,2.0,0.0,,,,left,0.916877031326294,55.86818480491638,pt3,55.86818480491638,None,51.02812385559082,53.02729797363281,True,2.0,['p'],True,0.4444444444444445,0.6666666666666666,0.3333333333333333,1.0,2.0,0.9656336071428248,0.0883836365594675,fight_cost,0.0,0.0,53.02729797363281,None,pt3,2,2023-03-30_11h57.28.625,threat_forest,2021.2.3,59.93412582396306,True,41.0,0.43333333333333335,0.32222222222222224,-0.9677777777777778,-1.166604938271605,1,1,1,-0.08678191459854459,0.0883836365594675,0.4444444444444445,0.4444444444444445,0.6666666666666666,0.6666666666666667,-0.3333333333333335,-0.5555555555555556,1.4444444444444444,1.4444444444444444,1.0,2.0,-1.0,2.0,0,1,1
2.0,0.0,2.0,0.0,0.0,0.0,0.0,0.0,60.487470865249634,63.98865699768066,None,left,1.3519020080566406,66.24941396713257,pt3,66.24941396713257,None,60.487470865249634,63.988656997680664,True,5.0,['p'],True,0.375,0.5,0.25,1.0,1.0,0.9850568223215076,0.0361323788439721,succ_gain,0.0,6.0,,,pt3,2,2023-03-30_11h57.28.625,threat_forest,2021.2.3,59.93412582396306,True,69.0,0.39285714285714285,0.41309523809523807,-1.2665816326530612,-1.1171797052154195,0,0,1,0.3015124957459778,0.0361323788439721,0.375,0.375,0.5,0.75,-1.25,-1.125,3.875,3.875,1.0,1.0,-1.0,5.0,0,0,0
2.0,0.0,2.0,0.0,1.0,0.0,1.0,0.0,,,,None,,73.39225792884827,pt3,73.39225792884827,None,60.487470865249634,63.988656997680664,False,6.0,['p'],True,0.375,0.5,0.25,1.0,1.0,0.9850568223215076,-0.1164659602447043,wait_cost,0.0,5.0,69.64581799507141,None,pt3,2,2023-03-30_11h57.28.625,threat_forest,2021.2.3,59.93412582396306,None,69.0,0.39285714285714285,0.41309523809523807,-1.2665816326530612,-1.1171797052154195,0,0,0,,-0.1164659602447043,0.375,0.375,0.5,0.75,-1.25,-1.125,4.875,4.875,1.0,1.0,1.0,6.0,0,0,0
2.0,0.0,2.0,0.0,2.0,0.0,2.0,0.0,,,,left,1.427332878112793,79.90375089645386,pt3,79.90375089645386,None,60.487470865249634,63.988656997680664,True,5.0,['p'],True,0.375,0.5,0.25,1.0,1.0,0.9850568223215076,0.0667717868390274,unsucc_cost,0.0,3.0,78.42239189147949,None,pt3,2,2023-03-30_11h57.28.625,threat_forest,2021.2.3,59.93412582396306,True,69.0,0.39285714285714285,0.41309523809523807,-1.2665816326530612,-1.1171797052154195,0,0,1,0.35580758256854556,0.0667717868390274,0.375,0.375,0.5,0.75,-1.25,-1.125,3.875,3.875,1.0,1.0,-1.0,5.0,0,0,0
2.0,0.0,2.0,0.0,3.0,0.0,3.0,0.0,,,,left,1.4100539684295654,85.5563428401947,pt3,85.5563428401947,None,60.487470865249634,63.988656997680664,True,3.0,['p'],True,0.375,0.5,0.25,1.0,1.0,0.9850568223215076,0.0837610682139808,succ_gain,0.0,4.0,83.361576795578,None,pt3,2,2023-03-30_11h57.28.625,threat_forest,2021.2.3,59.93412582396306,True,69.0,0.39285714285714285,0.41309523809523807,-1.2665816326530612,-1.1171797052154195,0,0,1,0.3436279791395506,0.0837610682139808,0.375,0.375,0.5,0.75,-1.25,-1.125,1.875,1.875,1.0,1.0,-1.0,3.0,0,0,0
2.0,0.0,2.0,0.0,4.0,0.0,4.0,0.0,,,,left,0.9426019191741944,91.48364877700806,pt3,91.48364877700806,None,60.487470865249634,63.988656997680664,True,4.0,['p'],True,0.375,0.5,0.25,1.0,1.0,0.9850568223215076,0.0670185843789046,unsucc_cost,0.0,2.0,89.00131297111511,None,pt3,2,2023-03-30_11h57.28.625,threat_forest,2021.2.3,59.93412582396306,True,69.0,0.39285714285714285,0.41309523809523807,-1.2665816326530612,-1.1171797052154195,0,0,1,-0.05911122845151285,0.0670185843789046,0.375,0.375,0.5,0.75,-1.25,-1.125,2.875,2.875,1.0,1.0,1.0,4.0,0,0,0
2.0,0.0,2.0,0.0,5.0,0.0,5.0,0.0,,,,right,1.755871057510376,95.01516699790956,pt3,92.45862197875977,94.47418093681335,95.01516699790956,None,True,2.0,['p'],False,0.2448979591836734,0.2857142857142857,0.1428571428571428,1.0,1.0,0.8400769154957735,-0.0650510204081632,unsucc_cost,1.0,0.0,94.47418093681335,None,pt3,2,2023-03-30_11h57.28.625,threat_forest,2021.2.3,59.93412582396306,True,69.0,0.39285714285714285,0.41309523809523807,-1.2665816326530612,-1.1171797052154195,0,0,1,0.5629650628530402,-0.0650510204081632,0.2448979591836734,0.2448979591836734,0.2857142857142857,0.8571428571428572,-1.5714285714285712,-1.4081632653061225,0.5918367346938775,0.5918367346938775,0.0,1.0,-1.0,2.0,0,0,0
3.0,0.0,3.0,0.0,0.0,0.0,0.0,0.0,101.74118399620056,105.23831677436829,None,left,1.3878388404846191,107.0716679096222,pt3,107.0716679096222,None,101.74118399620056,105.23831677436829,True,4.0,['p'],True,0.375,0.5,0.25,1.0,1.0,0.9850568223215076,0.0365041143210029,unsucc_cost,0.0,2.0,,,pt3,2,2023-03-30_11h57.28.625,threat_forest,2021.2.3,59.93412582396306,True,3.0,0.35,0.37142857142857144,-1.4225000000000003,-1.3445408163265307,1,1,1,0.3277477461824851,0.0365041143210029,0.375,0.375,0.5,0.75,-1.25,-1.125,2.875,2.875,1.0,1.0,-1.0,4.0,0,1,1
3.0,0.0,3.0,0.0,1.0,0.0,1.0,0.0,,,,left,1.0064849853515625,111.11885190010072,pt3,108.4964919090271,110.50822186470032,111.11885190010072,None,False,2.0,['p'],False,0.16,0.2,0.2,2.0,1.0,0.8198746470064713,-0.0078321737219239,wait_cost,1.0,1.0,110.50822186470032,None,pt3,2,2023-03-30_11h57.28.625,threat_forest,2021.2.3,59.93412582396306,False,3.0,0.35,0.37142857142857144,-1.4225000000000003,-1.3445408163265307,0,0,0,0.006464048302944592,-0.0078321737219239,0.16,0.16,0.2,0.8,-2.0,-1.7200000000000004,0.2799999999999996,0.2799999999999996,0.0,1.0,-1.0,2.0,0,0,0
3.0,0.0,3.0,0.0,2.0,0.0,2.0,0.0,,,,left,0.8975238800048828,115.16661190986632,pt3,115.16661190986632,None,112.15141487121582,114.16310000419617,True,1.0,['p'],True,0.375,0.5,0.25,1.0,1.0,0.9850568223215076,0.0417231582641601,succ_gain,0.0,2.0,114.16310000419617,None,pt3,2,2023-03-30_11h57.28.625,threat_forest,2021.2.3,59.93412582396306,True,3.0,0.35,0.37142857142857144,-1.4225000000000003,-1.3445408163265307,1,1,1,-0.10811555172588937,0.0417231582641601,1.0,0.375,0.5,0.75,-1.25,-1.125,-0.125,0.0,1.0,1.0,-1.0,1.0,1,1,1
3.0,0.0,3.0,0.0,3.0,0.0,3.0,0.0,,,,right,1.1925840377807615,121.07216000556946,pt3,121.07216000556946,None,112.15141487121582,114.16310000419617,False,2.0,['p'],True,0.375,0.5,0.25,1.0,1.0,0.9850568223215076,0.0506547607421876,wait_cost,0.0,1.0,118.084223985672,None,pt3,2,2023-03-30_11h57.28.625,threat_forest,2021.2.3,59.93412582396306,False,3.0,0.35,0.37142857142857144,-1.4225000000000003,-1.3445408163265307,1,1,0,0.1761224132308818,0.0506547607421876,0.375,0.375,0.5,0.75,-1.25,-1.125,0.875,0.875,1.0,1.0,1.0,2.0,0,1,1
3.0,0.0,3.0,0.0,4.0,0.0,4.0,0.0,,,,right,0.737908124923706,127.3349997997284,pt3,122.28882598876952,124.29138779640198,127.3349997997284,None,True,1.0,['p'],False,0.16,0.2,0.2,2.0,1.0,0.8198746470064713,0.0513999999999998,unsucc_cost,1.0,0.0,124.29138779640198,None,pt3,2,2023-03-30_11h57.28.625,threat_forest,2021.2.3,59.93412582396306,True,3.0,0.35,0.37142857142857144,-1.4225000000000003,-1.3445408163265307,0,0,1,-0.3039359541047315,0.0513999999999998,1.0,0.16,0.2,0.8,-2.0,-1.7200000000000004,-0.7200000000000004,0.0,0.0,1.0,-1.0,1.0,1,0,0
4.0,0.0,4.0,0.0,0.0,0.0,0.0,0.0,131.5547468662262,135.0573070049286,None,left,1.3819530010223389,138.0015947818756,pt3,138.0015947818756,None,131.5547468662262,135.0573070049286,True,5.0,['r'],True,0.3950617283950617,0.4444444444444444,0.1111111111111111,1.0,2.0,0.8733423231021583,-0.0076247432762748,succ_gain,0.0,6.0,,,pt3,2,2023-03-30_11h57.28.625,threat_forest,2021.2.3,59.93412582396306,True,51.0,0.5555555555555556,0.4527777777777778,-0.2376543209876542,-0.8300771604938273,1,0,1,0.32349771682388007,-0.0076247432762748,0.3950617283950617,0.3950617283950617,0.4444444444444444,0.8888888888888888,-0.5555555555555556,-0.5308641975308641,4.469135802469136,4.469135802469136,1.0,2.0,-1.0,5.0,0,0,1
4.0,0.0,4.0,0.0,1.0,0.0,1.0,0.0,,,,left,1.5475997924804688,143.8426399230957,pt3,139.4144468307495,141.42737197875977,143.8426399230957,None,False,6.0,['r'],False,0.5555555555555556,0.6666666666666666,0.1666666666666666,1.0,2.0,0.8929352898779306,-0.0252043745840764,wait_cost,1.0,5.0,141.42737197875977,None,pt3,2,2023-03-30_11h57.28.625,threat_forest,2021.2.3,59.93412582396306,False,51.0,0.5555555555555556,0.4527777777777778,-0.2376543209876542,-0.8300771604938273,1,1,0,0.43670520975301824,-0.0252043745840764,0.5555555555555556,0.5555555555555556,0.6666666666666666,0.8333333333333334,0.16666666666666674,0.05555555555555569,6.055555555555555,6.0,0.0,2.0,1.0,6.0,0,1,1
4.0,0.0,4.0,0.0,2.0,0.0,2.0,0.0,,,,left,1.0209808349609375,150.90771985054016,pt3,150.90771985054016,None,145.41923093795776,147.43412899971008,True,5.0,['r'],True,0.3950617283950617,0.4444444444444444,0.1111111111111111,1.0,2.0,0.8733423231021583,0.0120211696082653,succ_gain,0.0,6.0,147.43412899971008,None,pt3,2,2023-03-30_11h57.28.625,threat_forest,2021.2.3,59.93412582396306,True,51.0,0.5555555555555556,0.4527777777777778,-0.2376543209876542,-0.8300771604938273,1,0,1,0.020763768155166312,0.0120211696082653,0.3950617283950617,0.3950617283950617,0.4444444444444444,0.8888888888888888,-0.5555555555555556,-0.5308641975308641,4.469135802469136,4.469135802469136,1.0,2.0,-1.0,5.0,0,0,1
4.0,0.0,4.0,0.0,3.0,0.0,3.0,0.0,,,,right,2.753354072570801,155.54336595535278,pt3,155.54336595535278,None,145.41923093795776,147.43412899971008,False,6.0,['r'],True,0.3950617283950617,0.4444444444444444,0.1111111111111111,1.0,2.0,0.8733423231021583,-0.1662308233651524,wait_cost,0.0,5.0,153.95831990242004,None,pt3,2,2023-03-30_11h57.28.625,threat_forest,2021.2.3,59.93412582396306,False,51.0,0.5555555555555556,0.4527777777777778,-0.2376543209876542,-0.8300771604938273,1,0,0,1.012819831247111,-0.1662308233651524,0.0,0.3950617283950617,0.4444444444444444,0.8888888888888888,-0.5555555555555556,-0.5308641975308641,5.469135802469136,5.469135802469136,1.0,2.0,1.0,6.0,0,0,1
4.0,0.0,4.0,0.0,4.0,0.0,4.0,0.0,,,,right,0.9509499073028564,163.26809978485107,pt3,163.26809978485107,None,145.41923093795776,147.43412899971008,False,5.0,['r'],True,0.3950617283950617,0.4444444444444444,0.1111111111111111,1.0,2.0,0.8733423231021583,-0.2223920435194122,wait_cost,0.0,4.0,160.31531500816345,None,pt3,2,2023-03-30_11h57.28.625,threat_forest,2021.2.3,59.93412582396306,False,51.0,0.5555555555555556,0.4527777777777778,-0.2376543209876542,-0.8300771604938273,1,0,0,-0.05029389153293387,-0.2223920435194122,0.0,0.3950617283950617,0.4444444444444444,0.8888888888888888,-0.5555555555555556,-0.5308641975308641,4.469135802469136,4.469135802469136,1.0,2.0,-1.0,5.0,0,0,1
4.0,0.0,4.0,0.0,5.0,0.0,5.0,0.0,,,,right,0.636436939239502,167.3249659538269,pt3,167.3249659538269,None,145.41923093795776,147.43412899971008,False,4.0,['r'],True,0.3950617283950617,0.4444444444444444,0.1111111111111111,1.0,2.0,0.8733423231021583,-0.2975918305136412,wait_cost,0.0,3.0,166.238862991333,None,pt3,2,2023-03-30_11h57.28.625,threat_forest,2021.2.3,59.93412582396306,False,51.0,0.5555555555555556,0.4527777777777778,-0.2376543209876542,-0.8300771604938273,1,0,0,-0.4518699401434397,-0.2975918305136412,0.0,0.3950617283950617,0.4444444444444444,0.8888888888888888,-0.5555555555555556,-0.5308641975308641,3.469135802469136,3.469135802469136,1.0,2.0,-1.0,4.0,0,0,1
4.0,0.0,4.0,0.0,6.0,0.0,6.0,0.0,,,,right,0.5844199657440186,172.3466598987579,pt3,172.3466598987579,None,145.41923093795776,147.43412899971008,False,3.0,['r'],True,0.3950617283950617,0.4444444444444444,0.1111111111111111,1.0,2.0,0.8733423231021583,-0.3702179545800944,wait_cost,0.0,2.0,169.99420499801636,None,pt3,2,2023-03-30_11h57.28.625,threat_forest,2021.2.3,59.93412582396306,False,51.0,0.5555555555555556,0.4527777777777778,-0.2376543209876542,-0.8300771604938273,1,0,0,-0.5371354351717009,-0.3702179545800944,0.0,0.3950617283950617,0.4444444444444444,0.8888888888888888,-0.5555555555555556,-0.5308641975308641,2.469135802469136,2.469135802469136,1.0,2.0,-1.0,3.0,0,0,1
4.0,0.0,4.0,0.0,7.0,0.0,7.0,0.0,,,,left,0.9925591945648192,176.4560029506683,pt3,172.96361184120178,174.96518778800964,176.4560029506683,None,False,2.0,['r'],False,0.5555555555555556,0.6666666666666666,0.1666666666666666,1.0,2.0,0.8929352898779306,-0.4444444444444444,wait_cost,1.0,1.0,174.96518778800964,None,pt3,2,2023-03-30_11h57.28.625,threat_forest,2021.2.3,59.93412582396306,False,51.0,0.5555555555555556,0.4527777777777778,-0.2376543209876542,-0.8300771604938273,1,1,0,-0.007468626320386661,-0.4444444444444444,0.0,0.5555555555555556,0.6666666666666666,0.8333333333333334,0.16666666666666674,0.05555555555555569,2.055555555555556,2.055555555555556,0.0,2.0,-1.0,2.0,0,1,1
5.0,0.0,5.0,0.0,0.0,0.0,0.0,0.0,180.69515299797055,184.20858478546145,None,right,0.8577678203582764,185.67448377609253,pt3,185.67448377609253,None,180.69515299797055,184.20858478546143,False,5.0,['p'],True,0.25,0.25,0.0,0.0,1.0,0.5118595071429148,0.0161331298904485,wait_cost,0.0,4.0,,,pt3,2,2023-03-30_11h57.28.625,threat_forest,2021.2.3,59.93412582396306,False,20.0,0.4583333333333333,0.5069444444444444,-1.625,-0.9313271604938271,0,0,0,-0.15342182175752292,0.0161331298904485,0.25,0.25,0.25,1.0,-1.25,-1.25,3.75,3.75,1.0,1.0,-1.0,5.0,0,0,0
5.0,0.0,5.0,0.0,1.0,0.0,1.0,0.0,,,,left,1.3955018520355225,189.66762590408325,pt3,186.56190395355225,188.56429600715637,189.66762590408325,None,False,4.0,['p'],False,0.2222222222222222,0.6666666666666666,0.6666666666666666,2.0,1.0,0.77250688571426,0.0061034189800591,wait_cost,1.0,3.0,188.5642960071564,None,pt3,2,2023-03-30_11h57.28.625,threat_forest,2021.2.3,59.93412582396306,False,20.0,0.4583333333333333,0.5069444444444444,-1.625,-0.9313271604938271,0,0,0,0.33325410114170917,0.0061034189800591,0.2222222222222222,0.2222222222222222,0.6666666666666666,0.33333333333333337,-2.0,-2.0,2.0,2.0,0.0,1.0,-1.0,4.0,0,0,0
5.0,0.0,5.0,0.0,2.0,0.0,2.0,0.0,,,,right,2.562872171401977,193.8393838405609,pt3,193.8393838405609,None,191.0875818729401,193.10275387763977,False,3.0,['p'],True,0.25,0.25,0.0,0.0,1.0,0.5118595071429148,0.0232278910774843,wait_cost,0.0,2.0,193.10275387763977,None,pt3,2,2023-03-30_11h57.28.625,threat_forest,2021.2.3,59.93412582396306,False,20.0,0.4583333333333333,0.5069444444444444,-1.625,-0.9313271604938271,0,0,0,0.9411285715388482,0.0232278910774843,0.25,0.25,0.25,1.0,-1.25,-1.25,1.75,1.75,1.0,1.0,-1.0,3.0,0,0,0
5.0,0.0,5.0,0.0,3.0,0.0,3.0,0.0,,,,left,2.03511905670166,200.64687180519104,pt3,196.4279627799988,198.441832780838,200.64687180519104,None,False,2.0,['p'],False,0.2222222222222222,0.6666666666666666,0.6666666666666666,2.0,1.0,0.77250688571426,0.0021781764403292,wait_cost,1.0,1.0,198.441832780838,None,pt3,2,2023-03-30_11h57.28.625,threat_forest,2021.2.3,59.93412582396306,False,20.0,0.4583333333333333,0.5069444444444444,-1.625,-0.9313271604938271,0,0,0,0.7105543217049358,0.0021781764403292,0.2222222222222222,0.2222222222222222,0.6666666666666666,0.33333333333333337,-2.0,-2.0,0.0,0.0,0.0,1.0,-1.0,2.0,0,0,0
5.0,0.0,5.0,0.0,4.0,0.0,4.0,0.0,,,,right,1.4668009281158447,206.7963879108429,pt3,196.4279627799988,198.441832780838,206.7963879108429,None,True,1.0,['p'],False,0.2222222222222222,0.6666666666666666,0.6666666666666666,2.0,1.0,0.77250688571426,0.0540123456790123,fight_cost,1.0,0.0,204.73249292373657,None,pt3,2,2023-03-30_11h57.28.625,threat_forest,2021.2.3,59.93412582396306,True,20.0,0.4583333333333333,0.5069444444444444,-1.625,-0.9313271604938271,0,0,1,0.38308378996356884,0.0540123456790123,1.0,0.2222222222222222,0.6666666666666666,0.33333333333333337,-2.0,-2.0,-1.0,0.0,0.0,1.0,-1.0,1.0,1,0,0
6.0,0.0,6.0,0.0,0.0,0.0,0.0,0.0,212.49457383155823,215.99490690231323,None,left,1.6518330574035645,219.8251450061798,pt3,219.8251450061798,None,212.49457383155823,215.99490690231323,True,5.0,['p'],True,0.375,0.5,0.25,1.0,2.0,0.9850568223215076,0.0358735195754151,fight_cost,0.0,2.0,,,pt3,2,2023-03-30_11h57.28.625,threat_forest,2021.2.3,59.93412582396306,True,59.0,0.3611111111111111,0.4097222222222222,-1.1404320987654322,-1.382716049382716,1,0,1,0.5018856151519445,0.0358735195754151,0.375,0.375,0.5,0.75,-0.75,-0.75,4.25,4.25,1.0,2.0,-1.0,5.0,0,0,1
6.0,0.0,6.0,0.0,1.0,0.0,1.0,0.0,,,,left,1.2476370334625244,227.2953078746796,pt3,221.50137996673584,223.50375080108643,227.2953078746796,None,False,2.0,['p'],False,0.1728395061728395,0.2222222222222222,0.2222222222222222,2.0,2.0,0.8571721972794328,-0.0298469984512649,wait_cost,1.0,1.0,223.50375080108645,None,pt3,2,2023-03-30_11h57.28.625,threat_forest,2021.2.3,59.93412582396306,False,59.0,0.3611111111111111,0.4097222222222222,-1.1404320987654322,-1.382716049382716,0,0,0,0.22125138907380115,-0.0298469984512649,0.1728395061728395,0.1728395061728395,0.2222222222222222,0.7777777777777778,-1.7777777777777777,-1.5308641975308643,0.46913580246913567,0.46913580246913567,0.0,2.0,-1.0,2.0,0,0,0
6.0,0.0,6.0,0.0,2.0,0.0,2.0,0.0,,,,left,1.5193228721618652,234.3331799507141,pt3,234.3331799507141,None,228.5599308013916,230.5681607723236,True,1.0,['p'],True,0.375,0.5,0.25,1.0,2.0,0.9850568223215076,0.1390093416583739,succ_gain,0.0,3.0,230.5681607723236,None,pt3,2,2023-03-30_11h57.28.625,threat_forest,2021.2.3,59.93412582396306,True,59.0,0.3611111111111111,0.4097222222222222,-1.1404320987654322,-1.382716049382716,1,0,1,0.41826475676212954,0.1390093416583739,1.0,0.375,0.5,0.75,-0.75,-0.75,0.25,0.25,1.0,2.0,-1.0,1.0,1,0,1
6.0,0.0,6.0,0.0,3.0,0.0,3.0,0.0,,,,left,1.3365261554718018,239.74477982521057,pt3,235.88835883140564,237.90344882011414,239.74477982521057,None,False,3.0,['p'],False,0.1728395061728395,0.2222222222222222,0.2222222222222222,2.0,2.0,0.8571721972794328,-0.0839910479197434,wait_cost,1.0,2.0,237.9034488201141,None,pt3,2,2023-03-30_11h57.28.625,threat_forest,2021.2.3,59.93412582396306,False,59.0,0.3611111111111111,0.4097222222222222,-1.1404320987654322,-1.382716049382716,0,0,0,0.2900738265301491,-0.0839910479197434,0.1728395061728395,0.1728395061728395,0.2222222222222222,0.7777777777777778,-1.7777777777777777,-1.5308641975308643,1.4691358024691357,1.4691358024691357,0.0,2.0,1.0,3.0,0,0,0
6.0,0.0,6.0,0.0,4.0,0.0,4.0,0.0,,,,left,1.252958059310913,244.82911682128903,pt3,244.82911682128903,None,241.11075687408447,243.12531185150146,True,2.0,['p'],True,0.375,0.5,0.25,1.0,2.0,0.9850568223215076,0.1010802469135803,succ_gain,0.0,4.0,243.12531185150144,None,pt3,2,2023-03-30_11h57.28.625,threat_forest,2021.2.3,59.93412582396306,True,59.0,0.3611111111111111,0.4097222222222222,-1.1404320987654322,-1.382716049382716,1,0,1,0.2255072031357776,0.1010802469135803,0.375,0.375,0.5,0.75,-0.75,-0.75,1.25,1.25,1.0,2.0,-1.0,2.0,0,0,1
6.0,0.0,6.0,0.0,5.0,0.0,5.0,0.0,,,,left,0.9714138507843018,250.35623788833615,pt3,246.11930799484253,248.1317059993744,250.35623788833615,None,False,4.0,['p'],False,0.1728395061728395,0.2222222222222222,0.2222222222222222,2.0,2.0,0.8571721972794328,-0.5700112406645328,wait_cost,1.0,3.0,248.1317059993744,None,pt3,2,2023-03-30_11h57.28.625,threat_forest,2021.2.3,59.93412582396306,False,59.0,0.3611111111111111,0.4097222222222222,-1.1404320987654322,-1.382716049382716,0,0,0,-0.02900269059246456,-0.5700112406645328,0.0,0.1728395061728395,0.2222222222222222,0.7777777777777778,-1.7777777777777777,-1.5308641975308643,2.4691358024691357,2.4691358024691357,0.0,2.0,1.0,4.0,0,0,0
6.0,0.0,6.0,0.0,6.0,0.0,6.0,0.0,,,,left,0.4533119201660156,254.82440781593323,pt3,246.11930799484253,248.1317059993744,254.82440781593323,None,False,3.0,['p'],False,0.1728395061728395,0.2222222222222222,0.2222222222222222,2.0,2.0,0.8571721972794328,-0.6614559518366103,wait_cost,1.0,2.0,253.37108993530276,None,pt3,2,2023-03-30_11h57.28.625,threat_forest,2021.2.3,59.93412582396306,False,59.0,0.3611111111111111,0.4097222222222222,-1.1404320987654322,-1.382716049382716,0,0,0,-0.7911748249636601,-0.6614559518366103,0.0,0.1728395061728395,0.2222222222222222,0.7777777777777778,-1.7777777777777777,-1.5308641975308643,1.4691358024691357,1.4691358024691357,0.0,2.0,-1.0,3.0,0,0,0
6.0,0.0,6.0,0.0,7.0,0.0,7.0,0.0,,,,right,0.5839540958404541,258.1800329685211,pt3,258.1800329685211,None,255.3096349239349,257.3084599971771,False,2.0,['p'],True,0.375,0.5,0.25,1.0,2.0,0.9850568223215076,-0.625,wait_cost,0.0,1.0,257.3084599971771,None,pt3,2,2023-03-30_11h57.28.625,threat_forest,2021.2.3,59.93412582396306,False,59.0,0.3611111111111111,0.4097222222222222,-1.1404320987654322,-1.382716049382716,1,0,0,-0.5379329022562097,-0.625,0.0,0.375,0.5,0.75,-0.75,-0.75,1.25,1.25,1.0,2.0,-1.0,2.0,0,0,1
7.0,0.0,7.0,0.0,0.0,0.0,0.0,0.0,263.10281777381897,266.6025259494781,None,left,1.4296998977661133,269.1150269508362,pt3,263.10281777381897,266.60252594947815,269.1150269508362,None,False,4.0,['p'],False,0.2040816326530612,0.2857142857142857,0.2857142857142857,2.0,1.0,0.9335459102197724,0.0023337396678889,wait_cost,1.0,3.0,,,pt3,2,2023-03-30_11h57.28.625,threat_forest,2021.2.3,59.93412582396306,False,32.0,0.26785714285714285,0.314484126984127,-1.461734693877551,-1.3010833963214916,0,0,0,0.3574645605457489,0.0023337396678889,0.2040816326530612,0.2040816326530612,0.2857142857142857,0.7142857142857143,-2.0,-1.6734693877551021,2.326530612244898,2.326530612244898,0.0,1.0,-1.0,4.0,0,0,0
7.0,0.0,7.0,0.0,1.0,0.0,1.0,0.0,,,,left,1.786106824874878,275.2262418270111,pt3,263.10281777381897,266.60252594947815,275.2262418270111,None,False,3.0,['p'],False,0.2040816326530612,0.2857142857142857,0.2857142857142857,2.0,1.0,0.9335459102197724,0.006782822473906,wait_cost,1.0,2.0,272.5925009250641,None,pt3,2,2023-03-30_11h57.28.625,threat_forest,2021.2.3,59.93412582396306,False,32.0,0.26785714285714285,0.314484126984127,-1.461734693877551,-1.3010833963214916,0,0,0,0.5800382930255735,0.006782822473906,0.2040816326530612,0.2040816326530612,0.2857142857142857,0.7142857142857143,-2.0,-1.6734693877551021,1.3265306122448979,1.3265306122448979,0.0,1.0,-1.0,3.0,0,0,0
7.0,0.0,7.0,0.0,2.0,0.0,2.0,0.0,,,,left,1.650583028793335,280.68556785583496,pt3,263.10281777381897,266.60252594947815,280.68556785583496,None,False,2.0,['p'],False,0.2040816326530612,0.2857142857142857,0.2857142857142857,2.0,1.0,0.9335459102197724,0.0063965869811275,wait_cost,1.0,1.0,279.0500378608704,None,pt3,2,2023-03-30_11h57.28.625,threat_forest,2021.2.3,59.93412582396306,False,32.0,0.26785714285714285,0.314484126984127,-1.461734693877551,-1.3010833963214916,0,0,0,0.5011285762826426,0.0063965869811275,0.2040816326530612,0.2040816326530612,0.2857142857142857,0.7142857142857143,-2.0,-1.6734693877551021,0.3265306122448979,0.3265306122448979,0.0,1.0,-1.0,2.0,0,0,0
7.0,0.0,7.0,0.0,3.0,0.0,3.0,0.0,,,,left,1.1100308895111084,286.1787669658661,pt3,286.1787669658661,None,282.35680389404297,284.3558728694916,True,1.0,['p'],True,0.25,0.25,0.0,0.0,1.0,0.5118595071429148,0.0210069343914418,unsucc_cost,0.0,0.0,284.3558728694916,None,pt3,2,2023-03-30_11h57.28.625,threat_forest,2021.2.3,59.93412582396306,True,32.0,0.26785714285714285,0.314484126984127,-1.461734693877551,-1.3010833963214916,1,0,1,0.10438784332542629,0.0210069343914418,1.0,0.25,0.25,1.0,-1.25,-1.25,-0.25,0.0,1.0,1.0,-1.0,1.0,1,0,1
8.0,0.0,8.0,0.0,0.0,0.0,0.0,0.0,290.7988648414612,294.30981397628784,None,right,1.1294400691986084,296.477746963501,pt3,290.7988648414612,294.30981397628784,296.477746963501,None,True,4.0,['r'],False,0.375,0.5,0.25,1.0,2.0,0.9850568223215076,0.0505551995468139,succ_gain,1.0,6.0,,,pt3,2,2023-03-30_11h57.28.625,threat_forest,2021.2.3,59.93412582396306,True,45.0,0.35,0.30892857142857144,-0.9750000000000001,-1.2183673469387757,1,1,1,0.1217219959330926,0.0505551995468139,0.375,0.375,0.5,0.75,-0.75,-0.75,3.25,3.25,0.0,2.0,-1.0,4.0,0,1,1
8.0,0.0,8.0,0.0,1.0,0.0,1.0,0.0,,,,left,1.0868680477142334,302.9413969516754,pt3,290.7988648414612,294.30981397628784,302.9413969516754,None,False,6.0,['r'],False,0.375,0.5,0.25,1.0,2.0,0.9850568223215076,-0.0734960487365723,wait_cost,1.0,5.0,299.6401038169861,None,pt3,2,2023-03-30_11h57.28.625,threat_forest,2021.2.3,59.93412582396306,False,45.0,0.35,0.30892857142857144,-0.9750000000000001,-1.2183673469387757,1,1,0,0.08330020952330323,-0.0734960487365723,0.375,0.375,0.5,0.75,-0.75,-0.75,5.25,5.25,0.0,2.0,1.0,6.0,0,1,1
8.0,0.0,8.0,0.0,2.0,0.0,2.0,0.0,,,,right,0.745246171951294,307.4289939403534,pt3,290.7988648414612,294.30981397628784,307.4289939403534,None,True,5.0,['r'],False,0.375,0.5,0.25,1.0,2.0,0.9850568223215076,0.0588221282958985,unsucc_cost,1.0,3.0,306.08081889152527,None,pt3,2,2023-03-30_11h57.28.625,threat_forest,2021.2.3,59.93412582396306,True,45.0,0.35,0.30892857142857144,-0.9750000000000001,-1.2183673469387757,1,1,1,-0.2940406830338692,0.0588221282958985,0.375,0.375,0.5,0.75,-0.75,-0.75,4.25,4.25,0.0,2.0,-1.0,5.0,0,1,1
8.0,0.0,8.0,0.0,3.0,0.0,3.0,0.0,,,,right,1.26784086227417,310.7322688102722,pt3,290.7988648414612,294.30981397628784,310.7322688102722,None,True,3.0,['r'],False,0.375,0.5,0.25,1.0,2.0,0.9850568223215076,0.0929562988281249,succ_gain,1.0,5.0,310.2020537853241,None,pt3,2,2023-03-30_11h57.28.625,threat_forest,2021.2.3,59.93412582396306,True,45.0,0.35,0.30892857142857144,-0.9750000000000001,-1.2183673469387757,1,1,1,0.23731534520052963,0.0929562988281249,0.375,0.375,0.5,0.75,-0.75,-0.75,2.25,2.25,0.0,2.0,-1.0,3.0,0,1,1
8.0,0.0,8.0,0.0,4.0,0.0,4.0,0.0,,,,left,1.8210780620574951,315.85591077804565,pt3,290.7988648414612,294.30981397628784,315.85591077804565,None,False,5.0,['r'],False,0.375,0.5,0.25,1.0,2.0,0.9850568223215076,-0.37103515625,wait_cost,1.0,4.0,314.0397839546204,None,pt3,2,2023-03-30_11h57.28.625,threat_forest,2021.2.3,59.93412582396306,False,45.0,0.35,0.30892857142857144,-0.9750000000000001,-1.2183673469387757,1,1,0,0.5994286675133857,-0.37103515625,0.0,0.375,0.5,0.75,-0.75,-0.75,4.25,4.25,0.0,2.0,1.0,5.0,0,1,1
8.0,0.0,8.0,0.0,5.0,0.0,5.0,0.0,,,,left,0.5452728271484375,322.42883491516113,pt3,290.7988648414612,294.30981397628784,322.42883491516113,None,False,4.0,['r'],False,0.375,0.5,0.25,1.0,2.0,0.9850568223215076,-0.42890625,wait_cost,1.0,3.0,319.7124378681183,None,pt3,2,2023-03-30_11h57.28.625,threat_forest,2021.2.3,59.93412582396306,False,45.0,0.35,0.30892857142857144,-0.9750000000000001,-1.2183673469387757,1,1,0,-0.6064690093050458,-0.42890625,0.0,0.375,0.5,0.75,-0.75,-0.75,3.25,3.25,0.0,2.0,-1.0,4.0,0,1,1
8.0,0.0,8.0,0.0,6.0,0.0,6.0,0.0,,,,left,0.9058480262756348,326.9686448574066,pt3,290.7988648414612,294.30981397628784,326.9686448574066,None,False,3.0,['r'],False,0.375,0.5,0.25,1.0,2.0,0.9850568223215076,-0.5171875,wait_cost,1.0,2.0,325.0189599990845,None,pt3,2,2023-03-30_11h57.28.625,threat_forest,2021.2.3,59.93412582396306,False,45.0,0.35,0.30892857142857144,-0.9750000000000001,-1.2183673469387757,1,1,0,-0.09888372842694444,-0.5171875,0.0,0.375,0.5,0.75,-0.75,-0.75,2.25,2.25,0.0,2.0,-1.0,3.0,0,1,1
8.0,0.0,8.0,0.0,7.0,0.0,7.0,0.0,,,,right,0.6527020931243896,332.45098185539246,pt3,332.45098185539246,None,327.9094657897949,329.92414593696594,False,2.0,['r'],True,0.2,0.2,0.0,0.0,2.0,0.4554859150035951,-0.8,wait_cost,0.0,1.0,329.92414593696594,None,pt3,2,2023-03-30_11h57.28.625,threat_forest,2021.2.3,59.93412582396306,False,45.0,0.35,0.30892857142857144,-0.9750000000000001,-1.2183673469387757,1,0,0,-0.4266344664755854,-0.8,0.0,0.2,0.2,1.0,-1.2000000000000002,-1.2000000000000002,0.7999999999999998,0.7999999999999998,1.0,2.0,-1.0,2.0,0,0,1
9.0,0.0,9.0,0.0,0.0,0.0,0.0,0.0,338.575642824173,342.08752179145813,None,left,1.5577499866485596,342.8852059841156,pt3,338.575642824173,342.08752179145813,342.8852059841156,None,False,5.0,['p'],False,0.1875,0.25,0.25,2.0,1.0,0.895754137500101,-0.0556173947611532,wait_cost,1.0,4.0,,,pt3,2,2023-03-30_11h57.28.625,threat_forest,2021.2.3,59.93412582396306,False,57.0,0.4583333333333333,0.4041666666666667,-1.34375,-1.159375,0,0,0,0.44324246387121663,-0.0556173947611532,0.1875,0.1875,0.25,0.75,-2.0,-1.6875,3.3125,3.3125,0.0,1.0,-1.0,5.0,0,0,0
9.0,0.0,9.0,0.0,1.0,0.0,1.0,0.0,,,,left,1.6944749355316162,349.96402192115784,pt3,338.575642824173,342.08752179145813,349.96402192115784,None,False,4.0,['p'],False,0.1875,0.25,0.25,2.0,1.0,0.895754137500101,-0.0404897820049361,wait_cost,1.0,3.0,346.4763939380646,None,pt3,2,2023-03-30_11h57.28.625,threat_forest,2021.2.3,59.93412582396306,False,57.0,0.4583333333333333,0.4041666666666667,-1.34375,-1.159375,0,0,0,0.527372920295268,-0.0404897820049361,0.1875,0.1875,0.25,0.75,-2.0,-1.6875,2.3125,2.3125,0.0,1.0,-1.0,4.0,0,0,0
9.0,0.0,9.0,0.0,2.0,0.0,2.0,0.0,,,,left,0.8227479457855225,356.7236177921295,pt3,338.575642824173,342.08752179145813,356.7236177921295,None,False,3.0,['p'],False,0.1875,0.25,0.25,2.0,1.0,0.895754137500101,-0.0376630692815583,wait_cost,1.0,2.0,353.6844708919525,None,pt3,2,2023-03-30_11h57.28.625,threat_forest,2021.2.3,59.93412582396306,False,57.0,0.4583333333333333,0.4041666666666667,-1.34375,-1.159375,0,0,0,-0.19510538792810977,-0.0376630692815583,0.1875,0.1875,0.25,0.75,-2.0,-1.6875,1.3125,1.3125,0.0,1.0,-1.0,3.0,0,0,0
9.0,0.0,9.0,0.0,3.0,0.0,3.0,0.0,,,,left,1.1401481628417969,360.21048879623413,pt3,360.21048879623413,None,357.57593297958374,359.59123492240906,True,2.0,['p'],True,0.4444444444444445,0.6666666666666666,0.3333333333333333,1.0,1.0,0.9656336071428248,0.0690535068729994,unsucc_cost,0.0,0.0,359.59123492240906,None,pt3,2,2023-03-30_11h57.28.625,threat_forest,2021.2.3,59.93412582396306,True,57.0,0.4583333333333333,0.4041666666666667,-1.34375,-1.159375,1,1,1,0.13115822136645758,0.0690535068729994,0.4444444444444445,0.4444444444444445,0.6666666666666666,0.6666666666666667,-1.0,-1.0,1.0,1.0,1.0,1.0,-1.0,2.0,0,1,1
10.0,0.0,10.0,0.0,0.0,0.0,0.0,0.0,364.31574392318726,367.81680178642273,None,left,0.601431131362915,369.9610209465027,pt3,369.9610209465027,None,364.31574392318726,367.81680178642273,True,4.0,['p'],True,0.2222222222222222,0.6666666666666666,0.6666666666666666,2.0,2.0,0.77250688571426,-0.0033451223961741,unsucc_cost,0.0,2.0,,,pt3,2,2023-03-30_11h57.28.625,threat_forest,2021.2.3,59.93412582396306,True,34.0,0.4583333333333333,0.4583333333333333,-1.3888888888888888,-1.3663194444444444,0,0,1,-0.5084432449471827,-0.0033451223961741,0.2222222222222222,0.2222222222222222,0.6666666666666666,0.33333333333333337,-1.3333333333333335,-1.777777777777778,2.2222222222222223,2.2222222222222223,1.0,2.0,-1.0,4.0,0,0,0
10.0,0.0,10.0,0.0,1.0,0.0,1.0,0.0,,,,right,1.1034998893737793,375.8319778442383,pt3,370.5881087779999,372.58914279937744,375.8319778442383,None,True,2.0,['p'],False,0.25,0.25,0.0,0.0,2.0,0.5118595071429148,0.0110650198467983,unsucc_cost,1.0,0.0,372.58914279937744,None,pt3,2,2023-03-30_11h57.28.625,threat_forest,2021.2.3,59.93412582396306,True,34.0,0.4583333333333333,0.4583333333333333,-1.3888888888888888,-1.3663194444444444,1,0,1,0.09848684646433574,0.0110650198467983,0.25,0.25,0.25,1.0,-1.0,-1.0,1.0,1.0,0.0,2.0,-1.0,2.0,0,0,1
11.0,0.0,11.0,0.0,0.0,0.0,0.0,0.0,382.21113991737366,385.715206861496,None,right,1.767412185668945,387.9501569271088,pt3,382.21113991737366,385.715206861496,387.9501569271088,None,True,5.0,['r'],False,0.4285714285714285,0.4285714285714285,0.0,0.0,2.0,0.6216097450797565,0.0526055132283747,succ_gain,1.0,6.0,,,pt3,2,2023-03-30_11h57.28.625,threat_forest,2021.2.3,59.93412582396306,True,52.0,0.43650793650793646,0.4474206349206349,-0.5626102292768962,-0.9757495590828925,1,0,1,0.5695164347645129,0.0526055132283747,0.4285714285714285,0.4285714285714285,0.4285714285714285,1.0,-0.28571428571428603,-0.28571428571428603,4.7142857142857135,4.7142857142857135,0.0,2.0,-1.0,5.0,0,0,1
11.0,0.0,11.0,0.0,1.0,0.0,1.0,0.0,,,,left,0.9934940338134766,394.69367480278015,pt3,382.21113991737366,385.715206861496,394.69367480278015,None,False,6.0,['r'],False,0.4285714285714285,0.4285714285714285,0.0,0.0,2.0,0.6216097450797565,-0.0377659661652755,wait_cost,1.0,5.0,391.76046991348267,None,pt3,2,2023-03-30_11h57.28.625,threat_forest,2021.2.3,59.93412582396306,False,52.0,0.43650793650793646,0.4474206349206349,-0.5626102292768962,-0.9757495590828925,1,0,0,-0.006527222228753326,-0.0377659661652755,0.4285714285714285,0.4285714285714285,0.4285714285714285,1.0,-0.28571428571428603,-0.28571428571428603,5.7142857142857135,5.7142857142857135,0.0,2.0,1.0,6.0,0,0,1
11.0,0.0,11.0,0.0,2.0,0.0,2.0,0.0,,,,right,1.9389688968658447,398.4165198802948,pt3,382.21113991737366,385.715206861496,398.4165198802948,None,True,5.0,['r'],False,0.4285714285714285,0.4285714285714285,0.0,0.0,2.0,0.6216097450797565,0.0928173353857788,unsucc_cost,1.0,3.0,397.73355984687805,None,pt3,2,2023-03-30_11h57.28.625,threat_forest,2021.2.3,59.93412582396306,True,52.0,0.43650793650793646,0.4474206349206349,-0.5626102292768962,-0.9757495590828925,1,0,1,0.6621563353200208,0.0928173353857788,0.4285714285714285,0.4285714285714285,0.4285714285714285,1.0,-0.28571428571428603,-0.28571428571428603,4.7142857142857135,4.7142857142857135,0.0,2.0,-1.0,5.0,0,0,1
11.0,0.0,11.0,0.0,3.0,0.0,3.0,0.0,,,,right,1.889143943786621,404.13053584098816,pt3,404.13053584098816,None,400.3910858631134,402.40614891052246,False,3.0,['r'],True,0.345679012345679,0.4444444444444444,0.2222222222222222,2.0,2.0,0.9685033186841367,0.0350802265993923,wait_cost,0.0,2.0,402.40614891052246,None,pt3,2,2023-03-30_11h57.28.625,threat_forest,2021.2.3,59.93412582396306,False,52.0,0.43650793650793646,0.4474206349206349,-0.5626102292768962,-0.9757495590828925,1,0,0,0.6361237866678986,0.0350802265993923,0.345679012345679,0.345679012345679,0.4444444444444444,0.7777777777777778,-0.888888888888889,-0.8395061728395062,2.1604938271604937,2.1604938271604937,1.0,2.0,-1.0,3.0,0,0,1
