miniblock.thisRepN,miniblock.thisTrialN,miniblock.thisN,miniblock.thisIndex,day.thisRepN,day.thisTrialN,day.thisN,day.thisIndex,forest.started,fixation_forest.started,fixation_forest.stopped,key_resp.keys,key_resp.rt,key_resp.started,Subject_ID,weather_left.started,weather_left.stopped,weather_right.started,weather_right.stopped,foraging T/F,in_LP,p/r heuristic,good_weather.T/F,p_succ_correct,p_succ_uncorrected,r_threat,n_oponents,gain_if_succ,weather_entropy,OP_value_difference,action_outcome,forest_side_L=0_R=1,out_LP,fixation_day.started,fixation_day.stopped,participant,session,date,expName,psychopyVersion,frameRate,foraging T/F NaNs,fora_NR,forest_mean_p,mvt_cutoff_p,forest_mean_ev,mvt_cutoff_ev,mvt_policy_eg,mvt_policy_p,fora_response,logRT,optimal policy,$\mathit{p}$ success cor + cap,$\mathit{p}$ success cor,$\mathit{p}$ success,risk threat encounter,expected gain naive,expected gain correct,expected state no bounds,expected state with bounds,weather type,gain magnitude,win stay lose shift,continuous energy state,binary energy state,$\mathit{p}$ success based MVT,expected gain based MVT
0.0,0.0,0.0,0.0,0.0,0.0,0.0,0.0,28.119590099988272,31.619989600003464,None,right,2.969297600007849,33.65342000001692,xm15,33.65342000001692,None,28.119590099988272,31.619989600003464,False,5.0,['p'],True,0.2448979591836734,0.2857142857142857,0.1428571428571428,1.0,1.0,0.8400769154957735,-0.0213375421468753,wait_cost,0.0,4.0,,,xm15,1,2023-03-20_11h32.12.195,threat_forest,2021.2.3,59.997468115504944,False,13.0,0.47619047619047616,0.47619047619047616,-1.2040816326530612,-1.2040816326530612,0,0,0,1.0883254265306164,-0.0213375421468753,0.2448979591836734,0.2448979591836734,0.2857142857142857,0.8571428571428572,-1.5714285714285712,-1.4081632653061225,3.5918367346938775,3.5918367346938775,1.0,1.0,,5.0,0,0,0
0.0,0.0,0.0,0.0,1.0,0.0,1.0,0.0,,,,right,2.6574775999761187,42.44352930001333,xm15,42.44352930001333,None,28.119590099988272,31.619989600003464,False,4.0,['p'],True,0.2448979591836734,0.2857142857142857,0.1428571428571428,1.0,1.0,0.8400769154957735,-0.0095054482418793,wait_cost,0.0,3.0,38.663386100000935,None,xm15,1,2023-03-20_11h32.12.195,threat_forest,2021.2.3,59.997468115504944,False,13.0,0.47619047619047616,0.47619047619047616,-1.2040816326530612,-1.2040816326530612,0,0,0,0.9773774022148553,-0.0095054482418793,0.2448979591836734,0.2448979591836734,0.2857142857142857,0.8571428571428572,-1.5714285714285712,-1.4081632653061225,2.5918367346938775,2.5918367346938775,1.0,1.0,-1.0,4.0,0,0,0
0.0,0.0,0.0,0.0,2.0,0.0,2.0,0.0,,,,right,1.168956999987131,50.819128300005104,xm15,45.12437959999079,47.1387437999947,50.819128300005104,None,True,3.0,['p'],False,0.4444444444444445,0.6666666666666666,0.3333333333333333,1.0,1.0,0.9656336071428248,0.0630833959814914,succ_gain,1.0,4.0,47.1387437999947,None,xm15,1,2023-03-20_11h32.12.195,threat_forest,2021.2.3,59.997468115504944,True,13.0,0.47619047619047616,0.47619047619047616,-1.2040816326530612,-1.2040816326530612,1,0,1,0.15611189822668434,0.0630833959814914,0.4444444444444445,0.4444444444444445,0.6666666666666666,0.6666666666666667,-1.0,-1.0,2.0,2.0,0.0,1.0,-1.0,3.0,0,0,1
0.0,0.0,0.0,0.0,3.0,0.0,3.0,0.0,,,,right,1.8606550999975295,55.79778819999774,xm15,45.12437959999079,47.1387437999947,55.79778819999774,None,True,4.0,['p'],False,0.4444444444444445,0.6666666666666666,0.3333333333333333,1.0,1.0,0.9656336071428248,0.0943966661251811,figh_cost,1.0,1.0,54.03240279998863,None,xm15,1,2023-03-20_11h32.12.195,threat_forest,2021.2.3,59.997468115504944,True,13.0,0.47619047619047616,0.47619047619047616,-1.2040816326530612,-1.2040816326530612,1,0,1,0.6209286300154822,0.0943966661251811,0.4444444444444445,0.4444444444444445,0.6666666666666666,0.6666666666666667,-1.0,-1.0,3.0,3.0,0.0,1.0,1.0,4.0,0,0,1
0.0,0.0,0.0,0.0,4.0,0.0,4.0,0.0,,,,right,0.8742524999834131,61.209366399998544,xm15,45.12437959999079,47.1387437999947,61.209366399998544,None,True,1.0,['p'],False,0.4444444444444445,0.6666666666666666,0.3333333333333333,1.0,1.0,0.9656336071428248,0.1753590325018896,unsucc_cost,1.0,0.0,59.693796900013695,None,xm15,1,2023-03-20_11h32.12.195,threat_forest,2021.2.3,59.997468115504944,True,13.0,0.47619047619047616,0.47619047619047616,-1.2040816326530612,-1.2040816326530612,1,0,1,-0.1343860434677754,0.1753590325018896,1.0,0.4444444444444445,0.6666666666666666,0.6666666666666667,-1.0,-1.0,0.0,0.0,0.0,1.0,-1.0,1.0,1,0,1
1.0,0.0,1.0,0.0,0.0,0.0,0.0,0.0,66.23650450000423,69.75108109999564,None,None,,72.48408679998829,xm15,66.23650450000423,69.75108109999564,72.48408679998829,None,False,5.0,['p'],False,0.2,0.2,0.0,0.0,1.0,0.4554859150035951,-0.0328286525992537,wait_cost,1.0,4.0,,,xm15,1,2023-03-20_11h32.12.195,threat_forest,2021.2.3,59.997468115504944,None,39.0,0.43333333333333335,0.45476190476190476,-1.2000000000000002,-1.2020408163265306,0,0,0,,-0.0328286525992537,0.2,0.2,0.2,1.0,-1.4000000000000001,-1.4000000000000001,3.5999999999999996,3.5999999999999996,0.0,1.0,-1.0,5.0,0,0,0
1.0,0.0,1.0,0.0,1.0,0.0,1.0,0.0,,,,left,1.4452165999973658,80.09206299998914,xm15,80.09206299998914,None,75.49618789998931,77.51049690000946,True,4.0,['p'],True,0.4444444444444445,0.6666666666666666,0.3333333333333333,1.0,1.0,0.9656336071428248,0.0722068366949482,succ_gain,0.0,5.0,77.51049690000946,None,xm15,1,2023-03-20_11h32.12.195,threat_forest,2021.2.3,59.997468115504944,True,39.0,0.43333333333333335,0.45476190476190476,-1.2000000000000002,-1.2020408163265306,1,0,1,0.3682592065230325,0.0722068366949482,0.4444444444444445,0.4444444444444445,0.6666666666666666,0.6666666666666667,-1.0,-1.0,3.0,3.0,1.0,1.0,-1.0,4.0,0,0,1
1.0,0.0,1.0,0.0,2.0,0.0,2.0,0.0,,,,left,2.096198099985486,87.23700009999448,xm15,81.55700430000434,83.57140549999895,87.23700009999448,None,False,5.0,['p'],False,0.2,0.2,0.0,0.0,1.0,0.4554859150035951,-0.0861207742722146,wait_cost,1.0,4.0,83.57140549999895,None,xm15,1,2023-03-20_11h32.12.195,threat_forest,2021.2.3,59.997468115504944,False,39.0,0.43333333333333335,0.45476190476190476,-1.2000000000000002,-1.2020408163265306,0,0,0,0.7401252753445442,-0.0861207742722146,0.2,0.2,0.2,1.0,-1.4000000000000001,-1.4000000000000001,3.5999999999999996,3.5999999999999996,0.0,1.0,1.0,5.0,0,0,0
1.0,0.0,1.0,0.0,3.0,0.0,3.0,0.0,,,,left,0.9606977999792434,92.04712950001704,xm15,92.04712950001704,None,89.34973190000164,91.36422769998899,True,4.0,['p'],True,0.4444444444444445,0.6666666666666666,0.3333333333333333,1.0,1.0,0.9656336071428248,0.09577351013565,unsucc_cost,0.0,2.0,91.364227699989,None,xm15,1,2023-03-20_11h32.12.195,threat_forest,2021.2.3,59.997468115504944,True,39.0,0.43333333333333335,0.45476190476190476,-1.2000000000000002,-1.2020408163265306,1,0,1,-0.04009538358754927,0.09577351013565,0.4444444444444445,0.4444444444444445,0.6666666666666666,0.6666666666666667,-1.0,-1.0,3.0,3.0,1.0,1.0,-1.0,4.0,0,0,1
1.0,0.0,1.0,0.0,4.0,0.0,4.0,0.0,,,,left,2.226480500015896,97.70893600001,xm15,97.70893600001,None,89.34973190000164,91.36422769998899,True,2.0,['p'],True,0.4444444444444445,0.6666666666666666,0.3333333333333333,1.0,1.0,0.9656336071428248,0.0928875171467763,succ_gain,0.0,3.0,95.0440232999972,None,xm15,1,2023-03-20_11h32.12.195,threat_forest,2021.2.3,59.997468115504944,True,39.0,0.43333333333333335,0.45476190476190476,-1.2000000000000002,-1.2020408163265306,1,0,1,0.8004220876078273,0.0928875171467763,0.4444444444444445,0.4444444444444445,0.6666666666666666,0.6666666666666667,-1.0,-1.0,1.0,1.0,1.0,1.0,-1.0,2.0,0,0,1
1.0,0.0,1.0,0.0,5.0,0.0,5.0,0.0,,,,None,,103.24069790000794,xm15,99.95640450000064,101.97102890000679,103.24069790000794,None,False,3.0,['p'],False,0.2,0.2,0.0,0.0,1.0,0.4554859150035951,0.0744444444444444,wait_cost,1.0,2.0,101.9710289000068,None,xm15,1,2023-03-20_11h32.12.195,threat_forest,2021.2.3,59.997468115504944,None,39.0,0.43333333333333335,0.45476190476190476,-1.2000000000000002,-1.2020408163265306,0,0,0,,0.0744444444444444,0.2,0.2,0.2,1.0,-1.4000000000000001,-1.4000000000000001,1.5999999999999999,1.5999999999999999,0.0,1.0,1.0,3.0,0,0,0
1.0,0.0,1.0,0.0,6.0,0.0,6.0,0.0,,,,None,,111.8953446999949,xm15,99.95640450000064,101.97102890000679,111.8953446999949,None,False,2.0,['p'],False,0.2,0.2,0.0,0.0,1.0,0.4554859150035951,-0.1222222222222222,wait_cost,1.0,1.0,108.2651171000034,None,xm15,1,2023-03-20_11h32.12.195,threat_forest,2021.2.3,59.997468115504944,None,39.0,0.43333333333333335,0.45476190476190476,-1.2000000000000002,-1.2020408163265306,0,0,0,,-0.1222222222222222,0.2,0.2,0.2,1.0,-1.4000000000000001,-1.4000000000000001,0.5999999999999999,0.5999999999999999,0.0,1.0,-1.0,2.0,0,0,0
1.0,0.0,1.0,0.0,7.0,0.0,7.0,0.0,,,,left,0.868357199971797,118.7721992000006,xm15,118.7721992000006,None,114.9095701999904,116.92371400000411,True,1.0,['p'],True,0.4444444444444445,0.6666666666666666,0.3333333333333333,1.0,1.0,0.9656336071428248,0.4444444444444444,unsucc_cost,0.0,0.0,116.92371400000413,None,xm15,1,2023-03-20_11h32.12.195,threat_forest,2021.2.3,59.997468115504944,True,39.0,0.43333333333333335,0.45476190476190476,-1.2000000000000002,-1.2020408163265306,1,0,1,-0.14115212826837387,0.4444444444444444,1.0,0.4444444444444445,0.6666666666666666,0.6666666666666667,-1.0,-1.0,0.0,0.0,1.0,1.0,-1.0,1.0,1,0,1
2.0,0.0,2.0,0.0,0.0,0.0,0.0,0.0,124.44119509999292,127.94663570000556,None,left,0.9104192999948282,131.62740550001035,xm15,131.62740550001035,None,124.44119509999292,127.94663570000557,True,5.0,['r'],True,0.25,0.25,0.0,0.0,2.0,0.5118595071429148,0.0251257176546289,succ_gain,0.0,6.0,,,xm15,1,2023-03-20_11h32.12.195,threat_forest,2021.2.3,59.997468115504944,True,17.0,0.26785714285714285,0.35059523809523807,-1.2346938775510203,-1.2173469387755103,1,0,1,-0.0938500163676977,0.0251257176546289,0.25,0.25,0.25,1.0,-1.0,-1.0,4.0,4.0,1.0,2.0,-1.0,5.0,0,0,1
2.0,0.0,2.0,0.0,1.0,0.0,1.0,0.0,,,,None,,136.37243389998912,xm15,136.37243389998912,None,124.44119509999292,127.94663570000557,False,6.0,['r'],True,0.25,0.25,0.0,0.0,2.0,0.5118595071429148,-0.0742830914066285,wait_cost,0.0,5.0,134.573896899994,None,xm15,1,2023-03-20_11h32.12.195,threat_forest,2021.2.3,59.997468115504944,None,17.0,0.26785714285714285,0.35059523809523807,-1.2346938775510203,-1.2173469387755103,1,0,0,,-0.0742830914066285,0.25,0.25,0.25,1.0,-1.0,-1.0,5.0,5.0,1.0,2.0,1.0,6.0,0,0,1
2.0,0.0,2.0,0.0,2.0,0.0,2.0,0.0,,,,right,2.026342899975134,142.11714290000964,xm15,142.11714290000964,None,124.44119509999292,127.94663570000557,False,5.0,['r'],True,0.25,0.25,0.0,0.0,2.0,0.5118595071429148,0.060495146856459,wait_cost,0.0,4.0,141.40079770001466,None,xm15,1,2023-03-20_11h32.12.195,threat_forest,2021.2.3,59.997468115504944,False,17.0,0.26785714285714285,0.35059523809523807,-1.2346938775510203,-1.2173469387755103,1,0,0,0.706232641246305,0.060495146856459,0.25,0.25,0.25,1.0,-1.0,-1.0,4.0,4.0,1.0,2.0,-1.0,5.0,0,0,1
2.0,0.0,2.0,0.0,3.0,0.0,3.0,0.0,,,,left,2.238596000010148,149.61039250000613,xm15,149.61039250000613,None,124.44119509999292,127.94663570000557,True,4.0,['r'],True,0.25,0.25,0.0,0.0,2.0,0.5118595071429148,0.0587906080799667,unsucc_cost,0.0,2.0,146.17965579999145,None,xm15,1,2023-03-20_11h32.12.195,threat_forest,2021.2.3,59.997468115504944,True,17.0,0.26785714285714285,0.35059523809523807,-1.2346938775510203,-1.2173469387755103,1,0,1,0.8058488836449118,0.0587906080799667,0.25,0.25,0.25,1.0,-1.0,-1.0,3.0,3.0,1.0,2.0,-1.0,4.0,0,0,1
2.0,0.0,2.0,0.0,4.0,0.0,4.0,0.0,,,,None,,157.1031079000095,xm15,157.1031079000095,None,124.44119509999292,127.94663570000557,False,2.0,['r'],True,0.25,0.25,0.0,0.0,2.0,0.5118595071429148,0.0229591836734693,wait_cost,0.0,1.0,153.88907710000058,None,xm15,1,2023-03-20_11h32.12.195,threat_forest,2021.2.3,59.997468115504944,None,17.0,0.26785714285714285,0.35059523809523807,-1.2346938775510203,-1.2173469387755103,1,0,0,,0.0229591836734693,0.25,0.25,0.25,1.0,-1.0,-1.0,1.0,1.0,1.0,2.0,-1.0,2.0,0,0,1
2.0,0.0,2.0,0.0,5.0,0.0,5.0,0.0,,,,left,0.6775463000230957,164.41291439998895,xm15,164.41291439998895,None,124.44119509999292,127.94663570000557,True,1.0,['r'],True,0.25,0.25,0.0,0.0,2.0,0.5118595071429148,0.25,succ_gain,0.0,3.0,162.13153690000763,None,xm15,1,2023-03-20_11h32.12.195,threat_forest,2021.2.3,59.997468115504944,True,17.0,0.26785714285714285,0.35059523809523807,-1.2346938775510203,-1.2173469387755103,1,0,1,-0.38927738904583514,0.25,1.0,0.25,0.25,1.0,-1.0,-1.0,0.0,0.0,1.0,2.0,-1.0,1.0,1,0,1
2.0,0.0,2.0,0.0,6.0,0.0,6.0,0.0,,,,left,1.6440780999837443,169.9099300999951,xm15,165.11227099999087,167.12677450000774,169.9099300999951,None,False,3.0,['r'],False,0.2040816326530612,0.2857142857142857,0.2857142857142857,2.0,2.0,0.9335459102197724,-0.6800812161599334,wait_cost,1.0,2.0,167.12677450000774,None,xm15,1,2023-03-20_11h32.12.195,threat_forest,2021.2.3,59.997468115504944,False,17.0,0.26785714285714285,0.35059523809523807,-1.2346938775510203,-1.2173469387755103,0,0,0,0.4971798015784476,-0.6800812161599334,0.0,0.2040816326530612,0.2857142857142857,0.7142857142857143,-1.7142857142857144,-1.4693877551020407,1.5306122448979593,1.5306122448979593,0.0,2.0,1.0,3.0,0,0,0
2.0,0.0,2.0,0.0,7.0,0.0,7.0,0.0,,,,left,1.145122200017795,175.98555750001103,xm15,165.11227099999087,167.12677450000774,175.98555750001103,None,False,2.0,['r'],False,0.2040816326530612,0.2857142857142857,0.2857142857142857,2.0,2.0,0.9335459102197724,-0.7959183673469388,wait_cost,1.0,1.0,173.5873939000012,None,xm15,1,2023-03-20_11h32.12.195,threat_forest,2021.2.3,59.997468115504944,False,17.0,0.26785714285714285,0.35059523809523807,-1.2346938775510203,-1.2173469387755103,0,0,0,0.13551135621787647,-0.7959183673469388,0.0,0.2040816326530612,0.2857142857142857,0.7142857142857143,-1.7142857142857144,-1.4693877551020407,0.5306122448979593,0.5306122448979593,0.0,2.0,-1.0,2.0,0,0,0
3.0,0.0,3.0,0.0,0.0,0.0,0.0,0.0,182.7232477999933,186.2255679999944,None,left,2.551406600017799,189.87413360000937,xm15,182.7232477999933,186.22556799999438,189.87413360000937,None,False,5.0,['p'],False,0.2222222222222222,0.2222222222222222,0.0,0.0,1.0,0.4821593609696809,-0.020784644955884,wait_cost,1.0,4.0,,,xm15,1,2023-03-20_11h32.12.195,threat_forest,2021.2.3,59.997468115504944,False,56.0,0.4444444444444444,0.3561507936507936,-1.1666666666666667,-1.2006802721088436,0,0,0,0.9366448149407649,-0.020784644955884,0.2222222222222222,0.2222222222222222,0.2222222222222222,1.0,-1.3333333333333335,-1.3333333333333335,3.6666666666666665,3.6666666666666665,0.0,1.0,-1.0,5.0,0,0,0
3.0,0.0,3.0,0.0,1.0,0.0,1.0,0.0,,,,left,0.818098599993391,197.78178600000683,xm15,197.78178600000683,None,192.45363629999335,194.46798720001243,True,4.0,['p'],True,0.4444444444444445,0.6666666666666666,0.3333333333333333,1.0,1.0,0.9656336071428248,0.072691747531711,succ_gain,0.0,5.0,194.46798720001243,None,xm15,1,2023-03-20_11h32.12.195,threat_forest,2021.2.3,59.997468115504944,True,56.0,0.4444444444444444,0.3561507936507936,-1.1666666666666667,-1.2006802721088436,1,1,1,-0.20077241175426663,0.072691747531711,0.4444444444444445,0.4444444444444445,0.6666666666666666,0.6666666666666667,-1.0,-1.0,3.0,3.0,1.0,1.0,-1.0,4.0,0,1,1
3.0,0.0,3.0,0.0,2.0,0.0,2.0,0.0,,,,left,2.972949899995001,204.12626710001496,xm15,204.12626710001496,None,192.45363629999335,194.46798720001243,True,5.0,['p'],True,0.4444444444444445,0.6666666666666666,0.3333333333333333,1.0,1.0,0.9656336071428248,0.0741693339429965,unsucc_cost,0.0,3.0,200.64544100000057,None,xm15,1,2023-03-20_11h32.12.195,threat_forest,2021.2.3,59.997468115504944,True,56.0,0.4444444444444444,0.3561507936507936,-1.1666666666666667,-1.2006802721088436,1,1,1,1.0895546922073034,0.0741693339429965,0.4444444444444445,0.4444444444444445,0.6666666666666666,0.6666666666666667,-1.0,-1.0,4.0,4.0,1.0,1.0,1.0,5.0,0,1,1
3.0,0.0,3.0,0.0,3.0,0.0,3.0,0.0,,,,left,1.865168700023787,210.3201440999983,xm15,207.1232541000063,209.13756000000285,210.3201440999983,None,False,3.0,['p'],False,0.2222222222222222,0.2222222222222222,0.0,0.0,1.0,0.4821593609696809,0.0469821673525377,wait_cost,1.0,2.0,209.13756000000285,None,xm15,1,2023-03-20_11h32.12.195,threat_forest,2021.2.3,59.997468115504944,False,56.0,0.4444444444444444,0.3561507936507936,-1.1666666666666667,-1.2006802721088436,0,0,0,0.6233515047817313,0.0469821673525377,0.2222222222222222,0.2222222222222222,0.2222222222222222,1.0,-1.3333333333333335,-1.3333333333333335,1.6666666666666665,1.6666666666666665,0.0,1.0,-1.0,3.0,0,0,0
3.0,0.0,3.0,0.0,4.0,0.0,4.0,0.0,,,,left,1.5141721999971196,216.33163780000177,xm15,216.33163780000177,None,212.20173060000525,214.21614689999842,True,2.0,['p'],True,0.4444444444444445,0.6666666666666666,0.3333333333333333,1.0,1.0,0.9656336071428248,0.0925925925925926,unsucc_cost,0.0,0.0,214.2161468999984,None,xm15,1,2023-03-20_11h32.12.195,threat_forest,2021.2.3,59.997468115504944,True,56.0,0.4444444444444444,0.3561507936507936,-1.1666666666666667,-1.2006802721088436,1,1,1,0.414868886986844,0.0925925925925926,0.4444444444444445,0.4444444444444445,0.6666666666666666,0.6666666666666667,-1.0,-1.0,1.0,1.0,1.0,1.0,-1.0,2.0,0,1,1
4.0,0.0,4.0,0.0,0.0,0.0,0.0,0.0,221.9194972999976,225.42233480000868,None,right,1.4547731000056956,228.47015939999253,xm15,221.9194972999976,225.42233480000868,228.47015939999253,None,True,5.0,['p'],False,0.4444444444444445,0.6666666666666666,0.3333333333333333,1.0,2.0,0.9656336071428248,0.0253949986159629,figh_cost,1.0,2.0,,,xm15,1,2023-03-20_11h32.12.195,threat_forest,2021.2.3,59.997468115504944,True,15.0,0.4833333333333333,0.46388888888888885,-0.8977777777777778,-1.0322222222222224,1,0,1,0.37484994344950034,0.0253949986159629,0.4444444444444445,0.4444444444444445,0.6666666666666666,0.6666666666666667,-0.3333333333333335,-0.5555555555555556,4.444444444444445,4.444444444444445,0.0,2.0,-1.0,5.0,0,0,1
4.0,0.0,4.0,0.0,1.0,0.0,1.0,0.0,,,,left,0.789525300002424,233.8034750999941,xm15,233.8034750999941,None,229.95209259999683,231.9662890000036,True,2.0,['p'],True,0.24,0.3,0.2,2.0,2.0,0.9003120349047065,-0.0316062885915088,unsucc_cost,0.0,0.0,231.9662890000036,None,xm15,1,2023-03-20_11h32.12.195,threat_forest,2021.2.3,59.997468115504944,True,15.0,0.4833333333333333,0.46388888888888885,-0.8977777777777778,-1.0322222222222224,0,0,1,-0.2363234001983392,-0.0316062885915088,0.24,0.24,0.3,0.8,-1.4,-1.24,0.76,0.76,1.0,2.0,-1.0,2.0,0,0,0
5.0,0.0,5.0,0.0,0.0,0.0,0.0,0.0,238.96817579999333,242.47314260000712,None,right,2.119004500011215,245.670591800008,xm15,238.96817579999333,242.47314260000712,245.670591800008,None,True,4.0,['r'],False,0.36,0.6,0.4,2.0,1.0,0.9801625908629508,0.0090639294214999,unsucc_cost,1.0,2.0,,,xm15,1,2023-03-20_11h32.12.195,threat_forest,2021.2.3,59.997468115504944,True,24.0,0.55,0.5166666666666666,-0.9100000000000001,-0.903888888888889,0,0,1,0.7509464029324276,0.0090639294214999,0.36,0.36,0.6,0.6,-1.4000000000000004,-1.3200000000000003,2.6799999999999997,2.6799999999999997,0.0,1.0,-1.0,4.0,0,0,0
5.0,0.0,5.0,0.0,1.0,0.0,1.0,0.0,,,,left,1.229617099976167,253.24781830000572,xm15,253.24781830000572,None,247.81838979999884,249.83288960001664,True,2.0,['r'],True,0.5,0.5,0.0,0.0,1.0,0.6309297535714574,0.0445789599999999,unsucc_cost,0.0,0.0,249.83288960001664,None,xm15,1,2023-03-20_11h32.12.195,threat_forest,2021.2.3,59.997468115504944,True,24.0,0.55,0.5166666666666666,-0.9100000000000001,-0.903888888888889,1,0,1,0.2067028200877793,0.0445789599999999,0.5,0.5,0.5,1.0,-0.5,-0.5,1.5,1.5,1.0,1.0,-1.0,2.0,0,0,1
6.0,0.0,6.0,0.0,0.0,0.0,0.0,0.0,258.5970469999884,262.10473200000706,None,left,2.2810820000013337,264.76945399999386,xm15,258.5970469999884,262.10473200000706,264.76945399999386,None,False,5.0,['r'],False,0.2222222222222222,0.6666666666666666,0.6666666666666666,2.0,2.0,0.77250688571426,-0.023281607963558,wait_cost,1.0,4.0,,,xm15,1,2023-03-20_11h32.12.195,threat_forest,2021.2.3,59.997468115504944,False,34.0,0.4583333333333333,0.5041666666666667,-1.3888888888888888,-1.1494444444444445,0,0,0,0.8246498918017924,-0.023281607963558,0.2222222222222222,0.2222222222222222,0.6666666666666666,0.33333333333333337,-1.3333333333333335,-1.777777777777778,3.2222222222222223,3.2222222222222223,0.0,2.0,-1.0,5.0,0,0,0
6.0,0.0,6.0,0.0,1.0,0.0,1.0,0.0,,,,None,,269.59812860001693,xm15,258.5970469999884,262.10473200000706,269.59812860001693,None,False,4.0,['r'],False,0.2222222222222222,0.6666666666666666,0.6666666666666666,2.0,2.0,0.77250688571426,0.0213204889540228,wait_cost,1.0,3.0,269.08165259999805,None,xm15,1,2023-03-20_11h32.12.195,threat_forest,2021.2.3,59.997468115504944,None,34.0,0.4583333333333333,0.5041666666666667,-1.3888888888888888,-1.1494444444444445,0,0,0,,0.0213204889540228,0.2222222222222222,0.2222222222222222,0.6666666666666666,0.33333333333333337,-1.3333333333333335,-1.777777777777778,2.2222222222222223,2.2222222222222223,0.0,2.0,-1.0,4.0,0,0,0
6.0,0.0,6.0,0.0,2.0,0.0,2.0,0.0,,,,right,2.292963099986082,276.608342099993,xm15,276.608342099993,None,272.61196840001503,274.626396800013,False,3.0,['r'],True,0.25,0.25,0.0,0.0,2.0,0.5118595071429148,0.0764130015432098,wait_cost,0.0,2.0,274.626396800013,None,xm15,1,2023-03-20_11h32.12.195,threat_forest,2021.2.3,59.997468115504944,False,34.0,0.4583333333333333,0.5041666666666667,-1.3888888888888888,-1.1494444444444445,1,0,0,0.8298449112849138,0.0764130015432098,0.25,0.25,0.25,1.0,-1.0,-1.0,2.0,2.0,1.0,2.0,-1.0,3.0,0,0,1
6.0,0.0,6.0,0.0,3.0,0.0,3.0,0.0,,,,left,0.9959029000019656,283.58501139999134,xm15,283.58501139999134,None,272.61196840001503,274.626396800013,True,2.0,['r'],True,0.25,0.25,0.0,0.0,2.0,0.5118595071429148,0.0251146690672153,unsucc_cost,0.0,0.0,280.9372788000037,None,xm15,1,2023-03-20_11h32.12.195,threat_forest,2021.2.3,59.997468115504944,True,34.0,0.4583333333333333,0.5041666666666667,-1.3888888888888888,-1.1494444444444445,1,0,1,-0.00410551610785953,0.0251146690672153,0.25,0.25,0.25,1.0,-1.0,-1.0,1.0,1.0,1.0,2.0,-1.0,2.0,0,0,1
7.0,0.0,7.0,0.0,0.0,0.0,0.0,0.0,287.336913200008,290.8445926000132,None,left,0.810627700004261,294.3084627999924,xm15,294.3084627999924,None,287.336913200008,290.84459260001313,True,4.0,['r'],True,0.3333333333333333,0.3333333333333333,0.0,0.0,2.0,0.5793801642856949,0.0530374995311426,unsucc_cost,0.0,2.0,,,xm15,1,2023-03-20_11h32.12.195,threat_forest,2021.2.3,59.997468115504944,True,70.0,0.41666666666666663,0.4375,-1.0833333333333335,-1.2361111111111112,1,0,1,-0.20994639314841937,0.0530374995311426,0.3333333333333333,0.3333333333333333,0.3333333333333333,1.0,-0.6666666666666669,-0.6666666666666669,3.333333333333333,3.333333333333333,1.0,2.0,-1.0,4.0,0,0,1
7.0,0.0,7.0,0.0,1.0,0.0,1.0,0.0,,,,left,0.9592220000049564,298.1047811000026,xm15,298.1047811000026,None,287.336913200008,290.84459260001313,True,2.0,['r'],True,0.3333333333333333,0.3333333333333333,0.0,0.0,2.0,0.5793801642856949,0.0264787085262345,unsucc_cost,0.0,0.0,297.1557651000039,None,xm15,1,2023-03-20_11h32.12.195,threat_forest,2021.2.3,59.997468115504944,True,70.0,0.41666666666666663,0.4375,-1.0833333333333335,-1.2361111111111112,1,0,1,-0.041632739746869936,0.0264787085262345,0.3333333333333333,0.3333333333333333,0.3333333333333333,1.0,-0.6666666666666669,-0.6666666666666669,1.333333333333333,1.333333333333333,1.0,2.0,-1.0,2.0,0,0,1
8.0,0.0,8.0,0.0,0.0,0.0,0.0,0.0,304.1712339000078,307.6789667000121,None,right,1.140783000009833,310.1769248000055,xm15,304.1712339000078,307.6789667000121,310.1769248000055,None,True,5.0,['r'],False,0.5,0.5,0.0,0.0,2.0,0.6309297535714574,0.0630973775,succ_gain,1.0,6.0,,,xm15,1,2023-03-20_11h32.12.195,threat_forest,2021.2.3,59.997468115504944,True,67.0,0.55,0.48333333333333334,-0.4800000000000001,-0.7816666666666667,1,1,1,0.1317148687521987,0.0630973775,0.5,0.5,0.5,1.0,0.0,0.0,5.0,5.0,0.0,2.0,-1.0,5.0,0,1,1
8.0,0.0,8.0,0.0,1.0,0.0,1.0,0.0,,,,right,2.8321972000121605,313.92743780001183,xm15,313.92743780001183,None,311.3425100000168,313.3569347000157,False,6.0,['r'],True,0.36,0.6,0.4,2.0,2.0,0.9801625908629508,-0.1255866,wait_cost,0.0,5.0,313.3569347000157,None,xm15,1,2023-03-20_11h32.12.195,threat_forest,2021.2.3,59.997468115504944,False,67.0,0.55,0.48333333333333334,-0.4800000000000001,-0.7816666666666667,0,0,0,1.0410528061798798,-0.1255866,0.36,0.36,0.6,0.6,-0.8000000000000003,-0.9600000000000002,5.04,5.04,1.0,2.0,1.0,6.0,0,0,0
8.0,0.0,8.0,0.0,2.0,0.0,2.0,0.0,,,,right,1.8020885000005364,319.68460680000135,xm15,319.68460680000135,None,311.3425100000168,313.3569347000157,False,5.0,['r'],True,0.36,0.6,0.4,2.0,2.0,0.9801625908629508,-0.050683,wait_cost,0.0,4.0,318.8018002999888,None,xm15,1,2023-03-20_11h32.12.195,threat_forest,2021.2.3,59.997468115504944,False,67.0,0.55,0.48333333333333334,-0.4800000000000001,-0.7816666666666667,0,0,0,0.5889462700781535,-0.050683,0.36,0.36,0.6,0.6,-0.8000000000000003,-0.9600000000000002,4.04,4.04,1.0,2.0,-1.0,5.0,0,0,0
8.0,0.0,8.0,0.0,3.0,0.0,3.0,0.0,,,,left,1.3445911999733653,324.09711070000776,xm15,324.09711070000776,None,311.3425100000168,313.3569347000157,True,4.0,['r'],True,0.36,0.6,0.4,2.0,2.0,0.9801625908629508,-0.0169199999999999,figh_cost,0.0,1.0,323.53080740000587,None,xm15,1,2023-03-20_11h32.12.195,threat_forest,2021.2.3,59.997468115504944,True,67.0,0.55,0.48333333333333334,-0.4800000000000001,-0.7816666666666667,0,0,1,0.2960900263142661,-0.0169199999999999,0.36,0.36,0.6,0.6,-0.8000000000000003,-0.9600000000000002,3.04,3.04,1.0,2.0,-1.0,4.0,0,0,0
8.0,0.0,8.0,0.0,4.0,0.0,4.0,0.0,,,,right,1.7842977000109386,328.6594942999945,xm15,325.4626213000156,327.47713780001504,328.6594942999945,None,True,1.0,['r'],False,0.5,0.5,0.0,0.0,2.0,0.6309297535714574,0.2949999999999999,succ_gain,1.0,3.0,327.47713780001504,None,xm15,1,2023-03-20_11h32.12.195,threat_forest,2021.2.3,59.997468115504944,True,67.0,0.55,0.48333333333333334,-0.4800000000000001,-0.7816666666666667,1,1,1,0.5790248924396412,0.2949999999999999,1.0,0.5,0.5,1.0,0.0,0.0,1.0,1.0,0.0,2.0,-1.0,1.0,1,1,1
8.0,0.0,8.0,0.0,5.0,0.0,5.0,0.0,,,,None,,334.4541508000111,xm15,325.4626213000156,327.47713780001504,334.4541508000111,None,False,3.0,['r'],False,0.5,0.5,0.0,0.0,2.0,0.6309297535714574,0.25,wait_cost,1.0,2.0,332.48920690000523,None,xm15,1,2023-03-20_11h32.12.195,threat_forest,2021.2.3,59.997468115504944,None,67.0,0.55,0.48333333333333334,-0.4800000000000001,-0.7816666666666667,1,1,0,,0.25,0.5,0.5,0.5,1.0,0.0,0.0,3.0,3.0,0.0,2.0,1.0,3.0,0,1,1
8.0,0.0,8.0,0.0,6.0,0.0,6.0,0.0,,,,right,1.3312154000159353,341.3312189000135,xm15,341.3312189000135,None,337.4681042000011,339.48258680000436,False,2.0,['r'],True,0.36,0.6,0.4,2.0,2.0,0.9801625908629508,-0.0699999999999999,wait_cost,0.0,1.0,339.4825868000044,None,xm15,1,2023-03-20_11h32.12.195,threat_forest,2021.2.3,59.997468115504944,False,67.0,0.55,0.48333333333333334,-0.4800000000000001,-0.7816666666666667,0,0,0,0.28609235953947826,-0.0699999999999999,0.36,0.36,0.6,0.6,-0.8000000000000003,-0.9600000000000002,1.0399999999999998,1.0399999999999998,1.0,2.0,-1.0,2.0,0,0,0
8.0,0.0,8.0,0.0,7.0,0.0,7.0,0.0,,,,left,0.7461015000008047,346.4097985000117,xm15,346.4097985000117,None,337.4681042000011,339.48258680000436,True,1.0,['r'],True,0.36,0.6,0.4,2.0,2.0,0.9801625908629508,0.36,succ_gain,0.0,3.0,344.6943447999947,None,xm15,1,2023-03-20_11h32.12.195,threat_forest,2021.2.3,59.997468115504944,True,67.0,0.55,0.48333333333333334,-0.4800000000000001,-0.7816666666666667,0,0,1,-0.29289362905124816,0.36,1.0,0.36,0.6,0.6,-0.8000000000000003,-0.9600000000000002,0.039999999999999813,0.039999999999999813,1.0,2.0,-1.0,1.0,1,0,0
9.0,0.0,9.0,0.0,0.0,0.0,0.0,0.0,351.14855839998927,354.6518271999957,None,right,2.462521500012372,355.37084759998834,xm15,355.37084759998834,None,351.14855839998927,354.65182719999575,False,5.0,['r'],True,0.4081632653061224,0.5714285714285714,0.2857142857142857,2.0,1.0,0.9885754083994552,-0.0004231906775603,wait_cost,0.0,4.0,,,xm15,1,2023-03-20_11h32.12.195,threat_forest,2021.2.3,59.997468115504944,False,44.0,0.5357142857142857,0.5428571428571429,-0.7806122448979592,-0.6303061224489797,0,0,0,0.9011858249954834,-0.0004231906775603,0.4081632653061224,0.4081632653061224,0.5714285714285714,0.7142857142857143,-1.1428571428571428,-1.0612244897959184,3.9387755102040813,3.9387755102040813,1.0,1.0,1.0,5.0,0,0,0
9.0,0.0,9.0,0.0,1.0,0.0,1.0,0.0,,,,right,2.1517392999958247,363.0627953000076,xm15,357.8656917999906,359.88016850000713,363.0627953000076,None,True,4.0,['r'],False,0.5,0.5,0.0,0.0,1.0,0.6309297535714574,0.0899569925716803,unsucc_cost,1.0,2.0,359.8801685000072,None,xm15,1,2023-03-20_11h32.12.195,threat_forest,2021.2.3,59.997468115504944,True,44.0,0.5357142857142857,0.5428571428571429,-0.7806122448979592,-0.6303061224489797,1,0,1,0.7662764918365003,0.0899569925716803,0.5,0.5,0.5,1.0,-0.5,-0.5,3.5,3.5,0.0,1.0,-1.0,4.0,0,0,1
9.0,0.0,9.0,0.0,2.0,0.0,2.0,0.0,,,,right,2.4153157000255305,369.5220909999916,xm15,369.5220909999916,None,365.2421513000154,367.2567488999921,False,2.0,['r'],True,0.4081632653061224,0.5714285714285714,0.2857142857142857,2.0,1.0,0.9885754083994552,0.0317505844141454,wait_cost,0.0,1.0,367.2567488999921,None,xm15,1,2023-03-20_11h32.12.195,threat_forest,2021.2.3,59.997468115504944,False,44.0,0.5357142857142857,0.5428571428571429,-0.7806122448979592,-0.6303061224489797,0,0,0,0.8818300032090666,0.0317505844141454,0.4081632653061224,0.4081632653061224,0.5714285714285714,0.7142857142857143,-1.1428571428571428,-1.0612244897959184,0.9387755102040816,0.9387755102040816,1.0,1.0,-1.0,2.0,0,0,0
9.0,0.0,9.0,0.0,3.0,0.0,3.0,0.0,,,,left,0.7556690000055823,375.3663471000036,xm15,375.3663471000036,None,365.2421513000154,367.2567488999921,True,1.0,['r'],True,0.4081632653061224,0.5714285714285714,0.2857142857142857,2.0,1.0,0.9885754083994552,0.1180805612370661,figh_cost,0.0,0.0,373.9836643000017,None,xm15,1,2023-03-20_11h32.12.195,threat_forest,2021.2.3,59.997468115504944,True,44.0,0.5357142857142857,0.5428571428571429,-0.7806122448979592,-0.6303061224489797,0,0,1,-0.280151829358889,0.1180805612370661,1.0,0.4081632653061224,0.5714285714285714,0.7142857142857143,-1.1428571428571428,-1.0612244897959184,-0.061224489795918435,0.0,1.0,1.0,-1.0,1.0,1,0,0
10.0,0.0,10.0,0.0,0.0,0.0,0.0,0.0,379.71976589999394,383.2251808000146,None,None,,384.3936122000159,xm15,379.71976589999394,383.22518080001464,384.3936122000159,None,False,5.0,['r'],False,0.4081632653061224,0.5714285714285714,0.2857142857142857,2.0,2.0,0.9885754083994552,-0.0170150236195817,wait_cost,1.0,4.0,,,xm15,1,2023-03-20_11h32.12.195,threat_forest,2021.2.3,59.997468115504944,None,14.0,0.5357142857142857,0.5357142857142857,-0.326530612244898,-0.5535714285714286,0,0,0,,-0.0170150236195817,0.4081632653061224,0.4081632653061224,0.5714285714285714,0.7142857142857143,-0.5714285714285715,-0.653061224489796,4.346938775510204,4.346938775510204,0.0,2.0,-1.0,5.0,0,0,0
10.0,0.0,10.0,0.0,1.0,0.0,1.0,0.0,,,,left,1.093571700010216,392.6533139999956,xm15,392.6533139999956,None,387.4049383999954,389.4193701999902,True,4.0,['r'],True,0.5,0.5,0.0,0.0,2.0,0.6309297535714574,0.0943759482946438,succ_gain,0.0,6.0,389.4193701999902,None,xm15,1,2023-03-20_11h32.12.195,threat_forest,2021.2.3,59.997468115504944,True,14.0,0.5357142857142857,0.5357142857142857,-0.326530612244898,-0.5535714285714286,1,0,1,0.08944912826743329,0.0943759482946438,0.5,0.5,0.5,1.0,0.0,0.0,4.0,4.0,1.0,2.0,-1.0,4.0,0,0,1
10.0,0.0,10.0,0.0,2.0,0.0,2.0,0.0,,,,None,,398.2966818000132,xm15,393.76550710000447,395.77995799999917,398.2966818000132,None,False,6.0,['r'],False,0.4081632653061224,0.5714285714285714,0.2857142857142857,2.0,2.0,0.9885754083994552,0.0027488959583588,wait_cost,1.0,5.0,395.7799579999992,None,xm15,1,2023-03-20_11h32.12.195,threat_forest,2021.2.3,59.997468115504944,None,14.0,0.5357142857142857,0.5357142857142857,-0.326530612244898,-0.5535714285714286,0,0,0,,0.0027488959583588,0.4081632653061224,0.4081632653061224,0.5714285714285714,0.7142857142857143,-0.5714285714285715,-0.653061224489796,5.346938775510204,5.346938775510204,0.0,2.0,1.0,6.0,0,0,0
10.0,0.0,10.0,0.0,3.0,0.0,3.0,0.0,,,,left,1.296825199999148,404.4892641000042,xm15,393.76550710000447,395.77995799999917,404.4892641000042,None,False,5.0,['r'],False,0.4081632653061224,0.5714285714285714,0.2857142857142857,2.0,2.0,0.9885754083994552,0.0282654867444687,wait_cost,1.0,4.0,403.3230586000136,None,xm15,1,2023-03-20_11h32.12.195,threat_forest,2021.2.3,59.997468115504944,False,14.0,0.5357142857142857,0.5357142857142857,-0.326530612244898,-0.5535714285714286,0,0,0,0.25991912369897024,0.0282654867444687,0.4081632653061224,0.4081632653061224,0.5714285714285714,0.7142857142857143,-0.5714285714285715,-0.653061224489796,4.346938775510204,4.346938775510204,0.0,2.0,-1.0,5.0,0,0,0
10.0,0.0,10.0,0.0,4.0,0.0,4.0,0.0,,,,None,,411.5327817999933,xm15,393.76550710000447,395.77995799999917,411.5327817999933,None,False,4.0,['r'],False,0.4081632653061224,0.5714285714285714,0.2857142857142857,2.0,2.0,0.9885754083994552,0.0468294460641399,wait_cost,1.0,3.0,407.8188255999994,None,xm15,1,2023-03-20_11h32.12.195,threat_forest,2021.2.3,59.997468115504944,None,14.0,0.5357142857142857,0.5357142857142857,-0.326530612244898,-0.5535714285714286,0,0,0,,0.0468294460641399,0.4081632653061224,0.4081632653061224,0.5714285714285714,0.7142857142857143,-0.5714285714285715,-0.653061224489796,3.3469387755102042,3.3469387755102042,0.0,2.0,-1.0,4.0,0,0,0
10.0,0.0,10.0,0.0,5.0,0.0,5.0,0.0,,,,left,1.2267111999972258,418.3592025999969,xm15,418.3592025999969,None,414.5462277999905,416.5606441000127,True,3.0,['r'],True,0.5,0.5,0.0,0.0,2.0,0.6309297535714574,0.25,succ_gain,0.0,5.0,416.5606441000127,None,xm15,1,2023-03-20_11h32.12.195,threat_forest,2021.2.3,59.997468115504944,True,14.0,0.5357142857142857,0.5357142857142857,-0.326530612244898,-0.5535714285714286,1,0,1,0.20433676719930755,0.25,0.5,0.5,0.5,1.0,0.0,0.0,3.0,3.0,1.0,2.0,-1.0,3.0,0,0,1
10.0,0.0,10.0,0.0,6.0,0.0,6.0,0.0,,,,left,0.5605866999831051,422.3572975000134,xm15,419.6080290999962,421.62262810001266,422.3572975000134,None,False,5.0,['r'],False,0.4081632653061224,0.5714285714285714,0.2857142857142857,2.0,2.0,0.9885754083994552,0.0,wait_cost,1.0,4.0,421.6226281000127,None,xm15,1,2023-03-20_11h32.12.195,threat_forest,2021.2.3,59.997468115504944,False,14.0,0.5357142857142857,0.5357142857142857,-0.326530612244898,-0.5535714285714286,0,0,0,-0.5787713651438257,0.0,0.0,0.4081632653061224,0.5714285714285714,0.7142857142857143,-0.5714285714285715,-0.653061224489796,4.346938775510204,4.346938775510204,0.0,2.0,1.0,5.0,0,0,0
10.0,0.0,10.0,0.0,7.0,0.0,7.0,0.0,,,,right,0.7559860000037588,427.8669327000098,xm15,427.8669327000098,None,422.9384815999947,424.9527900000103,False,4.0,['r'],True,0.5,0.5,0.0,0.0,2.0,0.6309297535714574,0.0,wait_cost,0.0,3.0,424.9527900000103,None,xm15,1,2023-03-20_11h32.12.195,threat_forest,2021.2.3,59.997468115504944,False,14.0,0.5357142857142857,0.5357142857142857,-0.326530612244898,-0.5535714285714286,1,0,0,-0.2797324214876204,0.0,0.0,0.5,0.5,1.0,0.0,0.0,4.0,4.0,1.0,2.0,-1.0,4.0,0,0,1
11.0,0.0,11.0,0.0,0.0,0.0,0.0,0.0,432.775435699994,436.275527299993,None,left,1.279394399985904,439.7418565000117,xm15,432.775435699994,436.275527299993,439.7418565000117,None,False,5.0,['p'],False,0.1728395061728395,0.2222222222222222,0.2222222222222222,2.0,2.0,0.8571721972794328,-0.0270759260606772,wait_cost,1.0,4.0,,,xm15,1,2023-03-20_11h32.12.195,threat_forest,2021.2.3,59.997468115504944,False,59.0,0.3611111111111111,0.4484126984126984,-1.1404320987654322,-0.7334813555051651,0,0,0,0.24638684096156024,-0.0270759260606772,0.1728395061728395,0.1728395061728395,0.2222222222222222,0.7777777777777778,-1.7777777777777777,-1.5308641975308643,3.4691358024691357,3.4691358024691357,0.0,2.0,-1.0,5.0,0,0,0
11.0,0.0,11.0,0.0,1.0,0.0,1.0,0.0,,,,left,1.0907281000108924,443.6357605000085,xm15,432.775435699994,436.275527299993,443.6357605000085,None,False,4.0,['p'],False,0.1728395061728395,0.2222222222222222,0.2222222222222222,2.0,2.0,0.8571721972794328,0.0062757750896342,wait_cost,1.0,3.0,443.0525166000007,None,xm15,1,2023-03-20_11h32.12.195,threat_forest,2021.2.3,59.997468115504944,False,59.0,0.3611111111111111,0.4484126984126984,-1.1404320987654322,-0.7334813555051651,0,0,0,0.0868454549019728,0.0062757750896342,0.1728395061728395,0.1728395061728395,0.2222222222222222,0.7777777777777778,-1.7777777777777777,-1.5308641975308643,2.4691358024691357,2.4691358024691357,0.0,2.0,-1.0,4.0,0,0,0
11.0,0.0,11.0,0.0,2.0,0.0,2.0,0.0,,,,left,1.4369175999891013,448.9807397999976,xm15,432.775435699994,436.275527299993,448.9807397999976,None,False,3.0,['p'],False,0.1728395061728395,0.2222222222222222,0.2222222222222222,2.0,2.0,0.8571721972794328,0.0140809028074422,wait_cost,1.0,2.0,446.7657257000101,None,xm15,1,2023-03-20_11h32.12.195,threat_forest,2021.2.3,59.997468115504944,False,59.0,0.3611111111111111,0.4484126984126984,-1.1404320987654322,-0.7334813555051651,0,0,0,0.36250026376114186,0.0140809028074422,0.1728395061728395,0.1728395061728395,0.2222222222222222,0.7777777777777778,-1.7777777777777777,-1.5308641975308643,1.4691358024691357,1.4691358024691357,0.0,2.0,-1.0,3.0,0,0,0
11.0,0.0,11.0,0.0,3.0,0.0,3.0,0.0,,,,left,0.8212641999998596,453.8446929999918,xm15,453.8446929999918,None,450.4495839000156,452.4603931000165,True,2.0,['p'],True,0.375,0.5,0.25,1.0,2.0,0.9850568223215076,0.0747935552891219,unsucc_cost,0.0,0.0,452.4603931000165,None,xm15,1,2023-03-20_11h32.12.195,threat_forest,2021.2.3,59.997468115504944,True,59.0,0.3611111111111111,0.4484126984126984,-1.1404320987654322,-0.7334813555051651,0,0,1,-0.1969104186175976,0.0747935552891219,0.375,0.375,0.5,0.75,-0.75,-0.75,1.25,1.25,1.0,2.0,-1.0,2.0,0,0,0
12.0,0.0,12.0,0.0,0.0,0.0,0.0,0.0,458.1158065999916,461.6070233999926,None,left,1.7686435999930836,462.2683377999929,xm15,458.1158065999916,461.6070233999926,462.2683377999929,None,False,5.0,['p'],False,0.375,0.5,0.25,1.0,1.0,0.9850568223215076,0.0363579936230754,wait_cost,1.0,4.0,,,xm15,1,2023-03-20_11h32.12.195,threat_forest,2021.2.3,59.997468115504944,False,3.0,0.35,0.3555555555555555,-1.4225000000000003,-1.2814660493827161,1,1,0,0.5702129251190551,0.0363579936230754,0.375,0.375,0.5,0.75,-1.25,-1.125,3.875,3.875,0.0,1.0,-1.0,5.0,0,1,1
12.0,0.0,12.0,0.0,1.0,0.0,1.0,0.0,,,,right,1.7064329000131693,469.5121218000131,xm15,458.1158065999916,461.6070233999926,469.5121218000131,None,True,4.0,['p'],False,0.375,0.5,0.25,1.0,1.0,0.9850568223215076,0.0507783712463378,unsucc_cost,1.0,2.0,466.0813288000063,None,xm15,1,2023-03-20_11h32.12.195,threat_forest,2021.2.3,59.997468115504944,True,3.0,0.35,0.3555555555555555,-1.4225000000000003,-1.2814660493827161,1,1,1,0.5344051683531632,0.0507783712463378,0.375,0.375,0.5,0.75,-1.25,-1.125,2.875,2.875,0.0,1.0,-1.0,4.0,0,1,1
12.0,0.0,12.0,0.0,2.0,0.0,2.0,0.0,,,,right,1.7161096999770962,474.7138852000062,xm15,474.7138852000062,None,471.243175999989,473.257649200008,False,2.0,['p'],True,0.16,0.2,0.2,2.0,1.0,0.8198746470064713,-0.0050492087890624,wait_cost,0.0,1.0,473.257649200008,None,xm15,1,2023-03-20_11h32.12.195,threat_forest,2021.2.3,59.997468115504944,False,3.0,0.35,0.3555555555555555,-1.4225000000000003,-1.2814660493827161,0,0,0,0.5400599267480611,-0.0050492087890624,0.16,0.16,0.2,0.8,-2.0,-1.7200000000000004,0.2799999999999996,0.2799999999999996,1.0,1.0,-1.0,2.0,0,0,0
12.0,0.0,12.0,0.0,3.0,0.0,3.0,0.0,,,,left,1.969501399988076,479.7519356000121,xm15,479.7519356000121,None,471.243175999989,473.257649200008,True,1.0,['p'],True,0.16,0.2,0.2,2.0,1.0,0.8198746470064713,0.0189724374999998,unsucc_cost,0.0,0.0,478.46948100000736,None,xm15,1,2023-03-20_11h32.12.195,threat_forest,2021.2.3,59.997468115504944,True,3.0,0.35,0.3555555555555555,-1.4225000000000003,-1.2814660493827161,0,0,1,0.6777804142628313,0.0189724374999998,1.0,0.16,0.2,0.8,-2.0,-1.7200000000000004,-0.7200000000000004,0.0,1.0,1.0,-1.0,1.0,1,0,0
13.0,0.0,13.0,0.0,0.0,0.0,0.0,0.0,486.5049366999883,490.0087431000138,None,left,0.6831739000044763,491.9408264000085,xm15,491.9408264000085,None,486.5049366999883,490.0087431000138,True,4.0,['p'],True,0.4444444444444445,0.6666666666666666,0.3333333333333333,1.0,1.0,0.9656336071428248,0.042368878985042,figh_cost,0.0,1.0,,,xm15,1,2023-03-20_11h32.12.195,threat_forest,2021.2.3,59.997468115504944,True,6.0,0.4833333333333333,0.41666666666666663,-1.145,-1.2837500000000002,1,1,1,-0.38100583980707414,0.042368878985042,0.4444444444444445,0.4444444444444445,0.6666666666666666,0.6666666666666667,-1.0,-1.0,3.0,3.0,1.0,1.0,-1.0,4.0,0,1,1
13.0,0.0,13.0,0.0,1.0,0.0,1.0,0.0,,,,right,2.0913600999920163,496.9713686000032,xm15,492.65674040000886,494.6710577000049,496.9713686000032,None,True,1.0,['p'],False,0.27,0.3,0.1,1.0,1.0,0.7963326591781347,0.0251461423113625,figh_cost,1.0,0.0,494.6710577000049,None,xm15,1,2023-03-20_11h32.12.195,threat_forest,2021.2.3,59.997468115504944,True,6.0,0.4833333333333333,0.41666666666666663,-1.145,-1.2837500000000002,0,0,1,0.7378146198670614,0.0251461423113625,1.0,0.27,0.3,0.9,-1.4,-1.29,-0.29000000000000004,0.0,0.0,1.0,-1.0,1.0,1,0,0
14.0,0.0,14.0,0.0,0.0,0.0,0.0,0.0,504.45369280001614,507.9586085999909,None,right,1.3347603000001982,509.4083830000018,xm15,509.4083830000018,None,504.45369280001614,507.95860859999084,False,5.0,['p'],True,0.2448979591836734,0.2857142857142857,0.1428571428571428,1.0,2.0,0.8400769154957735,-0.0142294939424326,wait_cost,0.0,4.0,,,xm15,1,2023-03-20_11h32.12.195,threat_forest,2021.2.3,59.997468115504944,False,42.0,0.39285714285714285,0.4380952380952381,-0.9566326530612245,-1.0508163265306123,0,0,0,0.2887517251694317,-0.0142294939424326,0.2448979591836734,0.2448979591836734,0.2857142857142857,0.8571428571428572,-1.2857142857142856,-1.163265306122449,3.836734693877551,3.836734693877551,1.0,2.0,-1.0,5.0,0,0,0
14.0,0.0,14.0,0.0,1.0,0.0,1.0,0.0,,,,right,1.128274100017734,515.3354384000122,xm15,515.3354384000122,None,504.45369280001614,507.95860859999084,False,4.0,['p'],True,0.2448979591836734,0.2857142857142857,0.1428571428571428,1.0,2.0,0.8400769154957735,0.0164149019132137,wait_cost,0.0,3.0,512.7875042000087,None,xm15,1,2023-03-20_11h32.12.195,threat_forest,2021.2.3,59.997468115504944,False,42.0,0.39285714285714285,0.4380952380952381,-0.9566326530612245,-1.0508163265306123,0,0,0,0.12068912002662935,0.0164149019132137,0.2448979591836734,0.2448979591836734,0.2857142857142857,0.8571428571428572,-1.2857142857142856,-1.163265306122449,2.836734693877551,2.836734693877551,1.0,2.0,-1.0,4.0,0,0,0
14.0,0.0,14.0,0.0,2.0,0.0,2.0,0.0,,,,right,1.722677699988708,521.7132176000159,xm15,521.7132176000159,None,504.45369280001614,507.95860859999084,False,3.0,['p'],True,0.2448979591836734,0.2857142857142857,0.1428571428571428,1.0,2.0,0.8400769154957735,0.0632224829122191,wait_cost,0.0,2.0,518.4990348000138,None,xm15,1,2023-03-20_11h32.12.195,threat_forest,2021.2.3,59.997468115504944,False,42.0,0.39285714285714285,0.4380952380952381,-0.9566326530612245,-1.0508163265306123,0,0,0,0.5438798825838871,0.0632224829122191,0.2448979591836734,0.2448979591836734,0.2857142857142857,0.8571428571428572,-1.2857142857142856,-1.163265306122449,1.836734693877551,1.836734693877551,1.0,2.0,-1.0,3.0,0,0,0
14.0,0.0,14.0,0.0,3.0,0.0,3.0,0.0,,,,right,1.2335262999986298,526.4916033000045,xm15,523.4611936000001,525.4755861000158,526.4916033000045,None,True,2.0,['p'],False,0.375,0.5,0.25,1.0,2.0,0.9850568223215076,0.0589669677188606,figh_cost,1.0,0.0,525.4755861000158,None,xm15,1,2023-03-20_11h32.12.195,threat_forest,2021.2.3,59.997468115504944,True,42.0,0.39285714285714285,0.4380952380952381,-0.9566326530612245,-1.0508163265306123,1,0,1,0.20987697820191306,0.0589669677188606,0.375,0.375,0.5,0.75,-0.75,-0.75,1.25,1.25,0.0,2.0,-1.0,2.0,0,0,1
15.0,0.0,15.0,0.0,0.0,0.0,0.0,0.0,531.4239509000035,534.9333456000022,None,left,1.2545932999928482,537.9011905000079,xm15,537.9011905000079,None,531.4239509000035,534.9333456000022,True,5.0,['r'],True,0.4081632653061224,0.5714285714285714,0.2857142857142857,2.0,1.0,0.9885754083994552,-0.0004231906775603,succ_gain,0.0,6.0,,,xm15,1,2023-03-20_11h32.12.195,threat_forest,2021.2.3,59.997468115504944,True,35.0,0.5357142857142857,0.4642857142857143,-0.7806122448979592,-0.8686224489795918,0,0,1,0.22681145631302452,-0.0004231906775603,0.4081632653061224,0.4081632653061224,0.5714285714285714,0.7142857142857143,-1.1428571428571428,-1.0612244897959184,3.9387755102040813,3.9387755102040813,1.0,1.0,-1.0,5.0,0,0,0
15.0,0.0,15.0,0.0,1.0,0.0,1.0,0.0,,,,right,1.6234524000028614,543.093105900014,xm15,543.093105900014,None,531.4239509000035,534.9333456000022,False,6.0,['r'],True,0.4081632653061224,0.5714285714285714,0.2857142857142857,2.0,1.0,0.9885754083994552,-0.1076532809956411,wait_cost,0.0,5.0,541.1942184999934,None,xm15,1,2023-03-20_11h32.12.195,threat_forest,2021.2.3,59.997468115504944,False,35.0,0.5357142857142857,0.4642857142857143,-0.7806122448979592,-0.8686224489795918,0,0,0,0.4845549927609772,-0.1076532809956411,0.4081632653061224,0.4081632653061224,0.5714285714285714,0.7142857142857143,-1.1428571428571428,-1.0612244897959184,4.938775510204081,4.938775510204081,1.0,1.0,1.0,6.0,0,0,0
15.0,0.0,15.0,0.0,2.0,0.0,2.0,0.0,,,,right,1.8547972000087607,549.2204429999983,xm15,549.2204429999983,None,531.4239509000035,534.9333456000022,False,5.0,['r'],True,0.4081632653061224,0.5714285714285714,0.2857142857142857,2.0,1.0,0.9885754083994552,-0.0007263192497883,wait_cost,0.0,4.0,546.7557017999934,None,xm15,1,2023-03-20_11h32.12.195,threat_forest,2021.2.3,59.997468115504944,False,35.0,0.5357142857142857,0.4642857142857143,-0.7806122448979592,-0.8686224489795918,0,0,0,0.6177753639420305,-0.0007263192497883,0.4081632653061224,0.4081632653061224,0.5714285714285714,0.7142857142857143,-1.1428571428571428,-1.0612244897959184,3.9387755102040813,3.9387755102040813,1.0,1.0,-1.0,5.0,0,0,0
15.0,0.0,15.0,0.0,3.0,0.0,3.0,0.0,,,,left,2.0360479000082705,556.4802788000088,xm15,556.4802788000088,None,531.4239509000035,534.9333456000022,True,4.0,['r'],True,0.4081632653061224,0.5714285714285714,0.2857142857142857,2.0,1.0,0.9885754083994552,0.0159395449535031,succ_gain,0.0,5.0,553.1164788000169,None,xm15,1,2023-03-20_11h32.12.195,threat_forest,2021.2.3,59.997468115504944,True,35.0,0.5357142857142857,0.4642857142857143,-0.7806122448979592,-0.8686224489795918,0,0,1,0.7110106249381873,0.0159395449535031,0.4081632653061224,0.4081632653061224,0.5714285714285714,0.7142857142857143,-1.1428571428571428,-1.0612244897959184,2.9387755102040813,2.9387755102040813,1.0,1.0,-1.0,4.0,0,0,0
15.0,0.0,15.0,0.0,4.0,0.0,4.0,0.0,,,,right,1.4091692000220064,562.6427126000053,xm15,562.6427126000053,None,531.4239509000035,534.9333456000022,False,5.0,['r'],True,0.4081632653061224,0.5714285714285714,0.2857142857142857,2.0,1.0,0.9885754083994552,-0.2605074203775637,wait_cost,0.0,4.0,560.5594776000071,None,xm15,1,2023-03-20_11h32.12.195,threat_forest,2021.2.3,59.997468115504944,False,35.0,0.5357142857142857,0.4642857142857143,-0.7806122448979592,-0.8686224489795918,0,0,0,0.3430003108892982,-0.2605074203775637,0.0,0.4081632653061224,0.5714285714285714,0.7142857142857143,-1.1428571428571428,-1.0612244897959184,3.9387755102040813,3.9387755102040813,1.0,1.0,1.0,5.0,0,0,0
15.0,0.0,15.0,0.0,5.0,0.0,5.0,0.0,,,,left,0.7548710000119172,569.7254551000078,xm15,564.0736053000146,566.0876441000146,569.7254551000078,None,False,4.0,['r'],False,0.5,0.5,0.0,0.0,1.0,0.6309297535714574,-0.2614795918367347,wait_cost,1.0,3.0,566.0876441000146,None,xm15,1,2023-03-20_11h32.12.195,threat_forest,2021.2.3,59.997468115504944,False,35.0,0.5357142857142857,0.4642857142857143,-0.7806122448979592,-0.8686224489795918,1,1,0,-0.2812084052428687,-0.2614795918367347,0.0,0.5,0.5,1.0,-0.5,-0.5,3.5,3.5,0.0,1.0,-1.0,4.0,0,1,1
15.0,0.0,15.0,0.0,6.0,0.0,6.0,0.0,,,,right,1.4343022000102792,575.9631932000048,xm15,575.9631932000048,None,570.5005797999911,572.5149571000075,False,3.0,['r'],True,0.4081632653061224,0.5714285714285714,0.2857142857142857,2.0,1.0,0.9885754083994552,-0.452832153269471,wait_cost,0.0,2.0,572.5149571000075,None,xm15,1,2023-03-20_11h32.12.195,threat_forest,2021.2.3,59.997468115504944,False,35.0,0.5357142857142857,0.4642857142857143,-0.7806122448979592,-0.8686224489795918,0,0,0,0.3606784591732851,-0.452832153269471,0.0,0.4081632653061224,0.5714285714285714,0.7142857142857143,-1.1428571428571428,-1.0612244897959184,1.9387755102040816,1.9387755102040816,1.0,1.0,-1.0,3.0,0,0,0
15.0,0.0,15.0,0.0,7.0,0.0,7.0,0.0,,,,left,1.031935400009388,581.7234151000157,xm15,577.4275403000065,579.4419122000108,581.7234151000157,None,False,2.0,['r'],False,0.5,0.5,0.0,0.0,1.0,0.6309297535714574,-0.5,wait_cost,1.0,1.0,579.4419122000108,None,xm15,1,2023-03-20_11h32.12.195,threat_forest,2021.2.3,59.997468115504944,False,35.0,0.5357142857142857,0.4642857142857143,-0.7806122448979592,-0.8686224489795918,1,1,0,0.0314360682099761,-0.5,0.0,0.5,0.5,1.0,-0.5,-0.5,1.5,1.5,0.0,1.0,-1.0,2.0,0,1,1
16.0,0.0,16.0,0.0,0.0,0.0,0.0,0.0,587.2090198000078,590.7147608000087,None,right,0.9373892999719828,593.6806524000131,xm15,593.6806524000131,None,587.2090198000078,590.7147608000087,False,5.0,['p'],True,0.2040816326530612,0.2857142857142857,0.2857142857142857,2.0,2.0,0.9335459102197724,-0.0417655517413427,wait_cost,0.0,4.0,,,xm15,1,2023-03-20_11h32.12.195,threat_forest,2021.2.3,59.997468115504944,False,21.0,0.47619047619047616,0.5059523809523809,-1.012471655328798,-0.8965419501133787,0,0,0,-0.06465660813945172,-0.0417655517413427,0.2040816326530612,0.2040816326530612,0.2857142857142857,0.7142857142857143,-1.7142857142857144,-1.4693877551020407,3.5306122448979593,3.5306122448979593,1.0,2.0,-1.0,5.0,0,0,0
16.0,0.0,16.0,0.0,1.0,0.0,1.0,0.0,,,,right,1.6455952000105754,598.7575007000123,xm15,594.6447286999901,596.6591865000082,598.7575007000123,None,True,4.0,['p'],False,0.4444444444444445,0.6666666666666666,0.3333333333333333,1.0,2.0,0.9656336071428248,0.1275977123343487,unsucc_cost,1.0,2.0,596.6591865000082,None,xm15,1,2023-03-20_11h32.12.195,threat_forest,2021.2.3,59.997468115504944,True,21.0,0.47619047619047616,0.5059523809523809,-1.012471655328798,-0.8965419501133787,1,0,1,0.4981021424895557,0.1275977123343487,0.4444444444444445,0.4444444444444445,0.6666666666666666,0.6666666666666667,-0.3333333333333335,-0.5555555555555556,3.4444444444444446,3.4444444444444446,0.0,2.0,-1.0,4.0,0,0,1
16.0,0.0,16.0,0.0,2.0,0.0,2.0,0.0,,,,right,1.623892400006298,603.6364142000093,xm15,603.6364142000093,None,600.422619399993,602.4371639000019,False,2.0,['p'],True,0.2040816326530612,0.2857142857142857,0.2857142857142857,2.0,2.0,0.9335459102197724,-0.0410602699792536,wait_cost,0.0,1.0,602.4371639000019,None,xm15,1,2023-03-20_11h32.12.195,threat_forest,2021.2.3,59.997468115504944,False,21.0,0.47619047619047616,0.5059523809523809,-1.012471655328798,-0.8965419501133787,0,0,0,0.4848259833906929,-0.0410602699792536,0.2040816326530612,0.2040816326530612,0.2857142857142857,0.7142857142857143,-1.7142857142857144,-1.4693877551020407,0.5306122448979593,0.5306122448979593,1.0,2.0,-1.0,2.0,0,0,0
16.0,0.0,16.0,0.0,3.0,0.0,3.0,0.0,,,,right,0.7551884000131395,610.0806040999887,xm15,605.2847610999888,607.29918490001,610.0806040999887,None,True,1.0,['p'],False,0.4444444444444445,0.6666666666666666,0.3333333333333333,1.0,2.0,0.9656336071428248,0.2001903642115282,figh_cost,1.0,0.0,607.29918490001,None,xm15,1,2023-03-20_11h32.12.195,threat_forest,2021.2.3,59.997468115504944,True,21.0,0.47619047619047616,0.5059523809523809,-1.012471655328798,-0.8965419501133787,1,0,1,-0.28078802442090733,0.2001903642115282,1.0,0.4444444444444445,0.6666666666666666,0.6666666666666667,-0.3333333333333335,-0.5555555555555556,0.4444444444444444,0.4444444444444444,0.0,2.0,-1.0,1.0,1,0,1
17.0,0.0,17.0,0.0,0.0,0.0,0.0,0.0,614.5045978999988,617.9954481000022,None,right,0.8703968999907374,620.3734534000105,xm15,620.3734534000105,None,614.5045978999988,617.9954481000022,False,5.0,['p'],True,0.2962962962962963,0.3333333333333333,0.1111111111111111,1.0,2.0,0.8325252476189534,-0.0036833572583059,wait_cost,0.0,4.0,,,xm15,1,2023-03-20_11h32.12.195,threat_forest,2021.2.3,59.997468115504944,False,22.0,0.41666666666666663,0.4464285714285714,-0.7129629629629629,-0.8627173091458804,0,0,0,-0.13880596447832544,-0.0036833572583059,0.2962962962962963,0.2962962962962963,0.3333333333333333,0.8888888888888888,-1.0000000000000002,-0.925925925925926,4.074074074074074,4.074074074074074,1.0,2.0,-1.0,5.0,0,0,0
17.0,0.0,17.0,0.0,1.0,0.0,1.0,0.0,,,,right,0.7757879999990109,626.8812975999899,xm15,621.269995700015,623.2844822999905,626.8812975999899,None,True,4.0,['p'],False,0.4166666666666667,0.5,0.1666666666666666,1.0,2.0,0.9358932809493992,0.0740380070829472,figh_cost,1.0,1.0,623.2844822999905,None,xm15,1,2023-03-20_11h32.12.195,threat_forest,2021.2.3,59.997468115504944,True,22.0,0.41666666666666663,0.4464285714285714,-0.7129629629629629,-0.8627173091458804,1,0,1,-0.2538759920012734,0.0740380070829472,0.4166666666666667,0.4166666666666667,0.5,0.8333333333333334,-0.4999999999999998,-0.4999999999999998,3.5,3.5,0.0,2.0,-1.0,4.0,0,0,1
17.0,0.0,17.0,0.0,2.0,0.0,2.0,0.0,,,,right,0.6336719999962952,632.8090406999981,xm15,621.269995700015,623.2844822999905,632.8090406999981,None,True,1.0,['p'],False,0.4166666666666667,0.5,0.1666666666666666,1.0,2.0,0.9358932809493992,0.1887375616854816,succ_gain,1.0,3.0,629.6949427000072,None,xm15,1,2023-03-20_11h32.12.195,threat_forest,2021.2.3,59.997468115504944,True,22.0,0.41666666666666663,0.4464285714285714,-0.7129629629629629,-0.8627173091458804,1,0,1,-0.45622380858025363,0.1887375616854816,1.0,0.4166666666666667,0.5,0.8333333333333334,-0.4999999999999998,-0.4999999999999998,0.5000000000000002,0.5000000000000002,0.0,2.0,-1.0,1.0,1,0,1
17.0,0.0,17.0,0.0,3.0,0.0,3.0,0.0,,,,right,2.2865850999951363,639.0698496999976,xm15,621.269995700015,623.2844822999905,639.0698496999976,None,True,3.0,['p'],False,0.4166666666666667,0.5,0.1666666666666666,1.0,2.0,0.9358932809493992,0.1097621337919566,unsucc_cost,1.0,1.0,635.4729308999958,None,xm15,1,2023-03-20_11h32.12.195,threat_forest,2021.2.3,59.997468115504944,True,22.0,0.41666666666666663,0.4464285714285714,-0.7129629629629629,-0.8627173091458804,1,0,1,0.8270594818774119,0.1097621337919566,0.4166666666666667,0.4166666666666667,0.5,0.8333333333333334,-0.4999999999999998,-0.4999999999999998,2.5,2.5,0.0,2.0,1.0,3.0,0,0,1
17.0,0.0,17.0,0.0,4.0,0.0,4.0,0.0,,,,None,,644.4818382000085,xm15,644.4818382000085,None,641.3842996000021,643.398786500009,False,1.0,['p'],True,0.2962962962962963,0.3333333333333333,0.1111111111111111,1.0,2.0,0.8325252476189534,0.1589252146522379,wait_cost,0.0,0.0,643.398786500009,None,xm15,1,2023-03-20_11h32.12.195,threat_forest,2021.2.3,59.997468115504944,None,22.0,0.41666666666666663,0.4464285714285714,-0.7129629629629629,-0.8627173091458804,0,0,0,,0.1589252146522379,1.0,0.2962962962962963,0.3333333333333333,0.8888888888888888,-1.0000000000000002,-0.925925925925926,0.07407407407407396,0.07407407407407396,1.0,2.0,-1.0,1.0,1,0,0
0.0,0.0,0.0,0.0,0.0,0.0,0.0,0.0,13.018176000012318,16.509402199997567,None,right,1.9894248000055088,17.950148500007344,xm15,17.950148500007344,None,13.018176000012318,16.509402199997567,False,5.0,['r'],True,0.375,0.5,0.25,1.0,1.0,0.9850568223215076,0.037518611380037,wait_cost,0.0,4.0,,,xm15,2,2023-03-20_11h43.45.188,threat_forest,2021.2.3,60.10193287418021,False,9.0,0.4,0.4083333333333333,-1.3025,-1.0077314814814815,0,0,0,0.6878455517314167,0.037518611380037,0.375,0.375,0.5,0.75,-1.25,-1.125,3.875,3.875,1.0,1.0,-1.0,5.0,0,0,0
0.0,0.0,0.0,0.0,1.0,0.0,1.0,0.0,,,,left,1.8067776999960188,23.203976999997398,xm15,19.96609620001982,21.980596500012325,23.203976999997398,None,False,4.0,['r'],False,0.24,0.3,0.2,2.0,1.0,0.9003120349047065,0.0018466381927442,wait_cost,1.0,3.0,21.980596500012325,None,xm15,2,2023-03-20_11h43.45.188,threat_forest,2021.2.3,60.10193287418021,False,9.0,0.4,0.4083333333333333,-1.3025,-1.0077314814814815,0,0,0,0.5915449824573785,0.0018466381927442,0.24,0.24,0.3,0.8,-1.7,-1.48,2.52,2.52,0.0,1.0,-1.0,4.0,0,0,0
0.0,0.0,0.0,0.0,2.0,0.0,2.0,0.0,,,,left,1.584264900011476,29.29226400001789,xm15,19.96609620001982,21.980596500012325,29.29226400001789,None,False,3.0,['r'],False,0.24,0.3,0.2,2.0,1.0,0.9003120349047065,0.0003182842476561,wait_cost,1.0,2.0,27.04252930000075,None,xm15,2,2023-03-20_11h43.45.188,threat_forest,2021.2.3,60.10193287418021,False,9.0,0.4,0.4083333333333333,-1.3025,-1.0077314814814815,0,0,0,0.4601205142657742,0.0003182842476561,0.24,0.24,0.3,0.8,-1.7,-1.48,1.52,1.52,0.0,1.0,-1.0,3.0,0,0,0
0.0,0.0,0.0,0.0,3.0,0.0,3.0,0.0,,,,left,1.9551790000114124,33.788098400022136,xm15,19.96609620001982,21.980596500012325,33.788098400022136,None,False,2.0,['r'],False,0.24,0.3,0.2,2.0,1.0,0.9003120349047065,-0.014262328125,wait_cost,1.0,1.0,32.92044800001895,None,xm15,2,2023-03-20_11h43.45.188,threat_forest,2021.2.3,60.10193287418021,False,9.0,0.4,0.4083333333333333,-1.3025,-1.0077314814814815,0,0,0,0.6704817493540975,-0.014262328125,0.24,0.24,0.3,0.8,-1.7,-1.48,0.52,0.52,0.0,1.0,-1.0,2.0,0,0,0
0.0,0.0,0.0,0.0,4.0,0.0,4.0,0.0,,,,left,1.1941212000092492,39.78094409999903,xm15,39.78094409999903,None,35.76816180002061,37.78248320001876,True,1.0,['r'],True,0.375,0.5,0.25,1.0,1.0,0.9850568223215076,0.1279687499999999,succ_gain,0.0,2.0,37.78248320001876,None,xm15,2,2023-03-20_11h43.45.188,threat_forest,2021.2.3,60.10193287418021,True,9.0,0.4,0.4083333333333333,-1.3025,-1.0077314814814815,0,0,1,0.17741051736430286,0.1279687499999999,1.0,0.375,0.5,0.75,-1.25,-1.125,-0.125,0.0,1.0,1.0,-1.0,1.0,1,0,0
0.0,0.0,0.0,0.0,5.0,0.0,5.0,0.0,,,,None,,46.44691570001305,xm15,40.99651200001245,43.010929600015515,46.44691570001305,None,False,2.0,['r'],False,0.24,0.3,0.2,2.0,1.0,0.9003120349047065,-0.0675,wait_cost,1.0,1.0,43.01092960001552,None,xm15,2,2023-03-20_11h43.45.188,threat_forest,2021.2.3,60.10193287418021,None,9.0,0.4,0.4083333333333333,-1.3025,-1.0077314814814815,0,0,0,,-0.0675,0.24,0.24,0.3,0.8,-1.7,-1.48,0.52,0.52,0.0,1.0,1.0,2.0,0,0,0
0.0,0.0,0.0,0.0,6.0,0.0,6.0,0.0,,,,right,1.8870081000204664,52.469214300013846,xm15,40.99651200001245,43.010929600015515,52.469214300013846,None,True,1.0,['r'],False,0.24,0.3,0.2,2.0,1.0,0.9003120349047065,0.24,fight_cost,1.0,0.0,51.46981589999632,None,xm15,2,2023-03-20_11h43.45.188,threat_forest,2021.2.3,60.10193287418021,True,9.0,0.4,0.4083333333333333,-1.3025,-1.0077314814814815,0,0,1,0.6349925589158681,0.24,1.0,0.24,0.3,0.8,-1.7,-1.48,-0.48,0.0,0.0,1.0,-1.0,1.0,1,0,0
1.0,0.0,1.0,0.0,0.0,0.0,0.0,0.0,59.19637220000732,62.70923170002061,None,left,1.7758088999835309,64.674577400001,xm15,64.674577400001,None,59.19637220000732,62.70923170002061,True,4.0,['r'],True,0.4444444444444445,0.6666666666666666,0.3333333333333333,1.0,1.0,0.9656336071428248,0.0532959044563323,fight_cost,0.0,1.0,,,xm15,2,2023-03-20_11h43.45.188,threat_forest,2021.2.3,60.10193287418021,True,23.0,0.43333333333333335,0.4166666666666667,-1.3600000000000003,-1.3312500000000003,1,1,1,0.574256037419912,0.0532959044563323,0.4444444444444445,0.4444444444444445,0.6666666666666666,0.6666666666666667,-1.0,-1.0,3.0,3.0,1.0,1.0,-1.0,4.0,0,1,1
1.0,0.0,1.0,0.0,1.0,0.0,1.0,0.0,,,,left,1.0801115999929607,69.04086030001054,xm15,66.47266100000707,68.48720940001658,69.04086030001054,None,False,1.0,['r'],False,0.16,0.2,0.2,2.0,1.0,0.8198746470064713,0.0109181967139153,wait_cost,1.0,0.0,68.48720940001658,None,xm15,2,2023-03-20_11h43.45.188,threat_forest,2021.2.3,60.10193287418021,False,23.0,0.43333333333333335,0.4166666666666667,-1.3600000000000003,-1.3312500000000003,0,0,0,0.07706436912442333,0.0109181967139153,1.0,0.16,0.2,0.8,-2.0,-1.7200000000000004,-0.7200000000000004,0.0,0.0,1.0,-1.0,1.0,1,0,0
2.0,0.0,2.0,0.0,0.0,0.0,0.0,0.0,75.77325910000945,79.27720720000798,None,left,1.939698700007284,82.16115710002487,xm15,75.77325910000945,79.27720720000798,82.16115710002487,None,False,4.0,['r'],False,0.21875,0.25,0.125,1.0,1.0,0.7908280489481783,0.0029603746186211,wait_cost,1.0,3.0,,,xm15,2,2023-03-20_11h43.45.188,threat_forest,2021.2.3,60.10193287418021,False,61.0,0.325,0.37916666666666665,-1.354375,-1.3571875000000002,0,0,0,0.6625326517389066,0.0029603746186211,0.21875,0.21875,0.25,0.875,-1.625,-1.46875,2.53125,2.53125,0.0,1.0,-1.0,4.0,0,0,0
2.0,0.0,2.0,0.0,1.0,0.0,1.0,0.0,,,,left,0.806340100010857,87.70339710000553,xm15,87.70339710000553,None,84.12291649999679,86.13763500002096,True,3.0,['r'],True,0.32,0.4,0.2,1.0,1.0,0.9455672104350704,0.0263107318191394,fight_cost,0.0,0.0,86.13763500002096,None,xm15,2,2023-03-20_11h43.45.188,threat_forest,2021.2.3,60.10193287418021,True,61.0,0.325,0.37916666666666665,-1.354375,-1.3571875000000002,1,0,1,-0.21524966516448843,0.0263107318191394,0.32,0.32,0.4,0.8,-1.4,-1.24,1.76,1.76,1.0,1.0,-1.0,3.0,0,0,1
3.0,0.0,3.0,0.0,0.0,0.0,0.0,0.0,92.75769510000828,96.26126840000506,None,left,1.638817500002915,99.03038370001012,xm15,99.03038370001012,None,92.75769510000828,96.26126840000506,True,4.0,['p'],True,0.16,0.2,0.2,2.0,1.0,0.8198746470064713,0.0014137909252576,fight_cost,0.0,1.0,,,xm15,2,2023-03-20_11h43.45.188,threat_forest,2021.2.3,60.10193287418021,True,71.0,0.35,0.3375,-1.7350000000000003,-1.5446875000000002,0,0,1,0.49397494518061946,0.0014137909252576,0.16,0.16,0.2,0.8,-2.0,-1.7200000000000004,2.2799999999999994,2.2799999999999994,1.0,1.0,-1.0,4.0,0,0,0
3.0,0.0,3.0,0.0,1.0,0.0,1.0,0.0,,,,right,1.0258174999908078,105.8526792000048,xm15,105.8526792000048,None,92.75769510000828,96.26126840000506,False,1.0,['p'],True,0.16,0.2,0.2,2.0,1.0,0.8198746470064713,0.0028496185924998,wait_cost,0.0,0.0,102.70533830000204,None,xm15,2,2023-03-20_11h43.45.188,threat_forest,2021.2.3,60.10193287418021,False,71.0,0.35,0.3375,-1.7350000000000003,-1.5446875000000002,0,0,0,0.025489855674274895,0.0028496185924998,1.0,0.16,0.2,0.8,-2.0,-1.7200000000000004,-0.7200000000000004,0.0,1.0,1.0,-1.0,1.0,1,0,0
4.0,0.0,4.0,0.0,0.0,0.0,0.0,0.0,109.74062950001098,113.24537240000792,None,right,1.248756000015419,114.86127799999667,xm15,114.86127799999667,None,109.74062950001098,113.24537240000791,False,5.0,['r'],True,0.25,0.25,0.0,0.0,1.0,0.5118595071429148,0.0173976500804358,wait_cost,0.0,4.0,,,xm15,2,2023-03-20_11h43.45.188,threat_forest,2021.2.3,60.10193287418021,False,32.0,0.26785714285714285,0.30892857142857144,-1.461734693877551,-1.5983673469387756,1,0,0,0.22214785578623547,0.0173976500804358,0.25,0.25,0.25,1.0,-1.25,-1.25,3.75,3.75,1.0,1.0,-1.0,5.0,0,0,1
4.0,0.0,4.0,0.0,1.0,0.0,1.0,0.0,,,,right,1.742705400014529,118.94157940000878,xm15,116.12644960000762,118.14075570000568,118.94157940000878,None,True,4.0,['r'],False,0.2040816326530612,0.2857142857142857,0.2857142857142857,2.0,1.0,0.9335459102197724,0.0053038590155829,unsucc_cost,1.0,2.0,118.14075570000568,None,xm15,2,2023-03-20_11h43.45.188,threat_forest,2021.2.3,60.10193287418021,True,32.0,0.26785714285714285,0.30892857142857144,-1.461734693877551,-1.5983673469387756,0,0,1,0.5554387333280371,0.0053038590155829,0.2040816326530612,0.2040816326530612,0.2857142857142857,0.7142857142857143,-2.0,-1.6734693877551021,2.326530612244898,2.326530612244898,0.0,1.0,-1.0,4.0,0,0,0
4.0,0.0,4.0,0.0,2.0,0.0,2.0,0.0,,,,right,1.4271778000111226,126.18358230000013,xm15,126.18358230000013,None,120.7054802000057,122.71991569999955,False,2.0,['r'],True,0.25,0.25,0.0,0.0,1.0,0.5118595071429148,0.0121283074313569,wait_cost,0.0,1.0,122.71991569999956,None,xm15,2,2023-03-20_11h43.45.188,threat_forest,2021.2.3,60.10193287418021,False,32.0,0.26785714285714285,0.30892857142857144,-1.461734693877551,-1.5983673469387756,1,0,0,0.35569892779768664,0.0121283074313569,0.25,0.25,0.25,1.0,-1.25,-1.25,0.75,0.75,1.0,1.0,-1.0,2.0,0,0,1
4.0,0.0,4.0,0.0,3.0,0.0,3.0,0.0,,,,left,0.6203556999971624,130.5462162000185,xm15,130.5462162000185,None,120.7054802000057,122.71991569999955,True,1.0,['r'],True,0.25,0.25,0.0,0.0,1.0,0.5118595071429148,0.0210069343914418,unsucc_cost,0.0,0.0,129.6467809000169,None,xm15,2,2023-03-20_11h43.45.188,threat_forest,2021.2.3,60.10193287418021,True,32.0,0.26785714285714285,0.30892857142857144,-1.461734693877551,-1.5983673469387756,1,0,1,-0.47746225577863444,0.0210069343914418,1.0,0.25,0.25,1.0,-1.25,-1.25,-0.25,0.0,1.0,1.0,-1.0,1.0,1,0,1
5.0,0.0,5.0,0.0,0.0,0.0,0.0,0.0,136.43331700001727,139.93751310001244,None,left,1.932876700011548,141.63701649999712,xm15,141.63701649999712,None,136.43331700001727,139.93751310001244,True,4.0,['r'],True,0.3333333333333333,0.5,0.3333333333333333,2.0,1.0,1.0,0.0143529277549154,fight_cost,0.0,1.0,,,xm15,2,2023-03-20_11h43.45.188,threat_forest,2021.2.3,60.10193287418021,True,7.0,0.45,0.35892857142857143,-1.0666666666666667,-1.2642006802721089,0,0,1,0.6590094113378967,0.0143529277549154,0.3333333333333333,0.3333333333333333,0.5,0.6666666666666667,-1.5,-1.3333333333333335,2.6666666666666665,2.6666666666666665,1.0,1.0,-1.0,4.0,0,0,0
5.0,0.0,5.0,0.0,1.0,0.0,1.0,0.0,,,,right,0.79711079999106,147.6802122000081,xm15,143.60074480000185,145.61514520001947,147.6802122000081,None,True,1.0,['r'],False,0.4,0.4,0.0,0.0,1.0,0.6126016192893442,0.0410204938271604,succ_gain,1.0,2.0,145.61514520001947,None,xm15,2,2023-03-20_11h43.45.188,threat_forest,2021.2.3,60.10193287418021,True,7.0,0.45,0.35892857142857143,-1.0666666666666667,-1.2642006802721089,1,1,1,-0.22676158853571957,0.0410204938271604,1.0,0.4,0.4,1.0,-0.7999999999999999,-0.7999999999999999,0.20000000000000007,0.20000000000000007,0.0,1.0,-1.0,1.0,1,1,1
5.0,0.0,5.0,0.0,2.0,0.0,2.0,0.0,,,,left,1.2507579999801235,151.8596645000216,xm15,151.8596645000216,None,148.49610340001527,150.51088760001585,True,2.0,['r'],True,0.3333333333333333,0.5,0.3333333333333333,2.0,1.0,1.0,0.020927160493827,fight_cost,0.0,0.0,150.51088760001585,None,xm15,2,2023-03-20_11h43.45.188,threat_forest,2021.2.3,60.10193287418021,True,7.0,0.45,0.35892857142857143,-1.0666666666666667,-1.2642006802721089,0,0,1,0.22374976751213307,0.020927160493827,0.3333333333333333,0.3333333333333333,0.5,0.6666666666666667,-1.5,-1.3333333333333335,0.6666666666666665,0.6666666666666665,1.0,1.0,1.0,2.0,0,0,0
6.0,0.0,6.0,0.0,0.0,0.0,0.0,0.0,157.1072338000231,160.61785700000473,None,left,1.6119339000142645,163.6822854000202,xm15,157.1072338000231,160.61785700000473,163.6822854000202,None,False,4.0,['p'],False,0.2222222222222222,0.6666666666666666,0.6666666666666666,2.0,1.0,0.77250688571426,-0.0341076534259416,wait_cost,1.0,3.0,,,xm15,2,2023-03-20_11h43.45.188,threat_forest,2021.2.3,60.10193287418021,False,30.0,0.5833333333333333,0.5166666666666666,-1.25,-1.1583333333333332,0,0,0,0.4774346382897802,-0.0341076534259416,0.2222222222222222,0.2222222222222222,0.6666666666666666,0.33333333333333337,-2.0,-2.0,2.0,2.0,0.0,1.0,-1.0,4.0,0,0,0
6.0,0.0,6.0,0.0,1.0,0.0,1.0,0.0,,,,left,0.6618215999915265,169.31030320000718,xm15,169.31030320000718,None,165.3138381000026,167.32828950000112,True,3.0,['p'],True,0.5,0.5,0.0,0.0,1.0,0.6309297535714574,0.1098696443115568,succ_gain,0.0,4.0,167.32828950000112,None,xm15,2,2023-03-20_11h43.45.188,threat_forest,2021.2.3,60.10193287418021,True,30.0,0.5833333333333333,0.5166666666666666,-1.25,-1.1583333333333332,1,0,1,-0.4127592457807522,0.1098696443115568,0.5,0.5,0.5,1.0,-0.5,-0.5,2.5,2.5,1.0,1.0,-1.0,3.0,0,0,1
6.0,0.0,6.0,0.0,2.0,0.0,2.0,0.0,,,,left,1.258085099980235,174.78852610001923,xm15,169.99273100000573,172.00721910002176,174.78852610001923,None,False,4.0,['p'],False,0.2222222222222222,0.6666666666666666,0.6666666666666666,2.0,1.0,0.77250688571426,-0.0770792252514861,wait_cost,1.0,3.0,172.00721910002176,None,xm15,2,2023-03-20_11h43.45.188,threat_forest,2021.2.3,60.10193287418021,False,30.0,0.5833333333333333,0.5166666666666666,-1.25,-1.1583333333333332,0,0,0,0.2295908030334029,-0.0770792252514861,0.2222222222222222,0.2222222222222222,0.6666666666666666,0.33333333333333337,-2.0,-2.0,2.0,2.0,0.0,1.0,1.0,4.0,0,0,0
6.0,0.0,6.0,0.0,3.0,0.0,3.0,0.0,,,,left,0.7334865000157151,179.6669401000254,xm15,179.6669401000254,None,176.0704126000055,178.08483940002043,True,3.0,['p'],True,0.5,0.5,0.0,0.0,1.0,0.6309297535714574,0.1788194444444444,succ_gain,0.0,4.0,178.08483940002043,None,xm15,2,2023-03-20_11h43.45.188,threat_forest,2021.2.3,60.10193287418021,True,30.0,0.5833333333333333,0.5166666666666666,-1.25,-1.1583333333333332,1,0,1,-0.30994608645502325,0.1788194444444444,0.5,0.5,0.5,1.0,-0.5,-0.5,2.5,2.5,1.0,1.0,-1.0,3.0,0,0,1
6.0,0.0,6.0,0.0,4.0,0.0,4.0,0.0,,,,left,1.2449183999851812,185.09527680001335,xm15,180.4329587999964,182.44746500000474,185.09527680001335,None,False,4.0,['p'],False,0.2222222222222222,0.6666666666666666,0.6666666666666666,2.0,1.0,0.77250688571426,-0.1818415637860082,wait_cost,1.0,3.0,182.44746500000477,None,xm15,2,2023-03-20_11h43.45.188,threat_forest,2021.2.3,60.10193287418021,False,30.0,0.5833333333333333,0.5166666666666666,-1.25,-1.1583333333333332,0,0,0,0.219069985588111,-0.1818415637860082,0.2222222222222222,0.2222222222222222,0.6666666666666666,0.33333333333333337,-2.0,-2.0,2.0,2.0,0.0,1.0,1.0,4.0,0,0,0
6.0,0.0,6.0,0.0,5.0,0.0,5.0,0.0,,,,left,1.0483947999891825,189.0421314999985,xm15,189.0421314999985,None,186.3607622999989,188.37536190001993,True,3.0,['p'],True,0.5,0.5,0.0,0.0,1.0,0.6309297535714574,0.25,unsucc_cost,0.0,1.0,188.37536190001995,None,xm15,2,2023-03-20_11h43.45.188,threat_forest,2021.2.3,60.10193287418021,True,30.0,0.5833333333333333,0.5166666666666666,-1.25,-1.1583333333333332,1,0,1,0.047260232505540935,0.25,0.5,0.5,0.5,1.0,-0.5,-0.5,2.5,2.5,1.0,1.0,-1.0,3.0,0,0,1
6.0,0.0,6.0,0.0,6.0,0.0,6.0,0.0,,,,left,0.5849254000058863,195.18576800002484,xm15,195.18576800002484,None,186.3607622999989,188.37536190001993,True,1.0,['p'],True,0.5,0.5,0.0,0.0,1.0,0.6309297535714574,0.5,unsucc_cost,0.0,0.0,192.12174270002288,None,xm15,2,2023-03-20_11h43.45.188,threat_forest,2021.2.3,60.10193287418021,True,30.0,0.5833333333333333,0.5166666666666666,-1.25,-1.1583333333333332,1,0,1,-0.5362709612392794,0.5,1.0,0.5,0.5,1.0,-0.5,-0.5,0.5,0.5,1.0,1.0,-1.0,1.0,1,0,1
7.0,0.0,7.0,0.0,0.0,0.0,0.0,0.0,200.52410730000705,204.02745220001088,None,right,0.7475940999865998,206.30907260000825,xm15,200.52410730000705,204.02745220001088,206.30907260000825,None,True,5.0,['p'],False,0.6,0.6,0.0,0.0,2.0,0.6126016192893442,0.0562706701368849,unsucc_cost,1.0,3.0,,,xm15,2,2023-03-20_11h43.45.188,threat_forest,2021.2.3,60.10193287418021,True,62.0,0.6125,0.5979166666666667,0.012499999999999956,-0.61875,1,1,1,-0.2908950953706084,0.0562706701368849,0.6,0.6,0.6,1.0,0.3999999999999999,0.3999999999999999,5.4,5.4,0.0,2.0,-1.0,5.0,0,1,1
7.0,0.0,7.0,0.0,1.0,0.0,1.0,0.0,,,,right,0.571303100005025,211.5871786000207,xm15,200.52410730000705,204.02745220001088,211.5871786000207,None,True,3.0,['p'],False,0.6,0.6,0.0,0.0,2.0,0.6126016192893442,0.2104563208898306,succ_gain,1.0,5.0,209.0892595000041,None,xm15,2,2023-03-20_11h43.45.188,threat_forest,2021.2.3,60.10193287418021,True,62.0,0.6125,0.5979166666666667,0.012499999999999956,-0.61875,1,1,1,-0.5598353870367466,0.2104563208898306,0.6,0.6,0.6,1.0,0.3999999999999999,0.3999999999999999,3.4,3.4,0.0,2.0,-1.0,3.0,0,1,1
7.0,0.0,7.0,0.0,2.0,0.0,2.0,0.0,,,,None,,215.38838540000145,xm15,215.38838540000145,None,212.18675890000304,214.20122090002405,False,5.0,['p'],True,0.46875,0.625,0.25,2.0,2.0,0.9634951148421658,-0.0122776407927275,wait_cost,0.0,4.0,214.20122090002403,None,xm15,2,2023-03-20_11h43.45.188,threat_forest,2021.2.3,60.10193287418021,None,62.0,0.6125,0.5979166666666667,0.012499999999999956,-0.61875,1,0,0,,-0.0122776407927275,0.46875,0.46875,0.625,0.75,-0.25,-0.375,4.625,4.625,1.0,2.0,1.0,5.0,0,0,1
7.0,0.0,7.0,0.0,3.0,0.0,3.0,0.0,,,,right,0.6379473000124563,222.6272020000033,xm15,218.39766660000896,220.41201320002438,222.6272020000033,None,True,4.0,['p'],False,0.6,0.6,0.0,0.0,2.0,0.6126016192893442,0.110478515625,unsucc_cost,1.0,2.0,220.4120132000244,None,xm15,2,2023-03-20_11h43.45.188,threat_forest,2021.2.3,60.10193287418021,True,62.0,0.6125,0.5979166666666667,0.012499999999999956,-0.61875,1,1,1,-0.4494996009104226,0.110478515625,0.6,0.6,0.6,1.0,0.3999999999999999,0.3999999999999999,4.4,4.4,0.0,2.0,-1.0,4.0,0,1,1
7.0,0.0,7.0,0.0,4.0,0.0,4.0,0.0,,,,right,0.6930339999962598,226.45714680000677,xm15,218.39766660000896,220.41201320002438,226.45714680000677,None,True,2.0,['p'],False,0.6,0.6,0.0,0.0,2.0,0.6126016192893442,0.0656249999999999,unsucc_cost,1.0,0.0,225.3075625000056,None,xm15,2,2023-03-20_11h43.45.188,threat_forest,2021.2.3,60.10193287418021,True,62.0,0.6125,0.5979166666666667,0.012499999999999956,-0.61875,1,1,1,-0.3666762189520716,0.0656249999999999,0.6,0.6,0.6,1.0,0.3999999999999999,0.3999999999999999,2.4,2.4,0.0,2.0,-1.0,2.0,0,1,1
8.0,0.0,8.0,0.0,0.0,0.0,0.0,0.0,232.16078200002084,235.6644661000173,None,left,1.041181399981724,237.6494067000167,xm15,232.16078200002084,235.6644661000173,237.6494067000167,None,False,4.0,['p'],False,0.18,0.2,0.1,1.0,1.0,0.7058405977926203,-0.0012447101888581,wait_cost,1.0,3.0,,,xm15,2,2023-03-20_11h43.45.188,threat_forest,2021.2.3,60.10193287418021,False,11.0,0.35,0.48125,-1.3425000000000002,-0.6650000000000001,0,0,0,0.040356029958083635,-0.0012447101888581,0.18,0.18,0.2,0.9,-1.7000000000000002,-1.5600000000000003,2.4399999999999995,2.4399999999999995,0.0,1.0,-1.0,4.0,0,0,0
8.0,0.0,8.0,0.0,1.0,0.0,1.0,0.0,,,,left,1.2654544000106398,244.07410460000392,xm15,244.07410460000392,None,238.7123812000209,240.72647600001073,True,3.0,['p'],True,0.375,0.5,0.25,1.0,1.0,0.9850568223215076,0.0399199646186828,succ_gain,0.0,4.0,240.72647600001076,None,xm15,2,2023-03-20_11h43.45.188,threat_forest,2021.2.3,60.10193287418021,True,11.0,0.35,0.48125,-1.3425000000000002,-0.6650000000000001,0,0,1,0.2354312671737756,0.0399199646186828,0.375,0.375,0.5,0.75,-1.25,-1.125,1.875,1.875,1.0,1.0,-1.0,3.0,0,0,0
8.0,0.0,8.0,0.0,2.0,0.0,2.0,0.0,,,,left,1.117273199983174,248.64014339999997,xm15,245.3724055000057,247.38685060001444,248.64014339999997,None,False,4.0,['p'],False,0.18,0.2,0.1,1.0,1.0,0.7058405977926203,-0.0038789942871094,wait_cost,1.0,3.0,247.38685060001444,None,xm15,2,2023-03-20_11h43.45.188,threat_forest,2021.2.3,60.10193287418021,False,11.0,0.35,0.48125,-1.3425000000000002,-0.6650000000000001,0,0,0,0.11089107387264156,-0.0038789942871094,0.18,0.18,0.2,0.9,-1.7000000000000002,-1.5600000000000003,2.4399999999999995,2.4399999999999995,0.0,1.0,1.0,4.0,0,0,0
8.0,0.0,8.0,0.0,3.0,0.0,3.0,0.0,,,,left,0.5596690000093076,254.66389670001809,xm15,254.66389670001809,None,249.78502010001105,251.79937880000216,True,3.0,['p'],True,0.375,0.5,0.25,1.0,1.0,0.9850568223215076,0.086178955078125,unsucc_cost,0.0,1.0,251.79937880000216,None,xm15,2,2023-03-20_11h43.45.188,threat_forest,2021.2.3,60.10193287418021,True,11.0,0.35,0.48125,-1.3425000000000002,-0.6650000000000001,0,0,1,-0.5804097414164636,0.086178955078125,0.375,0.375,0.5,0.75,-1.25,-1.125,1.875,1.875,1.0,1.0,-1.0,3.0,0,0,0
8.0,0.0,8.0,0.0,4.0,0.0,4.0,0.0,,,,right,2.0368124000087846,260.00875670000096,xm15,255.24641620001057,257.26094500001636,260.00875670000096,None,True,1.0,['p'],False,0.18,0.2,0.1,1.0,1.0,0.7058405977926203,0.0587249999999999,unsucc_cost,1.0,0.0,257.2609450000164,None,xm15,2,2023-03-20_11h43.45.188,threat_forest,2021.2.3,60.10193287418021,True,11.0,0.35,0.48125,-1.3425000000000002,-0.6650000000000001,0,0,1,0.7113860367879331,0.0587249999999999,1.0,0.18,0.2,0.9,-1.7000000000000002,-1.5600000000000003,-0.5600000000000003,0.0,0.0,1.0,-1.0,1.0,1,0,0
9.0,0.0,9.0,0.0,0.0,0.0,0.0,0.0,267.79520870000124,271.2846091000247,None,right,0.6134253999916837,273.7460431000218,xm15,267.79520870000124,271.2846091000247,273.7460431000218,None,True,5.0,['r'],False,0.32,0.4,0.2,1.0,1.0,0.9455672104350704,0.029786704162101,unsucc_cost,1.0,3.0,,,xm15,2,2023-03-20_11h43.45.188,threat_forest,2021.2.3,60.10193287418021,True,48.0,0.3111111111111111,0.33055555555555555,-1.3792592592592592,-1.3608796296296297,1,0,1,-0.4886966196303034,0.029786704162101,0.32,0.32,0.4,0.8,-1.4,-1.24,3.76,3.76,0.0,1.0,-1.0,5.0,0,0,1
9.0,0.0,9.0,0.0,1.0,0.0,1.0,0.0,,,,right,0.7487933000084013,278.65793880002457,xm15,267.79520870000124,271.2846091000247,278.65793880002457,None,True,3.0,['r'],False,0.32,0.4,0.2,1.0,1.0,0.9455672104350704,0.0271702936740403,unsucc_cost,1.0,1.0,276.3930589000229,None,xm15,2,2023-03-20_11h43.45.188,threat_forest,2021.2.3,60.10193287418021,True,48.0,0.3111111111111111,0.33055555555555555,-1.3792592592592592,-1.3608796296296297,1,0,1,-0.28929230149713814,0.0271702936740403,0.32,0.32,0.4,0.8,-1.4,-1.24,1.76,1.76,0.0,1.0,-1.0,3.0,0,0,1
9.0,0.0,9.0,0.0,2.0,0.0,2.0,0.0,,,,right,0.7696136000158731,284.1030577000056,xm15,267.79520870000124,271.2846091000247,284.1030577000056,None,True,1.0,['r'],False,0.32,0.4,0.2,1.0,1.0,0.9455672104350704,0.0285015095094041,succ_gain,1.0,2.0,281.4383395000186,None,xm15,2,2023-03-20_11h43.45.188,threat_forest,2021.2.3,60.10193287418021,True,48.0,0.3111111111111111,0.33055555555555555,-1.3792592592592592,-1.3608796296296297,1,0,1,-0.26186670824848346,0.0285015095094041,1.0,0.32,0.4,0.8,-1.4,-1.24,-0.24,0.0,0.0,1.0,-1.0,1.0,1,0,1
9.0,0.0,9.0,0.0,3.0,0.0,3.0,0.0,,,,right,1.7851806999824475,289.2815692000149,xm15,267.79520870000124,271.2846091000247,289.2815692000149,None,True,2.0,['r'],False,0.32,0.4,0.2,1.0,1.0,0.9455672104350704,0.0283699473129097,unsucc_cost,1.0,0.0,286.9166688999976,None,xm15,2,2023-03-20_11h43.45.188,threat_forest,2021.2.3,60.10193287418021,True,48.0,0.3111111111111111,0.33055555555555555,-1.3792592592592592,-1.3608796296296297,1,0,1,0.5795196425911042,0.0283699473129097,0.32,0.32,0.4,0.8,-1.4,-1.24,0.76,0.76,0.0,1.0,1.0,2.0,0,0,1
10.0,0.0,10.0,0.0,0.0,0.0,0.0,0.0,296.5648187000188,300.0710437000089,None,left,0.594042900018394,302.05336300001363,xm15,302.05336300001363,None,296.5648187000188,300.0710437000089,True,4.0,['r'],True,0.4,0.4,0.0,0.0,2.0,0.6126016192893442,0.0555185734261673,succ_gain,0.0,6.0,,,xm15,2,2023-03-20_11h43.45.188,threat_forest,2021.2.3,60.10193287418021,True,33.0,0.41428571428571426,0.3626984126984127,-0.7306122448979593,-1.0549357520786091,1,1,1,-0.5208037399742049,0.0555185734261673,0.4,0.4,0.4,1.0,-0.3999999999999999,-0.3999999999999999,3.6,3.6,1.0,2.0,-1.0,4.0,0,1,1
10.0,0.0,10.0,0.0,1.0,0.0,1.0,0.0,,,,left,1.5106373000016902,306.11890630002017,xm15,302.66896239999915,304.68334400001913,306.11890630002017,None,False,6.0,['r'],False,0.3061224489795918,0.4285714285714285,0.2857142857142857,2.0,2.0,0.9885754083994552,-0.1118857253410899,wait_cost,1.0,5.0,304.68334400001913,None,xm15,2,2023-03-20_11h43.45.188,threat_forest,2021.2.3,60.10193287418021,False,33.0,0.41428571428571426,0.3626984126984127,-0.7306122448979593,-1.0549357520786091,0,0,0,0.4125316147687772,-0.1118857253410899,0.3061224489795918,0.3061224489795918,0.4285714285714285,0.7142857142857143,-1.1428571428571432,-1.0612244897959187,4.938775510204081,4.938775510204081,0.0,2.0,1.0,6.0,0,0,0
10.0,0.0,10.0,0.0,2.0,0.0,2.0,0.0,,,,right,2.064000299986219,313.3256384000124,xm15,313.3256384000124,None,307.6475894000032,309.6622277999995,False,5.0,['r'],True,0.4,0.4,0.0,0.0,2.0,0.6126016192893442,0.0900663897782421,wait_cost,0.0,4.0,309.6622277999995,None,xm15,2,2023-03-20_11h43.45.188,threat_forest,2021.2.3,60.10193287418021,False,33.0,0.41428571428571426,0.3626984126984127,-0.7306122448979593,-1.0549357520786091,1,1,0,0.7246459929614661,0.0900663897782421,0.4,0.4,0.4,1.0,-0.3999999999999999,-0.3999999999999999,4.6,4.6,1.0,2.0,-1.0,5.0,0,1,1
10.0,0.0,10.0,0.0,3.0,0.0,3.0,0.0,,,,left,1.08800479999627,321.0849656000209,xm15,321.0849656000209,None,307.6475894000032,309.6622277999995,True,4.0,['r'],True,0.4,0.4,0.0,0.0,2.0,0.6126016192893442,0.0948854643898376,succ_gain,0.0,6.0,317.42141380000976,None,xm15,2,2023-03-20_11h43.45.188,threat_forest,2021.2.3,60.10193287418021,True,33.0,0.41428571428571426,0.3626984126984127,-0.7306122448979593,-1.0549357520786091,1,1,1,0.08434556018529675,0.0948854643898376,0.4,0.4,0.4,1.0,-0.3999999999999999,-0.3999999999999999,3.6,3.6,1.0,2.0,-1.0,4.0,0,1,1
10.0,0.0,10.0,0.0,4.0,0.0,4.0,0.0,,,,right,0.7321320000046398,327.82877819999703,xm15,327.82877819999703,None,307.6475894000032,309.6622277999995,False,6.0,['r'],True,0.4,0.4,0.0,0.0,2.0,0.6126016192893442,0.0,wait_cost,0.0,5.0,324.2151164000097,None,xm15,2,2023-03-20_11h43.45.188,threat_forest,2021.2.3,60.10193287418021,False,33.0,0.41428571428571426,0.3626984126984127,-0.7306122448979593,-1.0549357520786091,1,1,0,-0.31179445340275136,0.0,0.0,0.4,0.4,1.0,-0.3999999999999999,-0.3999999999999999,5.6,5.6,1.0,2.0,1.0,6.0,0,1,1
10.0,0.0,10.0,0.0,5.0,0.0,5.0,0.0,,,,right,1.1016909999889322,331.3088990999968,xm15,331.3088990999968,None,307.6475894000032,309.6622277999995,False,5.0,['r'],True,0.4,0.4,0.0,0.0,2.0,0.6126016192893442,0.0,wait_cost,0.0,4.0,330.59296770000947,None,xm15,2,2023-03-20_11h43.45.188,threat_forest,2021.2.3,60.10193287418021,False,33.0,0.41428571428571426,0.3626984126984127,-0.7306122448979593,-1.0549357520786091,1,1,0,0.09684627212740266,0.0,0.0,0.4,0.4,1.0,-0.3999999999999999,-0.3999999999999999,4.6,4.6,1.0,2.0,-1.0,5.0,0,1,1
10.0,0.0,10.0,0.0,6.0,0.0,6.0,0.0,,,,right,0.9234744999848772,335.4221184000198,xm15,335.4221184000198,None,307.6475894000032,309.6622277999995,False,4.0,['r'],True,0.4,0.4,0.0,0.0,2.0,0.6126016192893442,0.0,wait_cost,0.0,3.0,334.4555438000243,None,xm15,2,2023-03-20_11h43.45.188,threat_forest,2021.2.3,60.10193287418021,False,33.0,0.41428571428571426,0.3626984126984127,-0.7306122448979593,-1.0549357520786091,1,1,0,-0.07961209208478837,0.0,0.0,0.4,0.4,1.0,-0.3999999999999999,-0.3999999999999999,3.6,3.6,1.0,2.0,-1.0,4.0,0,1,1
10.0,0.0,10.0,0.0,7.0,0.0,7.0,0.0,,,,left,0.8640199999790639,339.15198120000423,xm15,336.3737133000104,338.3851529000094,339.15198120000423,None,False,3.0,['r'],False,0.3061224489795918,0.4285714285714285,0.2857142857142857,2.0,2.0,0.9885754083994552,-0.2857142857142857,wait_cost,1.0,2.0,338.3851529000094,None,xm15,2,2023-03-20_11h43.45.188,threat_forest,2021.2.3,60.10193287418021,False,33.0,0.41428571428571426,0.3626984126984127,-0.7306122448979593,-1.0549357520786091,0,0,0,-0.1461593623220786,-0.2857142857142857,0.0,0.3061224489795918,0.4285714285714285,0.7142857142857143,-1.1428571428571432,-1.0612244897959187,1.9387755102040813,1.9387755102040813,0.0,2.0,-1.0,3.0,0,0,0
11.0,0.0,11.0,0.0,0.0,0.0,0.0,0.0,343.6963981000008,347.21032680000644,None,left,2.1524697999993805,350.72549410001375,xm15,343.6963981000008,347.21032680000644,350.72549410001375,None,False,4.0,['r'],False,0.1875,0.25,0.25,2.0,1.0,0.895754137500101,-0.0017291066874999,wait_cost,1.0,3.0,,,xm15,2,2023-03-20_11h43.45.188,threat_forest,2021.2.3,60.10193287418021,False,57.0,0.4583333333333333,0.4363095238095238,-1.34375,-1.0371811224489798,0,0,0,0.766615927023592,-0.0017291066874999,0.1875,0.1875,0.25,0.75,-2.0,-1.6875,2.3125,2.3125,0.0,1.0,-1.0,4.0,0,0,0
11.0,0.0,11.0,0.0,1.0,0.0,1.0,0.0,,,,left,1.8455900000117251,357.35116380002,xm15,357.35116380002,None,352.90539120000903,354.9199203000171,True,3.0,['r'],True,0.4444444444444445,0.6666666666666666,0.3333333333333333,1.0,1.0,0.9656336071428248,0.0513734255734631,fight_cost,0.0,0.0,354.9199203000171,None,xm15,2,2023-03-20_11h43.45.188,threat_forest,2021.2.3,60.10193287418021,True,57.0,0.4583333333333333,0.4363095238095238,-1.34375,-1.0371811224489798,1,1,1,0.6127990095769266,0.0513734255734631,0.4444444444444445,0.4444444444444445,0.6666666666666666,0.6666666666666667,-1.0,-1.0,2.0,2.0,1.0,1.0,-1.0,3.0,0,1,1
12.0,0.0,12.0,0.0,0.0,0.0,0.0,0.0,362.9401041000092,366.442426100024,None,right,1.242948399973102,369.65912480000407,xm15,369.65912480000407,None,362.9401041000092,366.442426100024,False,5.0,['p'],True,0.2448979591836734,0.2857142857142857,0.1428571428571428,1.0,1.0,0.8400769154957735,-0.0059145108757046,wait_cost,0.0,4.0,,,xm15,2,2023-03-20_11h43.45.188,threat_forest,2021.2.3,60.10193287418021,False,69.0,0.39285714285714285,0.4255952380952381,-1.2665816326530612,-1.3051658163265305,0,0,0,0.21748629917543605,-0.0059145108757046,0.2448979591836734,0.2448979591836734,0.2857142857142857,0.8571428571428572,-1.5714285714285712,-1.4081632653061225,3.5918367346938775,3.5918367346938775,1.0,1.0,-1.0,5.0,0,0,0
12.0,0.0,12.0,0.0,1.0,0.0,1.0,0.0,,,,right,1.810850500012748,373.8191402000084,xm15,373.8191402000084,None,362.9401041000092,366.442426100024,False,4.0,['p'],True,0.2448979591836734,0.2857142857142857,0.1428571428571428,1.0,1.0,0.8400769154957735,0.0039335814476322,wait_cost,0.0,3.0,372.9362871000194,None,xm15,2,2023-03-20_11h43.45.188,threat_forest,2021.2.3,60.10193287418021,False,69.0,0.39285714285714285,0.4255952380952381,-1.2665816326530612,-1.3051658163265305,0,0,0,0.5937966244240352,0.0039335814476322,0.2448979591836734,0.2448979591836734,0.2857142857142857,0.8571428571428572,-1.5714285714285712,-1.4081632653061225,2.5918367346938775,2.5918367346938775,1.0,1.0,-1.0,4.0,0,0,0
12.0,0.0,12.0,0.0,2.0,0.0,2.0,0.0,,,,right,1.0652535000117496,378.36509710000246,xm15,375.6511235000216,377.66554899999755,378.36509710000246,None,True,3.0,['p'],False,0.375,0.5,0.25,1.0,1.0,0.9850568223215076,0.0489805383249788,succ_gain,1.0,4.0,377.6655489999976,None,xm15,2,2023-03-20_11h43.45.188,threat_forest,2021.2.3,60.10193287418021,True,69.0,0.39285714285714285,0.4255952380952381,-1.2665816326530612,-1.3051658163265305,1,0,1,0.06321279901722228,0.0489805383249788,0.375,0.375,0.5,0.75,-1.25,-1.125,1.875,1.875,0.0,1.0,-1.0,3.0,0,0,1
12.0,0.0,12.0,0.0,3.0,0.0,3.0,0.0,,,,right,1.646783600008348,383.643699600012,xm15,375.6511235000216,377.66554899999755,383.643699600012,None,True,4.0,['p'],False,0.375,0.5,0.25,1.0,1.0,0.9850568223215076,0.0767058090154061,succ_gain,1.0,5.0,381.4617867000052,None,xm15,2,2023-03-20_11h43.45.188,threat_forest,2021.2.3,60.10193287418021,True,69.0,0.39285714285714285,0.4255952380952381,-1.2665816326530612,-1.3051658163265305,1,0,1,0.49882405216129666,0.0767058090154061,0.375,0.375,0.5,0.75,-1.25,-1.125,2.875,2.875,0.0,1.0,1.0,4.0,0,0,1
12.0,0.0,12.0,0.0,4.0,0.0,4.0,0.0,,,,right,2.1097065999929328,389.2404747999972,xm15,389.2404747999972,None,385.30842820002,387.32294980000006,False,5.0,['p'],True,0.2448979591836734,0.2857142857142857,0.1428571428571428,1.0,1.0,0.8400769154957735,-0.4227403255658781,wait_cost,0.0,4.0,387.32294980000006,None,xm15,2,2023-03-20_11h43.45.188,threat_forest,2021.2.3,60.10193287418021,False,69.0,0.39285714285714285,0.4255952380952381,-1.2665816326530612,-1.3051658163265305,0,0,0,0.7465488856832797,-0.4227403255658781,0.0,0.2448979591836734,0.2857142857142857,0.8571428571428572,-1.5714285714285712,-1.4081632653061225,3.5918367346938775,3.5918367346938775,1.0,1.0,1.0,5.0,0,0,0
12.0,0.0,12.0,0.0,5.0,0.0,5.0,0.0,,,,right,1.0913294999918437,396.1488025000144,xm15,396.1488025000144,None,385.30842820002,387.32294980000006,False,4.0,['p'],True,0.2448979591836734,0.2857142857142857,0.1428571428571428,1.0,1.0,0.8400769154957735,-0.5011453561016244,wait_cost,0.0,3.0,393.3839900000021,None,xm15,2,2023-03-20_11h43.45.188,threat_forest,2021.2.3,60.10193287418021,False,69.0,0.39285714285714285,0.4255952380952381,-1.2665816326530612,-1.3051658163265305,0,0,0,0.08739667774428306,-0.5011453561016244,0.0,0.2448979591836734,0.2857142857142857,0.8571428571428572,-1.5714285714285712,-1.4081632653061225,2.5918367346938775,2.5918367346938775,1.0,1.0,-1.0,4.0,0,0,0
12.0,0.0,12.0,0.0,6.0,0.0,6.0,0.0,,,,right,1.2189924999838695,400.8939115999965,xm15,400.8939115999965,None,385.30842820002,387.32294980000006,False,3.0,['p'],True,0.2448979591836734,0.2857142857142857,0.1428571428571428,1.0,1.0,0.8400769154957735,-0.5653373594335693,wait_cost,0.0,2.0,399.2783663000155,None,xm15,2,2023-03-20_11h43.45.188,threat_forest,2021.2.3,60.10193287418021,False,69.0,0.39285714285714285,0.4255952380952381,-1.2665816326530612,-1.3051658163265305,0,0,0,0.1980246978828893,-0.5653373594335693,0.0,0.2448979591836734,0.2857142857142857,0.8571428571428572,-1.5714285714285712,-1.4081632653061225,1.5918367346938775,1.5918367346938775,1.0,1.0,-1.0,3.0,0,0,0
12.0,0.0,12.0,0.0,7.0,0.0,7.0,0.0,,,,left,2.0816271000076085,407.18823440000415,xm15,402.1426791000122,404.15742600001977,407.18823440000415,None,False,2.0,['p'],False,0.375,0.5,0.25,1.0,1.0,0.9850568223215076,-0.625,wait_cost,1.0,1.0,404.15742600001977,None,xm15,2,2023-03-20_11h43.45.188,threat_forest,2021.2.3,60.10193287418021,False,69.0,0.39285714285714285,0.4255952380952381,-1.2665816326530612,-1.3051658163265305,1,0,0,0.7331498475266826,-0.625,0.0,0.375,0.5,0.75,-1.25,-1.125,0.875,0.875,0.0,1.0,-1.0,2.0,0,0,1
13.0,0.0,13.0,0.0,0.0,0.0,0.0,0.0,412.62528090001433,416.1292726000247,None,left,0.6326690000132658,417.82847910001874,xm15,417.82847910001874,None,412.62528090001433,416.1292726000247,True,4.0,['p'],True,0.4444444444444445,0.6666666666666666,0.3333333333333333,1.0,2.0,0.9656336071428248,0.064046602155505,unsucc_cost,0.0,2.0,,,xm15,2,2023-03-20_11h43.45.188,threat_forest,2021.2.3,60.10193287418021,True,1.0,0.4833333333333333,0.4380952380952381,-0.7877777777777778,-1.0271797052154195,1,1,1,-0.45780790037347746,0.064046602155505,0.4444444444444445,0.4444444444444445,0.6666666666666666,0.6666666666666667,-0.3333333333333335,-0.5555555555555556,3.4444444444444446,3.4444444444444446,1.0,2.0,-1.0,4.0,0,1,1
13.0,0.0,13.0,0.0,1.0,0.0,1.0,0.0,,,,left,1.3377809000085108,421.9459449000133,xm15,418.4777288000041,420.49276930000633,421.9459449000133,None,False,2.0,['p'],False,0.27,0.3,0.1,1.0,2.0,0.7963326591781347,-0.0234580554848939,wait_cost,1.0,1.0,420.49276930000633,None,xm15,2,2023-03-20_11h43.45.188,threat_forest,2021.2.3,60.10193287418021,False,1.0,0.4833333333333333,0.4380952380952381,-0.7877777777777778,-1.0271797052154195,1,0,0,0.29101219643513715,-0.0234580554848939,0.27,0.27,0.3,0.9,-1.1,-1.02,0.98,0.98,0.0,2.0,-1.0,2.0,0,0,1
13.0,0.0,13.0,0.0,2.0,0.0,2.0,0.0,,,,right,1.4415648999856785,426.6198990000121,xm15,418.4777288000041,420.49276930000633,426.6198990000121,None,True,1.0,['p'],False,0.27,0.3,0.1,1.0,2.0,0.7963326591781347,0.1195719834516461,succ_gain,1.0,3.0,425.3207933000231,None,xm15,2,2023-03-20_11h43.45.188,threat_forest,2021.2.3,60.10193287418021,True,1.0,0.4833333333333333,0.4380952380952381,-0.7877777777777778,-1.0271797052154195,1,0,1,0.36572925961885977,0.1195719834516461,1.0,0.27,0.3,0.9,-1.1,-1.02,-0.020000000000000018,0.0,0.0,2.0,-1.0,1.0,1,0,1
13.0,0.0,13.0,0.0,3.0,0.0,3.0,0.0,,,,left,2.293417099979706,431.39866970002186,xm15,431.39866970002186,None,428.0852865000197,430.0997168000031,True,3.0,['p'],True,0.4444444444444445,0.6666666666666666,0.3333333333333333,1.0,2.0,0.9656336071428248,0.0840517292714524,fight_cost,0.0,0.0,430.0997168000031,None,xm15,2,2023-03-20_11h43.45.188,threat_forest,2021.2.3,60.10193287418021,True,1.0,0.4833333333333333,0.4380952380952381,-0.7877777777777778,-1.0271797052154195,1,1,1,0.8300428887640205,0.0840517292714524,0.4444444444444445,0.4444444444444445,0.6666666666666666,0.6666666666666667,-0.3333333333333335,-0.5555555555555556,2.4444444444444446,2.4444444444444446,1.0,2.0,1.0,3.0,0,1,1
14.0,0.0,14.0,0.0,0.0,0.0,0.0,0.0,436.3492766999989,439.857252900023,None,right,0.6929260999895632,440.3902661000029,xm15,436.3492766999989,439.857252900023,440.3902661000029,None,True,4.0,['p'],False,0.5,0.5,0.0,0.0,1.0,0.6309297535714574,0.0805026556124999,unsucc_cost,1.0,2.0,,,xm15,2,2023-03-20_11h43.45.188,threat_forest,2021.2.3,60.10193287418021,True,0.0,0.55,0.5166666666666666,-0.9100000000000001,-0.848888888888889,1,0,1,-0.3668319233001487,0.0805026556124999,0.5,0.5,0.5,1.0,-0.5,-0.5,3.5,3.5,0.0,1.0,-1.0,4.0,0,0,1
14.0,0.0,14.0,0.0,1.0,0.0,1.0,0.0,,,,right,0.7661654999828897,445.56870670002536,xm15,436.3492766999989,439.857252900023,445.56870670002536,None,True,2.0,['p'],False,0.5,0.5,0.0,0.0,1.0,0.6309297535714574,0.0445789599999999,unsucc_cost,1.0,0.0,443.12082640000153,None,xm15,2,2023-03-20_11h43.45.188,threat_forest,2021.2.3,60.10193287418021,True,0.0,0.55,0.5166666666666666,-0.9100000000000001,-0.848888888888889,1,0,1,-0.2663570751596724,0.0445789599999999,0.5,0.5,0.5,1.0,-0.5,-0.5,1.5,1.5,0.0,1.0,-1.0,2.0,0,0,1
15.0,0.0,15.0,0.0,0.0,0.0,0.0,0.0,449.2929248000146,452.7829946000129,None,left,1.5217073000094388,455.1464449000196,xm15,455.1464449000196,None,449.2929248000146,452.7829946000129,True,4.0,['r'],True,0.345679012345679,0.4444444444444444,0.2222222222222222,2.0,2.0,0.9685033186841367,0.0005482667043862,succ_gain,0.0,6.0,,,xm15,2,2023-03-20_11h43.45.188,threat_forest,2021.2.3,60.10193287418021,True,52.0,0.43650793650793646,0.4932539682539683,-0.5626102292768962,-0.7363051146384482,0,0,1,0.41983292820484314,0.0005482667043862,0.345679012345679,0.345679012345679,0.4444444444444444,0.7777777777777778,-0.888888888888889,-0.8395061728395062,3.1604938271604937,3.1604938271604937,1.0,2.0,-1.0,4.0,0,0,0
15.0,0.0,15.0,0.0,1.0,0.0,1.0,0.0,,,,right,2.020053000014741,460.2885406000132,xm15,460.2885406000132,None,449.2929248000146,452.7829946000129,False,6.0,['r'],True,0.345679012345679,0.4444444444444444,0.2222222222222222,2.0,2.0,0.9685033186841367,-0.0877175419811512,wait_cost,0.0,5.0,458.7062434999971,None,xm15,2,2023-03-20_11h43.45.188,threat_forest,2021.2.3,60.10193287418021,False,52.0,0.43650793650793646,0.4932539682539683,-0.5626102292768962,-0.7363051146384482,0,0,0,0.7031237486999726,-0.0877175419811512,0.345679012345679,0.345679012345679,0.4444444444444444,0.7777777777777778,-0.888888888888889,-0.8395061728395062,5.160493827160494,5.160493827160494,1.0,2.0,1.0,6.0,0,0,0
15.0,0.0,15.0,0.0,2.0,0.0,2.0,0.0,,,,right,1.9558701000059957,465.085776699998,xm15,465.085776699998,None,449.2929248000146,452.7829946000129,False,5.0,['r'],True,0.345679012345679,0.4444444444444444,0.2222222222222222,2.0,2.0,0.9685033186841367,-0.0045127077489298,wait_cost,0.0,4.0,464.3509061000077,None,xm15,2,2023-03-20_11h43.45.188,threat_forest,2021.2.3,60.10193287418021,False,52.0,0.43650793650793646,0.4932539682539683,-0.5626102292768962,-0.7363051146384482,0,0,0,0.6708351583674353,-0.0045127077489298,0.345679012345679,0.345679012345679,0.4444444444444444,0.7777777777777778,-0.888888888888889,-0.8395061728395062,4.160493827160494,4.160493827160494,1.0,2.0,-1.0,5.0,0,0,0
15.0,0.0,15.0,0.0,3.0,0.0,3.0,0.0,,,,right,2.693106999999145,471.69495070000994,xm15,471.69495070000994,None,449.2929248000146,452.7829946000129,False,4.0,['r'],True,0.345679012345679,0.4444444444444444,0.2222222222222222,2.0,2.0,0.9685033186841367,-0.0094467728559638,wait_cost,0.0,3.0,469.07993030000944,None,xm15,2,2023-03-20_11h43.45.188,threat_forest,2021.2.3,60.10193287418021,False,52.0,0.43650793650793646,0.4932539682539683,-0.5626102292768962,-0.7363051146384482,0,0,0,0.9906955456800022,-0.0094467728559638,0.345679012345679,0.345679012345679,0.4444444444444444,0.7777777777777778,-0.888888888888889,-0.8395061728395062,3.1604938271604937,3.1604938271604937,1.0,2.0,-1.0,4.0,0,0,0
15.0,0.0,15.0,0.0,4.0,0.0,4.0,0.0,,,,left,2.453974800009746,477.838776700024,xm15,477.838776700024,None,449.2929248000146,452.7829946000129,True,3.0,['r'],True,0.345679012345679,0.4444444444444444,0.2222222222222222,2.0,2.0,0.9685033186841367,0.105107017658458,succ_gain,0.0,5.0,476.42309610001394,None,xm15,2,2023-03-20_11h43.45.188,threat_forest,2021.2.3,60.10193287418021,True,52.0,0.43650793650793646,0.4932539682539683,-0.5626102292768962,-0.7363051146384482,0,0,1,0.89770907729131,0.105107017658458,0.345679012345679,0.345679012345679,0.4444444444444444,0.7777777777777778,-0.888888888888889,-0.8395061728395062,2.1604938271604937,2.1604938271604937,1.0,2.0,-1.0,3.0,0,0,0
15.0,0.0,15.0,0.0,5.0,0.0,5.0,0.0,,,,left,1.302789000008488,485.9321331000247,xm15,480.32011060000514,482.3342146000068,485.9321331000247,None,False,5.0,['r'],False,0.4285714285714285,0.4285714285714285,0.0,0.0,2.0,0.6216097450797565,0.0,wait_cost,1.0,4.0,482.3342146000068,None,xm15,2,2023-03-20_11h43.45.188,threat_forest,2021.2.3,60.10193287418021,False,52.0,0.43650793650793646,0.4932539682539683,-0.5626102292768962,-0.7363051146384482,1,0,0,0.26450735103803275,0.0,0.0,0.4285714285714285,0.4285714285714285,1.0,-0.28571428571428603,-0.28571428571428603,4.7142857142857135,4.7142857142857135,0.0,2.0,1.0,5.0,0,0,1
15.0,0.0,15.0,0.0,6.0,0.0,6.0,0.0,,,,left,0.5226141999883112,490.926532500016,xm15,480.32011060000514,482.3342146000068,490.926532500016,None,False,4.0,['r'],False,0.4285714285714285,0.4285714285714285,0.0,0.0,2.0,0.6216097450797565,0.0,wait_cost,1.0,3.0,489.2779062000045,None,xm15,2,2023-03-20_11h43.45.188,threat_forest,2021.2.3,60.10193287418021,False,52.0,0.43650793650793646,0.4932539682539683,-0.5626102292768962,-0.7363051146384482,1,0,0,-0.6489117544539966,0.0,0.0,0.4285714285714285,0.4285714285714285,1.0,-0.28571428571428603,-0.28571428571428603,3.714285714285714,3.714285714285714,0.0,2.0,-1.0,4.0,0,0,1
15.0,0.0,15.0,0.0,7.0,0.0,7.0,0.0,,,,right,0.9882606000173836,497.03916090002167,xm15,497.03916090002167,None,491.4760133000091,493.49039130000165,False,3.0,['r'],True,0.345679012345679,0.4444444444444444,0.2222222222222222,2.0,2.0,0.9685033186841367,-0.2222222222222222,wait_cost,0.0,2.0,493.4903913000017,None,xm15,2,2023-03-20_11h43.45.188,threat_forest,2021.2.3,60.10193287418021,False,52.0,0.43650793650793646,0.4932539682539683,-0.5626102292768962,-0.7363051146384482,0,0,0,-0.011808850814412901,-0.2222222222222222,0.0,0.345679012345679,0.4444444444444444,0.7777777777777778,-0.888888888888889,-0.8395061728395062,2.1604938271604937,2.1604938271604937,1.0,2.0,-1.0,3.0,0,0,0
16.0,0.0,16.0,0.0,0.0,0.0,0.0,0.0,501.25836090001394,504.7632682000112,None,right,1.4438269000092987,505.4310391000181,xm15,505.4310391000181,None,501.25836090001394,504.7632682000112,False,4.0,['r'],True,0.2222222222222222,0.2222222222222222,0.0,0.0,2.0,0.4821593609696809,0.0036325763349082,wait_cost,0.0,3.0,,,xm15,2,2023-03-20_11h43.45.188,threat_forest,2021.2.3,60.10193287418021,False,25.0,0.4444444444444444,0.44047619047619047,-0.8333333333333334,-0.6979717813051147,0,0,0,0.36729715794519086,0.0036325763349082,0.2222222222222222,0.2222222222222222,0.2222222222222222,1.0,-1.1111111111111112,-1.1111111111111112,2.888888888888889,2.888888888888889,1.0,2.0,-1.0,4.0,0,0,0
16.0,0.0,16.0,0.0,1.0,0.0,1.0,0.0,,,,right,1.973503700020956,511.8236567999993,xm15,506.8969614000234,508.9094018000178,511.8236567999993,None,True,3.0,['r'],False,0.4444444444444445,0.6666666666666666,0.3333333333333333,1.0,2.0,0.9656336071428248,0.0860768175582989,fight_cost,1.0,0.0,508.9094018000178,None,xm15,2,2023-03-20_11h43.45.188,threat_forest,2021.2.3,60.10193287418021,True,25.0,0.4444444444444444,0.44047619047619047,-0.8333333333333334,-0.6979717813051147,1,1,1,0.6798104909712779,0.0860768175582989,0.4444444444444445,0.4444444444444445,0.6666666666666666,0.6666666666666667,-0.3333333333333335,-0.5555555555555556,2.4444444444444446,2.4444444444444446,0.0,2.0,-1.0,3.0,0,1,1
17.0,0.0,17.0,0.0,0.0,0.0,0.0,0.0,519.3444977000181,522.8463626000157,None,left,1.4944363000104204,526.3269543000206,xm15,519.3444977000181,522.8463626000157,526.3269543000206,None,False,4.0,['p'],False,0.2448979591836734,0.2857142857142857,0.1428571428571428,1.0,2.0,0.8400769154957735,0.0066793633871859,wait_cost,1.0,3.0,,,xm15,2,2023-03-20_11h43.45.188,threat_forest,2021.2.3,60.10193287418021,False,29.0,0.47619047619047616,0.4603174603174603,-0.8594104308390023,-0.8463718820861679,0,0,0,0.40174907888962486,0.0066793633871859,0.2448979591836734,0.2448979591836734,0.2857142857142857,0.8571428571428572,-1.2857142857142856,-1.163265306122449,2.836734693877551,2.836734693877551,0.0,2.0,-1.0,4.0,0,0,0
17.0,0.0,17.0,0.0,1.0,0.0,1.0,0.0,,,,left,1.1498371999769006,530.7561197000032,xm15,519.3444977000181,522.8463626000157,530.7561197000032,None,False,3.0,['p'],False,0.2448979591836734,0.2857142857142857,0.1428571428571428,1.0,2.0,0.8400769154957735,0.0286218062243927,wait_cost,1.0,2.0,529.8564320000005,None,xm15,2,2023-03-20_11h43.45.188,threat_forest,2021.2.3,60.10193287418021,False,29.0,0.47619047619047616,0.4603174603174603,-0.8594104308390023,-0.8463718820861679,0,0,0,0.13962036711637693,0.0286218062243927,0.2448979591836734,0.2448979591836734,0.2857142857142857,0.8571428571428572,-1.2857142857142856,-1.163265306122449,1.836734693877551,1.836734693877551,0.0,2.0,-1.0,3.0,0,0,0
17.0,0.0,17.0,0.0,2.0,0.0,2.0,0.0,,,,left,1.8626053000043608,536.1675939999986,xm15,519.3444977000181,522.8463626000157,536.1675939999986,None,False,2.0,['p'],False,0.2448979591836734,0.2857142857142857,0.1428571428571428,1.0,2.0,0.8400769154957735,-0.0338226033646941,wait_cost,1.0,1.0,533.9527841000236,None,xm15,2,2023-03-20_11h43.45.188,threat_forest,2021.2.3,60.10193287418021,False,29.0,0.47619047619047616,0.4603174603174603,-0.8594104308390023,-0.8463718820861679,0,0,0,0.6219762065885194,-0.0338226033646941,0.2448979591836734,0.2448979591836734,0.2857142857142857,0.8571428571428572,-1.2857142857142856,-1.163265306122449,0.8367346938775511,0.8367346938775511,0.0,2.0,-1.0,2.0,0,0,0
