miniblock.thisRepN,miniblock.thisTrialN,miniblock.thisN,miniblock.thisIndex,day.thisRepN,day.thisTrialN,day.thisN,day.thisIndex,forest.started,fixation_forest.started,fixation_forest.stopped,key_resp.keys,key_resp.rt,key_resp.started,Subject_ID,weather_left.started,weather_left.stopped,weather_right.started,weather_right.stopped,foraging T/F,in_LP,p/r heuristic,good_weather.T/F,p_succ_correct,p_succ_uncorrected,r_threat,n_oponents,gain_if_succ,weather_entropy,OP_value_difference,action_outcome,forest_side_L=0_R=1,out_LP,fixation_day.started,fixation_day.stopped,participant,session,date,expName,psychopyVersion,frameRate,foraging T/F NaNs,fora_NR,forest_mean_p,mvt_cutoff_p,forest_mean_ev,mvt_cutoff_ev,mvt_policy_eg,mvt_policy_p,fora_response,logRT,optimal policy values,multi-heuristic policy,** $\mathit{p}$ success,* $\mathit{p}$ gain,* $\mathit{r}$ predator,expected gain naive,expected gain correct,expected state no bounds,expected state with bounds,weather type,gain magnitude,win stay lose shift,continuous energy state,** binary energy state,** wait when safe,$\mathit{p}$ success based MVT,marginal value,$\mathit{OP}$ values + cap
0.0,0.0,0.0,0.0,0.0,0.0,0.0,0.0,23.40261750016361,26.915409500245005,,right,0.8391558998264372,28.01119070034474,ox19,23.40261750016361,26.915409500245005,28.01119070034474,,True,4.0,['p'],False,0.375,0.5,0.25,1.0,1.0,0.9850568223215076,0.0300347076439857,unsucc_cost,1.0,2.0,,,ox19,1,2022-05-11_14h35.22.606,threat_forest,2021.2.3,60.05461373201944,True,50.0,0.35,0.35,-1.2625000000000002,-1.2625000000000002,1,1,1.0,-0.17535877353534637,0.0300347076439857,0.375,0.375,0.5,0.25,-0.25,-0.125,3.875,3.875,0.0,1.0,,4.0,0,1,1,1,0.0300347076439857
0.0,0.0,0.0,0.0,1.0,0.0,1.0,0.0,,,,left,1.807318499777466,31.916043300181627,ox19,23.40261750016361,26.915409500245005,31.916043300181627,,False,2.0,['p'],False,0.375,0.5,0.25,1.0,1.0,0.9850568223215076,0.0197937602996826,wait_cost,1.0,1.0,30.88215640000999,,ox19,1,2022-05-11_14h35.22.606,threat_forest,2021.2.3,60.05461373201944,False,50.0,0.35,0.35,-1.2625000000000002,-1.2625000000000002,1,1,0.0,0.5918442549479767,0.0197937602996826,0.375,0.375,0.5,0.25,-0.25,-0.125,1.875,1.875,0.0,1.0,-1.0,2.0,0,1,1,1,0.0197937602996826
0.0,0.0,0.0,0.0,2.0,0.0,2.0,0.0,,,,left,2.536435700021684,36.617549600079656,ox19,36.617549600079656,,33.74925110023469,35.748948600143194,True,1.0,['p'],True,0.2,0.2,0.0,0.0,1.0,0.4554859150035951,0.0234352416992187,succ_gain,0.0,2.0,35.748948600143194,,ox19,1,2022-05-11_14h35.22.606,threat_forest,2021.2.3,60.05461373201944,True,50.0,0.35,0.35,-1.2625000000000002,-1.2625000000000002,0,0,1.0,0.9307598278202599,0.0234352416992187,1.0,0.2,0.2,0.0,-0.40000000000000013,-0.40000000000000013,0.5999999999999999,1.0,1.0,1.0,-1.0,1.0,1,1,0,0,0.625
0.0,0.0,0.0,0.0,3.0,0.0,3.0,0.0,,,,right,2.0883315997198224,41.89917240012437,ox19,39.18257560022175,41.18235780019313,41.89917240012437,,True,2.0,['p'],False,0.375,0.5,0.25,1.0,1.0,0.9850568223215076,0.0438836669921876,succ_gain,1.0,3.0,41.18235780019313,,ox19,1,2022-05-11_14h35.22.606,threat_forest,2021.2.3,60.05461373201944,True,50.0,0.35,0.35,-1.2625000000000002,-1.2625000000000002,1,1,1.0,0.7363654695374333,0.0438836669921876,0.375,0.375,0.5,0.25,-0.25,-0.125,1.875,1.875,0.0,1.0,1.0,2.0,0,1,1,1,0.0438836669921876
0.0,0.0,0.0,0.0,4.0,0.0,4.0,0.0,,,,right,1.9384313998743887,49.516093800310045,ox19,49.516093800310045,,44.01605400023982,46.01575730042532,False,3.0,['p'],True,0.2,0.2,0.0,0.0,1.0,0.4554859150035951,-0.0550625000000001,wait_cost,0.0,2.0,46.01575730042532,,ox19,1,2022-05-11_14h35.22.606,threat_forest,2021.2.3,60.05461373201944,False,50.0,0.35,0.35,-1.2625000000000002,-1.2625000000000002,0,0,0.0,0.6618790892511273,-0.0550625000000001,0.2,0.2,0.2,0.0,-0.40000000000000013,-0.40000000000000013,2.5999999999999996,2.5999999999999996,1.0,1.0,1.0,3.0,0,1,0,0,-0.0550625000000001
0.0,0.0,0.0,0.0,5.0,0.0,5.0,0.0,,,,right,1.3795872000046074,54.16608420014381,ox19,51.482851800043136,53.482390800025314,54.16608420014381,,True,2.0,['p'],False,0.375,0.5,0.25,1.0,1.0,0.9850568223215076,0.0875,figh_cost,1.0,0.0,53.482390800025314,,ox19,1,2022-05-11_14h35.22.606,threat_forest,2021.2.3,60.05461373201944,True,50.0,0.35,0.35,-1.2625000000000002,-1.2625000000000002,1,1,1.0,0.32178432398923795,0.0875,0.375,0.375,0.5,0.25,-0.25,-0.125,1.875,1.875,0.0,1.0,-1.0,2.0,0,1,1,1,0.0875
1.0,0.0,1.0,0.0,0.0,0.0,0.0,0.0,59.46129730017856,62.95404590014368,,right,0.9476671000011264,65.2668207003735,ox19,59.46129730017856,62.95404590014368,65.2668207003735,,True,4.0,['r'],False,0.5,0.5,0.0,0.0,2.0,0.6309297535714574,0.0723560159877321,succ_gain,1.0,6.0,,,ox19,1,2022-05-11_14h35.22.606,threat_forest,2021.2.3,60.05461373201944,True,58.0,0.5357142857142857,0.44285714285714284,-0.326530612244898,-0.794515306122449,1,1,1.0,-0.05375199873470879,0.0723560159877321,0.5,0.5,0.5,0.0,1.0,1.0,5.0,5.0,0.0,2.0,-1.0,4.0,0,1,1,1,0.0723560159877321
1.0,0.0,1.0,0.0,1.0,0.0,1.0,0.0,,,,right,2.0093219000846148,69.31808930030093,ox19,69.31808930030093,,66.23306810017675,68.23267750022933,False,6.0,['r'],True,0.4081632653061224,0.5714285714285714,0.2857142857142857,2.0,2.0,0.9885754083994552,-0.0789184913550894,wait_cost,0.0,5.0,68.23267750022933,,ox19,1,2022-05-11_14h35.22.606,threat_forest,2021.2.3,60.05461373201944,False,58.0,0.5357142857142857,0.44285714285714284,-0.326530612244898,-0.794515306122449,1,0,0.0,0.6977973020092548,-0.0789184913550894,0.4081632653061224,0.4081632653061224,0.5714285714285714,0.2857142857142857,0.4285714285714285,0.346938775510204,6.346938775510204,6.346938775510204,1.0,2.0,1.0,6.0,0,1,0,1,-0.0789184913550894
1.0,0.0,1.0,0.0,2.0,0.0,2.0,0.0,,,,right,0.9865858997218312,76.95009120041505,ox19,71.34995960025117,73.34939109999686,76.95009120041505,,True,5.0,['r'],False,0.5,0.5,0.0,0.0,2.0,0.6309297535714574,0.0975307235914345,succ_gain,1.0,6.0,73.34939109999686,,ox19,1,2022-05-11_14h35.22.606,threat_forest,2021.2.3,60.05461373201944,True,58.0,0.5357142857142857,0.44285714285714284,-0.326530612244898,-0.794515306122449,1,1,1.0,-0.013504882072757499,0.0975307235914345,0.5,0.5,0.5,0.0,1.0,1.0,6.0,6.0,0.0,2.0,-1.0,5.0,0,1,1,1,0.0975307235914345
1.0,0.0,1.0,0.0,3.0,0.0,3.0,0.0,,,,right,1.1403760998509824,83.50035310024396,ox19,83.50035310024396,,77.96646330039948,79.96618990041316,False,6.0,['r'],True,0.4081632653061224,0.5714285714285714,0.2857142857142857,2.0,2.0,0.9885754083994552,-0.1920843462332871,wait_cost,0.0,5.0,79.96618990041316,,ox19,1,2022-05-11_14h35.22.606,threat_forest,2021.2.3,60.05461373201944,False,58.0,0.5357142857142857,0.44285714285714284,-0.326530612244898,-0.794515306122449,1,0,0.0,0.1313581201473418,-0.1920843462332871,0.0,0.4081632653061224,0.5714285714285714,0.2857142857142857,0.4285714285714285,0.346938775510204,6.346938775510204,6.346938775510204,1.0,2.0,1.0,6.0,0,0,0,1,-0.84
1.0,0.0,1.0,0.0,4.0,0.0,4.0,0.0,,,,left,2.4792776997201145,88.41647640010342,ox19,84.66668130038306,86.66637250036001,88.41647640010342,,False,5.0,['r'],False,0.5,0.5,0.0,0.0,2.0,0.6309297535714574,-0.1814478342357351,wait_cost,1.0,4.0,86.66637250036001,,ox19,1,2022-05-11_14h35.22.606,threat_forest,2021.2.3,60.05461373201944,False,58.0,0.5357142857142857,0.44285714285714284,-0.326530612244898,-0.794515306122449,1,1,0.0,0.9079672676424826,-0.1814478342357351,0.0,0.5,0.5,0.0,1.0,1.0,6.0,6.0,0.0,2.0,-1.0,5.0,0,0,1,1,-0.84
1.0,0.0,1.0,0.0,5.0,0.0,5.0,0.0,,,,left,2.105773599818349,93.68343470012768,ox19,84.66668130038306,86.66637250036001,93.68343470012768,,False,4.0,['r'],False,0.5,0.5,0.0,0.0,2.0,0.6309297535714574,-0.2614795918367347,wait_cost,1.0,3.0,92.91649090033025,,ox19,1,2022-05-11_14h35.22.606,threat_forest,2021.2.3,60.05461373201944,False,58.0,0.5357142857142857,0.44285714285714284,-0.326530612244898,-0.794515306122449,1,1,0.0,0.744682905472557,-0.2614795918367347,0.0,0.5,0.5,0.0,1.0,1.0,5.0,5.0,0.0,2.0,-1.0,4.0,0,0,1,1,-0.84
1.0,0.0,1.0,0.0,6.0,0.0,6.0,0.0,,,,right,1.9604870001785455,99.58488270035014,ox19,99.58488270035014,,95.81672280002384,97.81667540036142,False,3.0,['r'],True,0.4081632653061224,0.5714285714285714,0.2857142857142857,2.0,2.0,0.9885754083994552,-0.452832153269471,wait_cost,0.0,2.0,97.81667540036142,,ox19,1,2022-05-11_14h35.22.606,threat_forest,2021.2.3,60.05461373201944,False,58.0,0.5357142857142857,0.44285714285714284,-0.326530612244898,-0.794515306122449,1,0,0.0,0.6731929118578469,-0.452832153269471,0.0,0.4081632653061224,0.5714285714285714,0.2857142857142857,0.4285714285714285,0.346938775510204,3.3469387755102042,3.3469387755102042,1.0,2.0,-1.0,3.0,0,0,0,1,-0.84
1.0,0.0,1.0,0.0,7.0,0.0,7.0,0.0,,,,left,2.4940813998691738,105.75032100034878,ox19,101.56698470003904,103.56693350011484,105.75032100034878,,False,2.0,['r'],False,0.5,0.5,0.0,0.0,2.0,0.6309297535714574,-0.5,wait_cost,1.0,1.0,103.56693350011484,,ox19,1,2022-05-11_14h35.22.606,threat_forest,2021.2.3,60.05461373201944,False,58.0,0.5357142857142857,0.44285714285714284,-0.326530612244898,-0.794515306122449,1,1,0.0,0.9139204850047681,-0.5,0.0,0.5,0.5,0.0,1.0,1.0,3.0,3.0,0.0,2.0,-1.0,2.0,0,0,1,1,-0.84
2.0,0.0,2.0,0.0,0.0,0.0,0.0,0.0,111.24257560027765,114.74999140016736,,left,2.397460899781436,115.38415500009432,ox19,115.38415500009432,,111.24257560027765,114.74999140016736,True,4.0,['p'],True,0.24,0.4,0.4,2.0,2.0,0.9801625908629508,0.0188358143999999,succ_gain,0.0,6.0,,,ox19,1,2022-05-11_14h35.22.606,threat_forest,2021.2.3,60.05461373201944,True,65.0,0.30000000000000004,0.41785714285714287,-1.5000000000000002,-0.9132653061224492,0,0,1.0,0.8744102188964552,0.0188358143999999,0.24,0.24,0.4,0.4,-0.6000000000000001,-0.44000000000000017,3.5599999999999996,3.5599999999999996,1.0,2.0,-1.0,4.0,0,1,0,0,0.0188358143999999
2.0,0.0,2.0,0.0,1.0,0.0,1.0,0.0,,,,left,1.4727239003404975,123.43685570033269,ox19,117.80042010033505,119.79998980043456,123.43685570033269,,False,6.0,['p'],False,0.16,0.2,0.2,2.0,2.0,0.8198746470064713,-0.08017472,wait_cost,1.0,5.0,119.79998980043456,,ox19,1,2022-05-11_14h35.22.606,threat_forest,2021.2.3,60.05461373201944,False,65.0,0.30000000000000004,0.41785714285714287,-1.5000000000000002,-0.9132653061224492,0,0,0.0,0.38711367954509124,-0.08017472,0.16,0.16,0.2,0.2,-0.8000000000000003,-0.5600000000000003,5.4399999999999995,5.4399999999999995,0.0,2.0,1.0,6.0,0,1,0,0,-0.08017472
2.0,0.0,2.0,0.0,2.0,0.0,2.0,0.0,,,,left,1.1934930002316833,130.1008690004237,ox19,117.80042010033505,119.79998980043456,130.1008690004237,,False,5.0,['p'],False,0.16,0.2,0.2,2.0,2.0,0.8198746470064713,0.0009920000000001,wait_cost,1.0,4.0,126.93354390002789,,ox19,1,2022-05-11_14h35.22.606,threat_forest,2021.2.3,60.05461373201944,False,65.0,0.30000000000000004,0.41785714285714287,-1.5000000000000002,-0.9132653061224492,0,0,0.0,0.17688430187103066,0.0009920000000001,0.16,0.16,0.2,0.2,-0.8000000000000003,-0.5600000000000003,4.4399999999999995,4.4399999999999995,0.0,2.0,-1.0,5.0,0,1,0,0,0.0009920000000001
2.0,0.0,2.0,0.0,3.0,0.0,3.0,0.0,,,,left,1.427751800045371,135.0841382001527,ox19,117.80042010033505,119.79998980043456,135.0841382001527,,False,4.0,['p'],False,0.16,0.2,0.2,2.0,2.0,0.8198746470064713,0.0127999999999998,wait_cost,1.0,3.0,133.31693620001897,,ox19,1,2022-05-11_14h35.22.606,threat_forest,2021.2.3,60.05461373201944,False,65.0,0.30000000000000004,0.41785714285714287,-1.5000000000000002,-0.9132653061224492,0,0,0.0,0.3561010393187353,0.0127999999999998,0.16,0.16,0.2,0.2,-0.8000000000000003,-0.5600000000000003,3.4399999999999995,3.4399999999999995,0.0,2.0,-1.0,4.0,0,1,0,0,0.0127999999999998
2.0,0.0,2.0,0.0,4.0,0.0,4.0,0.0,,,,right,1.7251201998442411,141.3010802003555,ox19,117.80042010033505,119.79998980043456,141.3010802003555,,True,3.0,['p'],False,0.16,0.2,0.2,2.0,2.0,0.8198746470064713,0.0679999999999999,unsucc_cost,1.0,1.0,138.53377120010555,,ox19,1,2022-05-11_14h35.22.606,threat_forest,2021.2.3,60.05461373201944,True,65.0,0.30000000000000004,0.41785714285714287,-1.5000000000000002,-0.9132653061224492,0,0,1.0,0.5452967291248354,0.0679999999999999,0.16,0.16,0.2,0.2,-0.8000000000000003,-0.5600000000000003,2.4399999999999995,2.4399999999999995,0.0,2.0,-1.0,3.0,0,1,0,0,0.0679999999999999
2.0,0.0,2.0,0.0,5.0,0.0,5.0,0.0,,,,left,1.1610855995677412,147.60121680004522,ox19,147.60121680004522,,143.05075300019234,145.05047340039164,True,1.0,['p'],True,0.24,0.4,0.4,2.0,2.0,0.9801625908629508,0.24,figh_cost,0.0,0.0,145.05047340039164,,ox19,1,2022-05-11_14h35.22.606,threat_forest,2021.2.3,60.05461373201944,True,65.0,0.30000000000000004,0.41785714285714287,-1.5000000000000002,-0.9132653061224492,0,0,1.0,0.1493554291690737,0.24,1.0,0.24,0.4,0.4,-0.6000000000000001,-0.44000000000000017,0.5599999999999998,1.0,1.0,2.0,-1.0,1.0,1,1,0,0,0.625
3.0,0.0,3.0,0.0,0.0,0.0,0.0,0.0,153.97764010028914,157.48047910025343,,left,1.7239247998222709,160.086870000232,ox19,153.97764010028914,157.48047910025343,160.086870000232,,False,5.0,['p'],False,0.27,0.3,0.1,1.0,1.0,0.7963326591781347,-0.0040169508903756,wait_cost,1.0,4.0,,,ox19,1,2022-05-11_14h35.22.606,threat_forest,2021.2.3,60.05461373201944,False,16.0,0.4,0.35000000000000003,-1.1033333333333333,-1.3016666666666667,1,0,0.0,0.544603551697489,-0.0040169508903756,0.27,0.27,0.3,0.1,-0.3999999999999999,-0.29000000000000004,4.71,4.71,0.0,1.0,-1.0,5.0,0,1,0,1,-0.0040169508903756
3.0,0.0,3.0,0.0,1.0,0.0,1.0,0.0,,,,left,1.2598843001760542,164.93532650033012,ox19,164.93532650033012,,161.83440440008417,163.83414790034294,True,4.0,['p'],True,0.4166666666666667,0.5,0.1666666666666666,1.0,1.0,0.9358932809493992,0.0652040051667182,succ_gain,0.0,5.0,163.83414790034294,,ox19,1,2022-05-11_14h35.22.606,threat_forest,2021.2.3,60.05461373201944,True,16.0,0.4,0.35000000000000003,-1.1033333333333333,-1.3016666666666667,1,1,1.0,0.2310198914900898,0.0652040051667182,0.4166666666666667,0.4166666666666667,0.5,0.1666666666666666,2.220446049250313e-16,0.08333333333333348,4.083333333333334,4.083333333333334,1.0,1.0,-1.0,4.0,0,1,1,1,0.0652040051667182
3.0,0.0,3.0,0.0,2.0,0.0,2.0,0.0,,,,left,1.954171400051564,171.0845355000347,ox19,171.0845355000347,,161.83440440008417,163.83414790034294,True,5.0,['p'],True,0.4166666666666667,0.5,0.1666666666666666,1.0,1.0,0.9358932809493992,0.0814839621913579,unsucc_cost,0.0,3.0,168.21782110026106,,ox19,1,2022-05-11_14h35.22.606,threat_forest,2021.2.3,60.05461373201944,True,16.0,0.4,0.35000000000000003,-1.1033333333333333,-1.3016666666666667,1,1,1.0,0.6699662673025814,0.0814839621913579,0.4166666666666667,0.4166666666666667,0.5,0.1666666666666666,2.220446049250313e-16,0.08333333333333348,5.083333333333334,5.083333333333334,1.0,1.0,1.0,5.0,0,1,1,1,0.0814839621913579
3.0,0.0,3.0,0.0,3.0,0.0,3.0,0.0,,,,left,1.505747300107032,176.15208480041474,ox19,173.0679170000367,175.06762640038505,176.15208480041474,,False,3.0,['p'],False,0.27,0.3,0.1,1.0,1.0,0.7963326591781347,0.0537938518518518,wait_cost,1.0,2.0,175.06762640038505,,ox19,1,2022-05-11_14h35.22.606,threat_forest,2021.2.3,60.05461373201944,False,16.0,0.4,0.35000000000000003,-1.1033333333333333,-1.3016666666666667,1,0,0.0,0.4092893198848191,0.0537938518518518,0.27,0.27,0.3,0.1,-0.3999999999999999,-0.29000000000000004,2.71,2.71,0.0,1.0,-1.0,3.0,0,1,0,1,0.0537938518518518
3.0,0.0,3.0,0.0,4.0,0.0,4.0,0.0,,,,right,1.428410999942571,181.06801190041008,ox19,173.0679170000367,175.06762640038505,181.06801190041008,,True,2.0,['p'],False,0.27,0.3,0.1,1.0,1.0,0.7963326591781347,0.0107463333333333,succ_gain,1.0,3.0,179.68433810025454,,ox19,1,2022-05-11_14h35.22.606,threat_forest,2021.2.3,60.05461373201944,True,16.0,0.4,0.35000000000000003,-1.1033333333333333,-1.3016666666666667,1,0,1.0,0.3565626375924104,0.0107463333333333,0.27,0.27,0.3,0.1,-0.3999999999999999,-0.29000000000000004,1.71,1.71,0.0,1.0,-1.0,2.0,0,1,0,1,0.0107463333333333
3.0,0.0,3.0,0.0,5.0,0.0,5.0,0.0,,,,right,1.7769867000170052,188.25167390005663,ox19,173.0679170000367,175.06762640038505,188.25167390005663,,True,3.0,['p'],False,0.27,0.3,0.1,1.0,1.0,0.7963326591781347,0.1062999999999999,unsucc_cost,1.0,1.0,184.5177845000289,,ox19,1,2022-05-11_14h35.22.606,threat_forest,2021.2.3,60.05461373201944,True,16.0,0.4,0.35000000000000003,-1.1033333333333333,-1.3016666666666667,1,0,1.0,0.5749190646295953,0.1062999999999999,0.27,0.27,0.3,0.1,-0.3999999999999999,-0.29000000000000004,2.71,2.71,0.0,1.0,1.0,3.0,0,1,0,1,0.1062999999999999
3.0,0.0,3.0,0.0,6.0,0.0,6.0,0.0,,,,left,0.8591253999620676,194.36808430030945,ox19,194.36808430030945,,190.05168260028583,192.05124360043555,True,1.0,['p'],True,0.4166666666666667,0.5,0.1666666666666666,1.0,1.0,0.9358932809493992,0.4166666666666667,figh_cost,0.0,0.0,192.05124360043555,,ox19,1,2022-05-11_14h35.22.606,threat_forest,2021.2.3,60.05461373201944,True,16.0,0.4,0.35000000000000003,-1.1033333333333333,-1.3016666666666667,1,1,1.0,-0.15184038399463867,0.4166666666666667,1.0,0.4166666666666667,0.5,0.1666666666666666,2.220446049250313e-16,0.08333333333333348,1.0833333333333335,1.0833333333333335,1.0,1.0,-1.0,1.0,1,1,1,1,0.625
4.0,0.0,4.0,0.0,0.0,0.0,0.0,0.0,200.82869320036843,204.33479320025072,,right,1.0722444001585243,207.3523967000656,ox19,200.82869320036843,204.33479320025072,207.3523967000656,,True,4.0,['p'],False,0.4166666666666667,0.5,0.1666666666666666,1.0,2.0,0.9358932809493992,0.0524876732571487,succ_gain,1.0,6.0,,,ox19,1,2022-05-11_14h35.22.606,threat_forest,2021.2.3,60.05461373201944,True,22.0,0.41666666666666663,0.4083333333333333,-0.7129629629629629,-0.9081481481481481,1,1,1.0,0.06975402188643275,0.0524876732571487,0.4166666666666667,0.4166666666666667,0.5,0.1666666666666666,0.5000000000000002,0.5000000000000002,4.5,4.5,0.0,2.0,-1.0,4.0,0,1,1,1,0.0524876732571487
4.0,0.0,4.0,0.0,1.0,0.0,1.0,0.0,,,,right,1.2897513997741044,213.1056050001644,ox19,213.1056050001644,,208.451741500292,210.45139490021396,False,6.0,['p'],True,0.2962962962962963,0.3333333333333333,0.1111111111111111,1.0,2.0,0.8325252476189534,-0.0729659654773814,wait_cost,0.0,5.0,210.45139490021396,,ox19,1,2022-05-11_14h35.22.606,threat_forest,2021.2.3,60.05461373201944,False,22.0,0.41666666666666663,0.4083333333333333,-0.7129629629629629,-0.9081481481481481,0,0,0.0,0.25444948644856896,-0.0729659654773814,0.2962962962962963,0.2962962962962963,0.3333333333333333,0.1111111111111111,-2.220446049250313e-16,0.07407407407407396,6.074074074074074,6.074074074074074,1.0,2.0,1.0,6.0,0,1,0,0,-0.0729659654773814
4.0,0.0,4.0,0.0,2.0,0.0,2.0,0.0,,,,left,1.8093536999076605,219.1353399003856,ox19,219.1353399003856,,208.451741500292,210.45139490021396,True,5.0,['p'],True,0.2962962962962963,0.3333333333333333,0.1111111111111111,1.0,2.0,0.8325252476189534,0.0111445756795599,figh_cost,0.0,2.0,216.41823710035533,,ox19,1,2022-05-11_14h35.22.606,threat_forest,2021.2.3,60.05461373201944,True,22.0,0.41666666666666663,0.4083333333333333,-0.7129629629629629,-0.9081481481481481,0,0,1.0,0.5929697096381723,0.0111445756795599,0.2962962962962963,0.2962962962962963,0.3333333333333333,0.1111111111111111,-2.220446049250313e-16,0.07407407407407396,5.074074074074074,5.074074074074074,1.0,2.0,-1.0,5.0,0,1,0,0,0.0111445756795599
4.0,0.0,4.0,0.0,3.0,0.0,3.0,0.0,,,,right,0.736252199858427,225.8201532000676,ox19,220.9684303002432,222.9682494001463,225.8201532000676,,True,2.0,['p'],False,0.4166666666666667,0.5,0.1666666666666666,1.0,2.0,0.9358932809493992,0.0592387386958288,figh_cost,1.0,0.0,222.9682494001463,,ox19,1,2022-05-11_14h35.22.606,threat_forest,2021.2.3,60.05461373201944,True,22.0,0.41666666666666663,0.4083333333333333,-0.7129629629629629,-0.9081481481481481,1,1,1.0,-0.3061825560976437,0.0592387386958288,0.4166666666666667,0.4166666666666667,0.5,0.1666666666666666,0.5000000000000002,0.5000000000000002,2.5,2.5,0.0,2.0,-1.0,2.0,0,1,1,1,0.0592387386958288
5.0,0.0,5.0,0.0,0.0,0.0,0.0,0.0,230.17698039999232,233.68526870012283,,right,1.236562700010836,237.0021025002934,ox19,230.17698039999232,233.68526870012283,237.0021025002934,,True,4.0,['p'],False,0.48,0.6,0.2,1.0,1.0,0.9455672104350704,0.0573042085319639,unsucc_cost,1.0,2.0,,,ox19,1,2022-05-11_14h35.22.606,threat_forest,2021.2.3,60.05461373201944,True,4.0,0.4666666666666667,0.44166666666666665,-0.9911111111111113,-0.8520370370370371,1,1,1.0,0.21233551434504713,0.0573042085319639,0.48,0.48,0.6,0.2,0.19999999999999984,0.23999999999999977,4.24,4.24,0.0,1.0,-1.0,4.0,0,1,1,1,0.0573042085319639
5.0,0.0,5.0,0.0,1.0,0.0,1.0,0.0,,,,right,1.94139500008896,241.7043868000619,ox19,241.7043868000619,,238.26887610042468,240.26859039999545,False,2.0,['p'],True,0.2962962962962963,0.3333333333333333,0.1111111111111111,1.0,1.0,0.8325252476189534,-0.0048282126636286,wait_cost,0.0,1.0,240.26859039999545,,ox19,1,2022-05-11_14h35.22.606,threat_forest,2021.2.3,60.05461373201944,False,4.0,0.4666666666666667,0.44166666666666665,-0.9911111111111113,-0.8520370370370371,0,0,0.0,0.6634067868774876,-0.0048282126636286,0.2962962962962963,0.2962962962962963,0.3333333333333333,0.1111111111111111,-0.3333333333333335,-0.22222222222222232,1.7777777777777777,1.7777777777777777,1.0,1.0,-1.0,2.0,0,1,0,0,-0.0048282126636286
5.0,0.0,5.0,0.0,2.0,0.0,2.0,0.0,,,,right,1.087898500263691,248.85286070033908,ox19,248.85286070033908,,238.26887610042468,240.26859039999545,False,1.0,['p'],True,0.2962962962962963,0.3333333333333333,0.1111111111111111,1.0,1.0,0.8325252476189534,0.0593781448112584,wait_cost,0.0,0.0,245.6687174001709,,ox19,1,2022-05-11_14h35.22.606,threat_forest,2021.2.3,60.05461373201944,False,4.0,0.4666666666666667,0.44166666666666665,-0.9911111111111113,-0.8520370370370371,0,0,0.0,0.08424785388313616,0.0593781448112584,1.0,0.2962962962962963,0.3333333333333333,0.1111111111111111,-0.3333333333333335,-0.22222222222222232,0.7777777777777777,1.0,1.0,1.0,-1.0,1.0,1,1,0,0,0.625
6.0,0.0,6.0,0.0,0.0,0.0,0.0,0.0,254.1942816004157,257.70218520006165,,left,1.8635940002277491,260.05364440009,ox19,254.1942816004157,257.70218520006165,260.05364440009,,False,5.0,['p'],False,0.21875,0.25,0.125,1.0,1.0,0.7908280489481783,-0.003347083026002,wait_cost,1.0,4.0,,,ox19,1,2022-05-11_14h35.22.606,threat_forest,2021.2.3,60.05461373201944,False,61.0,0.325,0.39583333333333337,-1.354375,-1.1727430555555558,0,0,0.0,0.6225068815025153,-0.003347083026002,0.21875,0.21875,0.25,0.125,-0.625,-0.46875,4.53125,4.53125,0.0,1.0,-1.0,5.0,0,1,0,0,-0.003347083026002
6.0,0.0,6.0,0.0,1.0,0.0,1.0,0.0,,,,right,2.6774810003116727,264.88638000003994,ox19,254.1942816004157,257.70218520006165,264.88638000003994,,True,4.0,['p'],False,0.21875,0.25,0.125,1.0,1.0,0.7908280489481783,0.0034652103126096,succ_gain,1.0,5.0,263.93566670035943,,ox19,1,2022-05-11_14h35.22.606,threat_forest,2021.2.3,60.05461373201944,True,61.0,0.325,0.39583333333333337,-1.354375,-1.1727430555555558,0,0,1.0,0.984876427259192,0.0034652103126096,0.21875,0.21875,0.25,0.125,-0.625,-0.46875,3.53125,3.53125,0.0,1.0,-1.0,4.0,0,1,0,0,0.0034652103126096
6.0,0.0,6.0,0.0,2.0,0.0,2.0,0.0,,,,right,2.233612200245261,270.60270910011604,ox19,270.60270910011604,,267.5859530000016,269.5857549002394,False,5.0,['p'],True,0.32,0.4,0.2,1.0,1.0,0.9455672104350704,0.0597534657871093,wait_cost,0.0,4.0,269.5857549002394,,ox19,1,2022-05-11_14h35.22.606,threat_forest,2021.2.3,60.05461373201944,False,61.0,0.325,0.39583333333333337,-1.354375,-1.1727430555555558,0,0,0.0,0.8036200957151881,0.0597534657871093,0.32,0.32,0.4,0.2,-0.3999999999999999,-0.24,4.76,4.76,1.0,1.0,1.0,5.0,0,1,0,0,0.0597534657871093
6.0,0.0,6.0,0.0,3.0,0.0,3.0,0.0,,,,right,2.823028600309044,276.4878773000092,ox19,272.85284110018983,274.8525086003356,276.4878773000092,,True,4.0,['p'],False,0.21875,0.25,0.125,1.0,1.0,0.7908280489481783,-0.0230494493331908,succ_gain,1.0,5.0,274.8525086003356,,ox19,1,2022-05-11_14h35.22.606,threat_forest,2021.2.3,60.05461373201944,True,61.0,0.325,0.39583333333333337,-1.354375,-1.1727430555555558,0,0,1.0,1.0378102803957474,-0.0230494493331908,0.21875,0.21875,0.25,0.125,-0.625,-0.46875,3.53125,3.53125,0.0,1.0,-1.0,4.0,0,1,0,0,-0.0230494493331908
6.0,0.0,6.0,0.0,4.0,0.0,4.0,0.0,,,,left,1.458066999912262,283.41960340039805,ox19,272.85284110018983,274.8525086003356,283.41960340039805,,False,5.0,['p'],False,0.21875,0.25,0.125,1.0,1.0,0.7908280489481783,-0.4672050903320312,wait_cost,1.0,4.0,281.3358615003526,,ox19,1,2022-05-11_14h35.22.606,threat_forest,2021.2.3,60.05461373201944,False,61.0,0.325,0.39583333333333337,-1.354375,-1.1727430555555558,0,0,0.0,0.37711158583123705,-0.4672050903320312,0.0,0.21875,0.25,0.125,-0.625,-0.46875,4.53125,4.53125,0.0,1.0,1.0,5.0,0,0,0,0,-0.84
6.0,0.0,6.0,0.0,5.0,0.0,5.0,0.0,,,,left,0.9953040000982584,289.119732900057,ox19,272.85284110018983,274.8525086003356,289.119732900057,,False,4.0,['p'],False,0.21875,0.25,0.125,1.0,1.0,0.7908280489481783,-0.554189453125,wait_cost,1.0,3.0,286.90266760019585,,ox19,1,2022-05-11_14h35.22.606,threat_forest,2021.2.3,60.05461373201944,False,61.0,0.325,0.39583333333333337,-1.354375,-1.1727430555555558,0,0,0.0,-0.004707060750695678,-0.554189453125,0.0,0.21875,0.25,0.125,-0.625,-0.46875,3.53125,3.53125,0.0,1.0,-1.0,4.0,0,0,0,0,-0.84
6.0,0.0,6.0,0.0,6.0,0.0,6.0,0.0,,,,left,1.509633700363338,295.4698813003488,ox19,272.85284110018983,274.8525086003356,295.4698813003488,,False,3.0,['p'],False,0.21875,0.25,0.125,1.0,1.0,0.7908280489481783,-0.60447265625,wait_cost,1.0,2.0,292.1360673001036,,ox19,1,2022-05-11_14h35.22.606,threat_forest,2021.2.3,60.05461373201944,False,61.0,0.325,0.39583333333333337,-1.354375,-1.1727430555555558,0,0,0.0,0.4118670388580934,-0.60447265625,0.0,0.21875,0.25,0.125,-0.625,-0.46875,2.53125,2.53125,0.0,1.0,-1.0,3.0,0,0,0,0,-0.84
6.0,0.0,6.0,0.0,7.0,0.0,7.0,0.0,,,,right,1.1908249002881348,301.2197937001474,ox19,301.2197937001474,,297.0042936000973,299.019462400116,False,2.0,['p'],True,0.32,0.4,0.2,1.0,1.0,0.9455672104350704,-0.6799999999999999,wait_cost,0.0,1.0,299.019462400116,,ox19,1,2022-05-11_14h35.22.606,threat_forest,2021.2.3,60.05461373201944,False,61.0,0.325,0.39583333333333337,-1.354375,-1.1727430555555558,0,0,0.0,0.17464626049522414,-0.6799999999999999,0.0,0.32,0.4,0.2,-0.3999999999999999,-0.24,1.76,1.76,1.0,1.0,-1.0,2.0,0,0,0,0,-0.84
7.0,0.0,7.0,0.0,0.0,0.0,0.0,0.0,308.1570685002953,311.6696560001001,,left,2.380215500015765,312.6700838003308,ox19,308.1570685002953,311.6696560001001,312.6700838003308,,False,4.0,['p'],False,0.2448979591836734,0.2857142857142857,0.1428571428571428,1.0,1.0,0.8400769154957735,0.0039960293469888,wait_cost,1.0,3.0,,,ox19,1,2022-05-11_14h35.22.606,threat_forest,2021.2.3,60.05461373201944,False,13.0,0.47619047619047616,0.4005952380952381,-1.2040816326530612,-1.2792283163265306,0,0,0.0,0.8671910298094326,0.0039960293469888,0.2448979591836734,0.2448979591836734,0.2857142857142857,0.1428571428571428,-0.5714285714285712,-0.40816326530612246,3.5918367346938775,3.5918367346938775,0.0,1.0,-1.0,4.0,0,1,0,0,0.0039960293469888
7.0,0.0,7.0,0.0,1.0,0.0,1.0,0.0,,,,left,1.1373870000243187,320.6866987003013,ox19,320.6866987003013,,315.07003480009735,317.0697319000028,True,3.0,['p'],True,0.4444444444444445,0.6666666666666666,0.3333333333333333,1.0,1.0,0.9656336071428248,0.0524754383062191,figh_cost,0.0,0.0,317.0697319000028,,ox19,1,2022-05-11_14h35.22.606,threat_forest,2021.2.3,60.05461373201944,True,13.0,0.47619047619047616,0.4005952380952381,-1.2040816326530612,-1.2792283163265306,1,1,1.0,0.12873352627039886,0.0524754383062191,0.4444444444444445,0.4444444444444445,0.6666666666666666,0.3333333333333333,0.0,0.0,3.0,3.0,1.0,1.0,-1.0,3.0,0,1,1,1,0.0524754383062191
8.0,0.0,8.0,0.0,0.0,0.0,0.0,0.0,326.72493430040777,330.2366153001785,,left,1.8590305000543597,332.47042130026966,ox19,326.72493430040777,330.2366153001785,332.47042130026966,,False,4.0,['r'],False,0.36,0.6,0.4,2.0,1.0,0.9801625908629508,0.0090639294214999,wait_cost,1.0,3.0,,,ox19,1,2022-05-11_14h35.22.606,threat_forest,2021.2.3,60.05461373201944,False,24.0,0.55,0.513095238095238,-0.9100000000000001,-1.0570408163265306,0,0,0.0,0.6200551153042128,0.0090639294214999,0.36,0.36,0.6,0.4,-0.40000000000000036,-0.3200000000000003,3.6799999999999997,3.6799999999999997,0.0,1.0,-1.0,4.0,0,1,0,0,0.0090639294214999
8.0,0.0,8.0,0.0,1.0,0.0,1.0,0.0,,,,left,1.835975700058043,337.2870990000665,ox19,337.2870990000665,,334.35362160019577,336.35343560017645,True,3.0,['r'],True,0.5,0.5,0.0,0.0,1.0,0.6309297535714574,0.103973876875,succ_gain,0.0,4.0,336.35343560017645,,ox19,1,2022-05-11_14h35.22.606,threat_forest,2021.2.3,60.05461373201944,True,24.0,0.55,0.513095238095238,-0.9100000000000001,-1.0570408163265306,1,0,1.0,0.607576056848208,0.103973876875,0.5,0.5,0.5,0.0,0.5,0.5,3.5,3.5,1.0,1.0,-1.0,3.0,0,1,0,1,0.103973876875
8.0,0.0,8.0,0.0,2.0,0.0,2.0,0.0,,,,left,1.8264191001653671,344.65388810029253,ox19,339.15372330043465,341.1535989004188,344.65388810029253,,False,4.0,['r'],False,0.36,0.6,0.4,2.0,1.0,0.9801625908629508,-0.001790475,wait_cost,1.0,3.0,341.1535989004188,,ox19,1,2022-05-11_14h35.22.606,threat_forest,2021.2.3,60.05461373201944,False,24.0,0.55,0.513095238095238,-0.9100000000000001,-1.0570408163265306,0,0,0.0,0.6023572740003644,-0.001790475,0.36,0.36,0.6,0.4,-0.40000000000000036,-0.3200000000000003,3.6799999999999997,3.6799999999999997,0.0,1.0,1.0,4.0,0,1,0,0,-0.001790475
8.0,0.0,8.0,0.0,3.0,0.0,3.0,0.0,,,,left,1.0958304000087082,350.537161400076,ox19,350.537161400076,,346.50384250003844,348.5036373003386,True,3.0,['r'],True,0.5,0.5,0.0,0.0,1.0,0.6309297535714574,0.1769,unsucc_cost,0.0,1.0,348.5036373003386,,ox19,1,2022-05-11_14h35.22.606,threat_forest,2021.2.3,60.05461373201944,True,24.0,0.55,0.513095238095238,-0.9100000000000001,-1.0570408163265306,1,0,1.0,0.09151243203405365,0.1769,0.5,0.5,0.5,0.0,0.5,0.5,3.5,3.5,1.0,1.0,-1.0,3.0,0,1,0,1,0.1769
8.0,0.0,8.0,0.0,4.0,0.0,4.0,0.0,,,,left,0.834472400136292,356.1706374003552,ox19,356.1706374003552,,346.50384250003844,348.5036373003386,True,1.0,['r'],True,0.5,0.5,0.0,0.0,1.0,0.6309297535714574,0.2324999999999999,unsucc_cost,0.0,0.0,353.6536251003854,,ox19,1,2022-05-11_14h35.22.606,threat_forest,2021.2.3,60.05461373201944,True,24.0,0.55,0.513095238095238,-0.9100000000000001,-1.0570408163265306,1,0,1.0,-0.18095560996069138,0.2324999999999999,1.0,0.5,0.5,0.0,0.5,0.5,1.5,1.5,1.0,1.0,-1.0,1.0,1,1,0,1,0.625
9.0,0.0,9.0,0.0,0.0,0.0,0.0,0.0,360.660218000412,364.170486500021,,right,1.4462748002260923,367.2710669999942,ox19,360.660218000412,364.170486500021,367.2710669999942,,True,5.0,['p'],False,0.4444444444444445,0.6666666666666666,0.3333333333333333,1.0,2.0,0.9656336071428248,0.0229346088356386,unsucc_cost,1.0,3.0,,,ox19,1,2022-05-11_14h35.22.606,threat_forest,2021.2.3,60.05461373201944,True,29.0,0.47619047619047616,0.513095238095238,-0.8594104308390023,-0.8847052154195012,1,0,1.0,0.3689911473310791,0.0229346088356386,0.4444444444444445,0.4444444444444445,0.6666666666666666,0.3333333333333333,0.6666666666666665,0.4444444444444444,5.444444444444445,5.444444444444445,0.0,2.0,-1.0,5.0,0,1,0,1,0.0229346088356386
9.0,0.0,9.0,0.0,1.0,0.0,1.0,0.0,,,,right,1.007448500022292,373.4713020999916,ox19,360.660218000412,364.170486500021,373.4713020999916,,True,3.0,['p'],False,0.4444444444444445,0.6666666666666666,0.3333333333333333,1.0,2.0,0.9656336071428248,0.0857569121584442,figh_cost,1.0,0.0,370.7373919002712,,ox19,1,2022-05-11_14h35.22.606,threat_forest,2021.2.3,60.05461373201944,True,29.0,0.47619047619047616,0.513095238095238,-0.8594104308390023,-0.8847052154195012,1,0,1.0,0.007420896929018709,0.0857569121584442,0.4444444444444445,0.4444444444444445,0.6666666666666666,0.3333333333333333,0.6666666666666665,0.4444444444444444,3.4444444444444446,3.4444444444444446,0.0,2.0,-1.0,3.0,0,1,0,1,0.0857569121584442
10.0,0.0,10.0,0.0,0.0,0.0,0.0,0.0,379.27857750002295,382.7874825000763,,left,1.7408874998800457,383.8567596999928,ox19,379.27857750002295,382.7874825000763,383.8567596999928,,False,4.0,['p'],False,0.24,0.3,0.2,2.0,2.0,0.9003120349047065,0.0048924551776182,wait_cost,1.0,3.0,,,ox19,1,2022-05-11_14h35.22.606,threat_forest,2021.2.3,60.05461373201944,False,15.0,0.4833333333333333,0.4797619047619047,-0.8977777777777778,-0.87859410430839,0,0,0.0,0.5543950405937009,0.0048924551776182,0.24,0.24,0.3,0.2,-0.3999999999999999,-0.24,3.76,3.76,0.0,2.0,-1.0,4.0,0,1,0,0,0.0048924551776182
10.0,0.0,10.0,0.0,1.0,0.0,1.0,0.0,,,,left,0.9612663998268544,388.1380453002639,ox19,388.1380453002639,,385.6212495001964,387.62094769999385,True,3.0,['p'],True,0.4444444444444445,0.6666666666666666,0.3333333333333333,1.0,2.0,0.9656336071428248,0.0878193674113966,unsucc_cost,0.0,1.0,387.62094769999385,,ox19,1,2022-05-11_14h35.22.606,threat_forest,2021.2.3,60.05461373201944,True,15.0,0.4833333333333333,0.4797619047619047,-0.8977777777777778,-0.87859410430839,1,0,1.0,-0.03950369736960948,0.0878193674113966,0.4444444444444445,0.4444444444444445,0.6666666666666666,0.3333333333333333,0.6666666666666665,0.4444444444444444,3.4444444444444446,3.4444444444444446,1.0,2.0,-1.0,3.0,0,1,0,1,0.0878193674113966
10.0,0.0,10.0,0.0,2.0,0.0,2.0,0.0,,,,left,1.2526631001383066,393.68772860011086,ox19,393.68772860011086,,385.6212495001964,387.62094769999385,True,1.0,['p'],True,0.4444444444444445,0.6666666666666666,0.3333333333333333,1.0,2.0,0.9656336071428248,0.1942183425968263,unsucc_cost,0.0,0.0,391.1209129001945,,ox19,1,2022-05-11_14h35.22.606,threat_forest,2021.2.3,60.05461373201944,True,15.0,0.4833333333333333,0.4797619047619047,-0.8977777777777778,-0.87859410430839,1,0,1.0,0.2252717651703401,0.1942183425968263,1.0,0.4444444444444445,0.6666666666666666,0.3333333333333333,0.6666666666666665,0.4444444444444444,1.4444444444444444,1.4444444444444444,1.0,2.0,-1.0,1.0,1,1,0,1,0.625
11.0,0.0,11.0,0.0,0.0,0.0,0.0,0.0,399.5092143001966,403.02100670011714,,right,1.8537713000550864,404.8395906002261,ox19,399.5092143001966,403.02100670011714,404.8395906002261,,True,5.0,['r'],False,0.4081632653061224,0.5714285714285714,0.2857142857142857,2.0,1.0,0.9885754083994552,-0.0004231906775603,succ_gain,1.0,6.0,,,ox19,1,2022-05-11_14h35.22.606,threat_forest,2021.2.3,60.05461373201944,True,27.0,0.5357142857142857,0.5095238095238095,-0.7806122448979592,-0.8391950113378686,0,0,1.0,0.6172221046562305,-0.0004231906775603,0.4081632653061224,0.4081632653061224,0.5714285714285714,0.2857142857142857,-0.1428571428571428,-0.061224489795918435,4.938775510204081,4.938775510204081,0.0,1.0,-1.0,5.0,0,1,0,0,-0.0004231906775603
11.0,0.0,11.0,0.0,1.0,0.0,1.0,0.0,,,,left,1.5057274997234344,411.4718953003176,ox19,399.5092143001966,403.02100670011714,411.4718953003176,,False,6.0,['r'],False,0.4081632653061224,0.5714285714285714,0.2857142857142857,2.0,1.0,0.9885754083994552,-0.1076532809956411,wait_cost,1.0,5.0,408.7212171000429,,ox19,1,2022-05-11_14h35.22.606,threat_forest,2021.2.3,60.05461373201944,False,27.0,0.5357142857142857,0.5095238095238095,-0.7806122448979592,-0.8391950113378686,0,0,0.0,0.4092761699267992,-0.1076532809956411,0.4081632653061224,0.4081632653061224,0.5714285714285714,0.2857142857142857,-0.1428571428571428,-0.061224489795918435,5.938775510204081,5.938775510204081,0.0,1.0,1.0,6.0,0,1,0,0,-0.1076532809956411
11.0,0.0,11.0,0.0,2.0,0.0,2.0,0.0,,,,right,1.2167728003114462,416.88865830004215,ox19,399.5092143001966,403.02100670011714,416.88865830004215,,True,5.0,['r'],False,0.4081632653061224,0.5714285714285714,0.2857142857142857,2.0,1.0,0.9885754083994552,-0.0007263192497883,succ_gain,1.0,6.0,415.00455120019615,,ox19,1,2022-05-11_14h35.22.606,threat_forest,2021.2.3,60.05461373201944,True,27.0,0.5357142857142857,0.5095238095238095,-0.7806122448979592,-0.8391950113378686,0,0,1.0,0.1962021082543975,-0.0007263192497883,0.4081632653061224,0.4081632653061224,0.5714285714285714,0.2857142857142857,-0.1428571428571428,-0.061224489795918435,4.938775510204081,4.938775510204081,0.0,1.0,-1.0,5.0,0,1,0,0,-0.0007263192497883
11.0,0.0,11.0,0.0,3.0,0.0,3.0,0.0,,,,right,1.5183345000259578,420.82187930028886,ox19,420.82187930028886,,418.13813910027966,420.13797220028937,False,6.0,['r'],True,0.5,0.5,0.0,0.0,1.0,0.6309297535714574,-0.1560938150770512,wait_cost,0.0,5.0,420.13797220028937,,ox19,1,2022-05-11_14h35.22.606,threat_forest,2021.2.3,60.05461373201944,False,27.0,0.5357142857142857,0.5095238095238095,-0.7806122448979592,-0.8391950113378686,1,0,0.0,0.4176140104470016,-0.1560938150770512,0.0,0.5,0.5,0.0,0.5,0.5,6.5,6.5,1.0,1.0,1.0,6.0,0,0,0,1,-0.84
11.0,0.0,11.0,0.0,4.0,0.0,4.0,0.0,,,,right,0.957630000077188,427.3384449002333,ox19,427.3384449002333,,418.13813910027966,420.13797220028937,False,5.0,['r'],True,0.5,0.5,0.0,0.0,1.0,0.6309297535714574,-0.1814478342357351,wait_cost,0.0,4.0,424.3713302002288,,ox19,1,2022-05-11_14h35.22.606,threat_forest,2021.2.3,60.05461373201944,False,27.0,0.5357142857142857,0.5095238095238095,-0.7806122448979592,-0.8391950113378686,1,0,0.0,-0.04329379682769008,-0.1814478342357351,0.0,0.5,0.5,0.0,0.5,0.5,5.5,5.5,1.0,1.0,-1.0,5.0,0,0,0,1,-0.84
11.0,0.0,11.0,0.0,5.0,0.0,5.0,0.0,,,,left,0.7927474998869002,433.48902780003846,ox19,428.3216512002982,430.3216770002618,433.48902780003846,,False,4.0,['r'],False,0.4081632653061224,0.5714285714285714,0.2857142857142857,2.0,1.0,0.9885754083994552,-0.3160662224073303,wait_cost,1.0,3.0,430.3216770002618,,ox19,1,2022-05-11_14h35.22.606,threat_forest,2021.2.3,60.05461373201944,False,27.0,0.5357142857142857,0.5095238095238095,-0.7806122448979592,-0.8391950113378686,0,0,0.0,-0.23225051929063356,-0.3160662224073303,0.0,0.4081632653061224,0.5714285714285714,0.2857142857142857,-0.1428571428571428,-0.061224489795918435,3.9387755102040813,3.9387755102040813,0.0,1.0,-1.0,4.0,0,0,0,0,-0.84
11.0,0.0,11.0,0.0,6.0,0.0,6.0,0.0,,,,left,0.9881295999512076,439.48879790026695,ox19,428.3216512002982,430.3216770002618,439.48879790026695,,False,3.0,['r'],False,0.4081632653061224,0.5714285714285714,0.2857142857142857,2.0,1.0,0.9885754083994552,-0.452832153269471,wait_cost,1.0,2.0,436.30488050030544,,ox19,1,2022-05-11_14h35.22.606,threat_forest,2021.2.3,60.05461373201944,False,27.0,0.5357142857142857,0.5095238095238095,-0.7806122448979592,-0.8391950113378686,0,0,0.0,-0.011941415797147456,-0.452832153269471,0.0,0.4081632653061224,0.5714285714285714,0.2857142857142857,-0.1428571428571428,-0.061224489795918435,2.9387755102040813,2.9387755102040813,0.0,1.0,-1.0,3.0,0,0,0,0,-0.84
11.0,0.0,11.0,0.0,7.0,0.0,7.0,0.0,,,,right,0.9506979999132454,445.5718946000561,ox19,445.5718946000561,,440.5052028000355,442.5049464004114,False,2.0,['r'],True,0.5,0.5,0.0,0.0,1.0,0.6309297535714574,-0.5,wait_cost,0.0,1.0,442.5049464004114,,ox19,1,2022-05-11_14h35.22.606,threat_forest,2021.2.3,60.05461373201944,False,27.0,0.5357142857142857,0.5095238095238095,-0.7806122448979592,-0.8391950113378686,1,0,0.0,-0.05055882742367219,-0.5,0.0,0.5,0.5,0.0,0.5,0.5,2.5,2.5,1.0,1.0,-1.0,2.0,0,0,0,1,-0.84
12.0,0.0,12.0,0.0,0.0,0.0,0.0,0.0,450.3672104002908,453.86949680000544,,right,1.6630652002058923,457.4096870999783,ox19,457.4096870999783,,450.3672104002908,453.86949680000544,False,5.0,['p'],True,0.2222222222222222,0.3333333333333333,0.3333333333333333,2.0,2.0,0.9656336071428248,0.0018803614496756,wait_cost,0.0,4.0,,,ox19,1,2022-05-11_14h35.22.606,threat_forest,2021.2.3,60.05461373201944,False,63.0,0.26666666666666666,0.4011904761904762,-1.5022222222222226,-1.141417233560091,0,0,0.0,0.5086624058198067,0.0018803614496756,0.2222222222222222,0.2222222222222222,0.3333333333333333,0.3333333333333333,-0.666666666666667,-0.44444444444444464,4.555555555555555,4.555555555555555,1.0,2.0,-1.0,5.0,0,1,0,0,0.0018803614496756
12.0,0.0,12.0,0.0,1.0,0.0,1.0,0.0,,,,left,1.575434099882841,462.3757961001247,ox19,459.10580960009247,461.1052668001503,462.3757961001247,,False,4.0,['p'],False,0.16,0.2,0.2,2.0,2.0,0.8198746470064713,0.0090533165280466,wait_cost,1.0,3.0,461.1052668001503,,ox19,1,2022-05-11_14h35.22.606,threat_forest,2021.2.3,60.05461373201944,False,63.0,0.26666666666666666,0.4011904761904762,-1.5022222222222226,-1.141417233560091,0,0,0.0,0.4545308532748974,0.0090533165280466,0.16,0.16,0.2,0.2,-0.8000000000000003,-0.5600000000000003,3.4399999999999995,3.4399999999999995,0.0,2.0,-1.0,4.0,0,1,0,0,0.0090533165280466
12.0,0.0,12.0,0.0,2.0,0.0,2.0,0.0,,,,left,1.420305300038308,469.5393572002649,ox19,469.5393572002649,,463.9722655001096,465.9725021002814,True,3.0,['p'],True,0.2222222222222222,0.3333333333333333,0.3333333333333333,2.0,2.0,0.9656336071428248,0.0475854290504497,figh_cost,0.0,0.0,465.9725021002814,,ox19,1,2022-05-11_14h35.22.606,threat_forest,2021.2.3,60.05461373201944,True,63.0,0.26666666666666666,0.4011904761904762,-1.5022222222222226,-1.141417233560091,0,0,1.0,0.3508718485309532,0.0475854290504497,0.2222222222222222,0.2222222222222222,0.3333333333333333,0.3333333333333333,-0.666666666666667,-0.44444444444444464,2.5555555555555554,2.5555555555555554,1.0,2.0,-1.0,3.0,0,1,0,0,0.0475854290504497
13.0,0.0,13.0,0.0,0.0,0.0,0.0,0.0,474.3800041000359,477.8888062001206,,right,1.7103285999037323,479.2058112001978,ox19,479.2058112001978,,474.3800041000359,477.8888062001206,False,5.0,['r'],True,0.3333333333333333,0.3333333333333333,0.0,0.0,2.0,0.5793801642856949,0.0388172421765338,wait_cost,0.0,4.0,,,ox19,1,2022-05-11_14h35.22.606,threat_forest,2021.2.3,60.05461373201944,False,10.0,0.35416666666666663,0.3104166666666667,-0.8958333333333335,-1.199027777777778,1,1,0.0,0.5366855157398854,0.0388172421765338,0.3333333333333333,0.3333333333333333,0.3333333333333333,0.0,0.33333333333333315,0.33333333333333315,5.333333333333333,5.333333333333333,1.0,2.0,-1.0,5.0,0,1,1,1,0.0388172421765338
13.0,0.0,13.0,0.0,1.0,0.0,1.0,0.0,,,,right,1.5899471999146044,483.94123700028285,ox19,480.93927660025656,482.93885980034247,483.94123700028285,,True,4.0,['r'],False,0.28125,0.375,0.25,2.0,2.0,0.9634951148421658,0.0125198670204943,figh_cost,1.0,1.0,482.93885980034247,,ox19,1,2022-05-11_14h35.22.606,threat_forest,2021.2.3,60.05461373201944,True,10.0,0.35416666666666663,0.3104166666666667,-0.8958333333333335,-1.199027777777778,1,0,1.0,0.46370080807987785,0.0125198670204943,0.28125,0.28125,0.375,0.25,-0.25,-0.125,3.875,3.875,0.0,2.0,-1.0,4.0,0,1,0,1,0.0125198670204943
13.0,0.0,13.0,0.0,2.0,0.0,2.0,0.0,,,,left,1.21872750017792,489.43927159998566,ox19,489.43927159998566,,485.5558050000109,487.55557530000806,True,1.0,['r'],True,0.3333333333333333,0.3333333333333333,0.0,0.0,2.0,0.5793801642856949,0.1304442796687529,unsucc_cost,0.0,0.0,487.55557530000806,,ox19,1,2022-05-11_14h35.22.606,threat_forest,2021.2.3,60.05461373201944,True,10.0,0.35416666666666663,0.3104166666666667,-0.8958333333333335,-1.199027777777778,1,1,1.0,0.19780728176703044,0.1304442796687529,1.0,0.3333333333333333,0.3333333333333333,0.0,0.33333333333333315,0.33333333333333315,1.333333333333333,1.333333333333333,1.0,2.0,-1.0,1.0,1,1,1,1,0.625
14.0,0.0,14.0,0.0,0.0,0.0,0.0,0.0,493.4976598001085,497.0057634999976,,right,1.0819056998007,500.4416912002489,ox19,493.4976598001085,497.0057634999976,500.4416912002489,,True,5.0,['r'],False,0.46875,0.625,0.25,2.0,2.0,0.9634951148421658,-0.0188382549218505,figh_cost,1.0,2.0,,,ox19,1,2022-05-11_14h35.22.606,threat_forest,2021.2.3,60.05461373201944,True,62.0,0.6125,0.48333333333333334,0.012499999999999956,-0.44166666666666676,1,0,1.0,0.07872402302240444,-0.0188382549218505,0.46875,0.46875,0.625,0.25,0.75,0.625,5.625,5.625,0.0,2.0,-1.0,5.0,0,1,0,1,-0.0188382549218505
14.0,0.0,14.0,0.0,1.0,0.0,1.0,0.0,,,,left,0.9289941000752152,505.8061911002733,ox19,505.8061911002733,,501.55605250038207,503.5558428000659,True,2.0,['r'],True,0.6,0.6,0.0,0.0,2.0,0.6126016192893442,0.081922610155642,unsucc_cost,0.0,0.0,503.5558428000659,,ox19,1,2022-05-11_14h35.22.606,threat_forest,2021.2.3,60.05461373201944,True,62.0,0.6125,0.48333333333333334,0.012499999999999956,-0.44166666666666676,1,1,1.0,-0.07365289102246386,0.081922610155642,0.6,0.6,0.6,0.0,1.4,1.4,3.4,3.4,1.0,2.0,-1.0,2.0,0,1,1,1,0.081922610155642
15.0,0.0,15.0,0.0,0.0,0.0,0.0,0.0,509.8140108999796,513.3226296002977,,left,1.2739129001274705,516.2067190003581,ox19,516.2067190003581,,509.8140108999796,513.3226296002977,True,4.0,['r'],True,0.5,0.5,0.0,0.0,2.0,0.6309297535714574,0.096737473125,succ_gain,0.0,6.0,,,ox19,1,2022-05-11_14h35.22.606,threat_forest,2021.2.3,60.05461373201944,True,18.0,0.55,0.58125,-0.4800000000000001,-0.23375000000000007,1,0,1.0,0.24209318756594142,0.096737473125,0.5,0.5,0.5,0.0,1.0,1.0,5.0,5.0,1.0,2.0,-1.0,4.0,0,1,0,1,0.096737473125
15.0,0.0,15.0,0.0,1.0,0.0,1.0,0.0,,,,right,2.571850299835205,520.2899176999927,ox19,520.2899176999927,,509.8140108999796,513.3226296002977,False,6.0,['r'],True,0.5,0.5,0.0,0.0,2.0,0.6309297535714574,-0.0252296875,wait_cost,0.0,5.0,519.5061184000224,,ox19,1,2022-05-11_14h35.22.606,threat_forest,2021.2.3,60.05461373201944,False,18.0,0.55,0.58125,-0.4800000000000001,-0.23375000000000007,1,0,0.0,0.9446256008848897,-0.0252296875,0.5,0.5,0.5,0.0,1.0,1.0,7.0,7.0,1.0,2.0,1.0,6.0,0,1,0,1,-0.0252296875
15.0,0.0,15.0,0.0,2.0,0.0,2.0,0.0,,,,right,2.341686800122261,528.3565393001772,ox19,522.8896883004345,524.889445700217,528.3565393001772,,True,5.0,['r'],False,0.36,0.6,0.4,2.0,2.0,0.9801625908629508,-0.050683,unsucc_cost,1.0,3.0,524.889445700217,,ox19,1,2022-05-11_14h35.22.606,threat_forest,2021.2.3,60.05461373201944,True,18.0,0.55,0.58125,-0.4800000000000001,-0.23375000000000007,0,0,1.0,0.8508715244317177,-0.050683,0.36,0.36,0.6,0.4,0.19999999999999973,0.039999999999999813,5.04,5.04,0.0,2.0,-1.0,5.0,0,1,0,0,-0.050683
15.0,0.0,15.0,0.0,3.0,0.0,3.0,0.0,,,,right,1.2224703999236226,534.6734188999981,ox19,522.8896883004345,524.889445700217,534.6734188999981,,True,3.0,['r'],False,0.36,0.6,0.4,2.0,2.0,0.9801625908629508,-0.044112,succ_gain,1.0,5.0,532.7229426000267,,ox19,1,2022-05-11_14h35.22.606,threat_forest,2021.2.3,60.05461373201944,True,18.0,0.55,0.58125,-0.4800000000000001,-0.23375000000000007,0,0,1.0,0.20087372933234388,-0.044112,0.36,0.36,0.6,0.4,0.19999999999999973,0.039999999999999813,3.04,3.04,0.0,2.0,-1.0,3.0,0,1,0,0,-0.044112
15.0,0.0,15.0,0.0,4.0,0.0,4.0,0.0,,,,left,1.4967168001458049,540.1404291000217,ox19,522.8896883004345,524.889445700217,540.1404291000217,,False,5.0,['r'],False,0.36,0.6,0.4,2.0,2.0,0.9801625908629508,-0.3124,wait_cost,1.0,4.0,537.9230790003203,,ox19,1,2022-05-11_14h35.22.606,threat_forest,2021.2.3,60.05461373201944,False,18.0,0.55,0.58125,-0.4800000000000001,-0.23375000000000007,0,0,0.0,0.4032739092817119,-0.3124,0.0,0.36,0.6,0.4,0.19999999999999973,0.039999999999999813,5.04,5.04,0.0,2.0,1.0,5.0,0,0,0,0,-0.84
15.0,0.0,15.0,0.0,5.0,0.0,5.0,0.0,,,,left,1.2255792999640107,546.173867800273,ox19,522.8896883004345,524.889445700217,546.173867800273,,False,4.0,['r'],False,0.36,0.6,0.4,2.0,2.0,0.9801625908629508,-0.3564,wait_cost,1.0,3.0,543.6565149002708,,ox19,1,2022-05-11_14h35.22.606,threat_forest,2021.2.3,60.05461373201944,False,18.0,0.55,0.58125,-0.4800000000000001,-0.23375000000000007,0,0,0.0,0.20341363014550826,-0.3564,0.0,0.36,0.6,0.4,0.19999999999999973,0.039999999999999813,4.04,4.04,0.0,2.0,-1.0,4.0,0,0,0,0,-0.84
15.0,0.0,15.0,0.0,6.0,0.0,6.0,0.0,,,,left,0.9496990996412932,550.6738647003658,ox19,522.8896883004345,524.889445700217,550.6738647003658,,False,3.0,['r'],False,0.36,0.6,0.4,2.0,2.0,0.9801625908629508,-0.5367999999999999,wait_cost,1.0,2.0,549.4231744003482,,ox19,1,2022-05-11_14h35.22.606,threat_forest,2021.2.3,60.05461373201944,False,18.0,0.55,0.58125,-0.4800000000000001,-0.23375000000000007,0,0,0.0,-0.05161008177906957,-0.5367999999999999,0.0,0.36,0.6,0.4,0.19999999999999973,0.039999999999999813,3.04,3.04,0.0,2.0,-1.0,3.0,0,0,0,0,-0.84
15.0,0.0,15.0,0.0,7.0,0.0,7.0,0.0,,,,left,1.169561400078237,555.2574840001762,ox19,522.8896883004345,524.889445700217,555.2574840001762,,False,2.0,['r'],False,0.36,0.6,0.4,2.0,2.0,0.9801625908629508,-0.64,wait_cost,1.0,1.0,553.6403267001733,,ox19,1,2022-05-11_14h35.22.606,threat_forest,2021.2.3,60.05461373201944,False,18.0,0.55,0.58125,-0.4800000000000001,-0.23375000000000007,0,0,0.0,0.156628806799691,-0.64,0.0,0.36,0.6,0.4,0.19999999999999973,0.039999999999999813,2.04,2.04,0.0,2.0,-1.0,2.0,0,0,0,0,-0.84
16.0,0.0,16.0,0.0,0.0,0.0,0.0,0.0,560.9283735002391,564.440032100305,,left,1.6300029000267386,565.9406734001823,ox19,560.9283735002391,564.440032100305,565.9406734001823,,False,5.0,['r'],False,0.24,0.4,0.4,2.0,2.0,0.9801625908629508,-0.0217856454141892,wait_cost,1.0,4.0,,,ox19,1,2022-05-11_14h35.22.606,threat_forest,2021.2.3,60.05461373201944,False,46.0,0.3666666666666667,0.45833333333333337,-1.0533333333333335,-0.7666666666666668,0,0,0.0,0.4885817939745966,-0.0217856454141892,0.24,0.24,0.4,0.4,-0.6000000000000001,-0.44000000000000017,4.56,4.56,0.0,2.0,-1.0,5.0,0,1,0,0,-0.0217856454141892
16.0,0.0,16.0,0.0,1.0,0.0,1.0,0.0,,,,right,2.318067899905145,570.2408978003077,ox19,560.9283735002391,564.440032100305,570.2408978003077,,True,4.0,['r'],False,0.24,0.4,0.4,2.0,2.0,0.9801625908629508,0.0131242703539093,unsucc_cost,1.0,2.0,569.5902442000806,,ox19,1,2022-05-11_14h35.22.606,threat_forest,2021.2.3,60.05461373201944,True,46.0,0.3666666666666667,0.45833333333333337,-1.0533333333333335,-0.7666666666666668,0,0,1.0,0.8407340369411523,0.0131242703539093,0.24,0.24,0.4,0.4,-0.6000000000000001,-0.44000000000000017,3.5599999999999996,3.5599999999999996,0.0,2.0,-1.0,4.0,0,1,0,0,0.0131242703539093
16.0,0.0,16.0,0.0,2.0,0.0,2.0,0.0,,,,right,1.6579156001098454,576.023983000312,ox19,576.023983000312,,572.5905675003305,574.5902539002709,False,2.0,['r'],True,0.3333333333333333,0.3333333333333333,0.0,0.0,2.0,0.5793801642856949,0.0379413333333333,wait_cost,0.0,1.0,574.5902539002709,,ox19,1,2022-05-11_14h35.22.606,threat_forest,2021.2.3,60.05461373201944,False,46.0,0.3666666666666667,0.45833333333333337,-1.0533333333333335,-0.7666666666666668,1,0,0.0,0.5055611507792067,0.0379413333333333,0.3333333333333333,0.3333333333333333,0.3333333333333333,0.0,0.33333333333333315,0.33333333333333315,2.333333333333333,2.333333333333333,1.0,2.0,-1.0,2.0,0,1,0,1,0.0379413333333333
16.0,0.0,16.0,0.0,3.0,0.0,3.0,0.0,,,,right,1.12302039982751,583.4075031001121,ox19,577.7071977001615,579.7075081001967,583.4075031001121,,True,1.0,['r'],False,0.24,0.4,0.4,2.0,2.0,0.9801625908629508,0.1041173333333332,succ_gain,1.0,3.0,579.7075081001967,,ox19,1,2022-05-11_14h35.22.606,threat_forest,2021.2.3,60.05461373201944,True,46.0,0.3666666666666667,0.45833333333333337,-1.0533333333333335,-0.7666666666666668,0,0,1.0,0.11602184106550102,0.1041173333333332,1.0,0.24,0.4,0.4,-0.6000000000000001,-0.44000000000000017,0.5599999999999998,1.0,0.0,2.0,-1.0,1.0,1,1,0,0,0.625
16.0,0.0,16.0,0.0,4.0,0.0,4.0,0.0,,,,right,1.3570407000370324,589.024378800299,ox19,577.7071977001615,579.7075081001967,589.024378800299,,True,3.0,['r'],False,0.24,0.4,0.4,2.0,2.0,0.9801625908629508,0.0332,figh_cost,1.0,0.0,586.5570765002631,,ox19,1,2022-05-11_14h35.22.606,threat_forest,2021.2.3,60.05461373201944,True,46.0,0.3666666666666667,0.45833333333333337,-1.0533333333333335,-0.7666666666666668,0,0,1.0,0.30530637306105446,0.0332,0.24,0.24,0.4,0.4,-0.6000000000000001,-0.44000000000000017,2.5599999999999996,2.5599999999999996,0.0,2.0,1.0,3.0,0,1,0,0,0.0332
17.0,0.0,17.0,0.0,0.0,0.0,0.0,0.0,593.5467598000541,597.0573196001351,,right,1.603571600280702,599.9413152001798,ox19,599.9413152001798,,593.5467598000541,597.0573196001351,False,4.0,['r'],True,0.4,0.4,0.0,0.0,2.0,0.6126016192893442,0.0533547681755829,wait_cost,0.0,3.0,,,ox19,1,2022-05-11_14h35.22.606,threat_forest,2021.2.3,60.05461373201944,False,2.0,0.45,0.4083333333333333,-0.7,-0.8766666666666667,1,0,0.0,0.4722333916522785,0.0533547681755829,0.4,0.4,0.4,0.0,0.6000000000000001,0.6000000000000001,4.6,4.6,1.0,2.0,-1.0,4.0,0,1,0,1,0.0533547681755829
17.0,0.0,17.0,0.0,1.0,0.0,1.0,0.0,,,,right,1.5308754998259246,605.9745638002641,ox19,601.5743242003955,603.5740673001856,605.9745638002641,,True,3.0,['r'],False,0.3333333333333333,0.5,0.3333333333333333,2.0,2.0,1.0,0.050541426611797,figh_cost,1.0,0.0,603.5740673001856,,ox19,1,2022-05-11_14h35.22.606,threat_forest,2021.2.3,60.05461373201944,True,2.0,0.45,0.4083333333333333,-0.7,-0.8766666666666667,0,0,1.0,0.42583979385614984,0.050541426611797,0.3333333333333333,0.3333333333333333,0.5,0.3333333333333333,0.0,0.0,3.0,3.0,0.0,2.0,-1.0,3.0,0,1,0,0,0.050541426611797
0.0,0.0,0.0,0.0,0.0,0.0,0.0,0.0,13.675573700107634,17.186587600037456,,left,1.292418200057,18.081798300147057,ox19,18.081798300147057,,13.675573700107634,17.186587600037456,True,5.0,['p'],True,0.4444444444444445,0.6666666666666666,0.3333333333333333,1.0,2.0,0.9656336071428248,0.0210978181405199,fight_cost,0.0,2.0,,,ox19,2,2022-05-11_14h45.45.574,threat_forest,2021.2.3,59.95832888144586,True,53.0,0.5,0.475,-0.8703703703703706,-0.7851851851851852,1,0,1.0,0.2565150372406072,0.0210978181405199,0.4444444444444445,0.4444444444444445,0.6666666666666666,0.3333333333333333,0.6666666666666665,0.4444444444444444,5.444444444444445,5.444444444444445,1.0,2.0,-1.0,5.0,0,1,0,1,0.0210978181405199
0.0,0.0,0.0,0.0,1.0,0.0,1.0,0.0,,,,left,1.3009967003017664,23.904136400204152,ox19,23.904136400204152,,13.675573700107634,17.186587600037456,True,2.0,['p'],True,0.4444444444444445,0.6666666666666666,0.3333333333333333,1.0,2.0,0.9656336071428248,0.0650171080975019,succ_gain,0.0,4.0,21.403484399896115,,ox19,2,2022-05-11_14h45.45.574,threat_forest,2021.2.3,59.95832888144586,True,53.0,0.5,0.475,-0.8703703703703706,-0.7851851851851852,1,0,1.0,0.2631306632487248,0.0650171080975019,0.4444444444444445,0.4444444444444445,0.6666666666666666,0.3333333333333333,0.6666666666666665,0.4444444444444444,2.4444444444444446,2.4444444444444446,1.0,2.0,-1.0,2.0,0,1,0,1,0.0650171080975019
0.0,0.0,0.0,0.0,2.0,0.0,2.0,0.0,,,,left,2.4619209999218583,28.22539609996602,ox19,25.23757220013067,27.23693950008601,28.22539609996602,,False,4.0,['p'],False,0.2592592592592592,0.3333333333333333,0.2222222222222222,2.0,2.0,0.9327883776363324,-0.0304071853695895,wait_cost,1.0,3.0,27.23693950008601,,ox19,2,2022-05-11_14h45.45.574,threat_forest,2021.2.3,59.95832888144586,False,53.0,0.5,0.475,-0.8703703703703706,-0.7851851851851852,0,0,0.0,0.9009419394821493,-0.0304071853695895,0.2592592592592592,0.2592592592592592,0.3333333333333333,0.2222222222222222,-0.3333333333333335,-0.18518518518518556,3.8148148148148144,3.8148148148148144,0.0,2.0,1.0,4.0,0,1,0,0,-0.0304071853695895
0.0,0.0,0.0,0.0,3.0,0.0,3.0,0.0,,,,left,1.0022761998698115,34.3540433999151,ox19,34.3540433999151,,30.703916000202295,32.70471560023725,True,3.0,['p'],True,0.4444444444444445,0.6666666666666666,0.3333333333333333,1.0,2.0,0.9656336071428248,0.0839966242724968,fight_cost,0.0,0.0,32.70471560023725,,ox19,2,2022-05-11_14h45.45.574,threat_forest,2021.2.3,59.95832888144586,True,53.0,0.5,0.475,-0.8703703703703706,-0.7851851851851852,1,0,1.0,0.002273613251251465,0.0839966242724968,0.4444444444444445,0.4444444444444445,0.6666666666666666,0.3333333333333333,0.6666666666666665,0.4444444444444444,3.4444444444444446,3.4444444444444446,1.0,2.0,-1.0,3.0,0,1,0,1,0.0839966242724968
1.0,0.0,1.0,0.0,0.0,0.0,0.0,0.0,38.49371760012582,42.00361429993063,,right,0.9522897000424564,45.28806779999286,ox19,38.49371760012582,42.00361429993063,45.28806779999286,,True,4.0,['r'],False,0.2222222222222222,0.6666666666666666,0.6666666666666666,2.0,2.0,0.77250688571426,-0.0834227138822206,fight_cost,1.0,1.0,,,ox19,2,2022-05-11_14h45.45.574,threat_forest,2021.2.3,59.95832888144586,True,49.0,0.5833333333333333,0.5416666666666666,-0.888888888888889,-0.8796296296296298,0,0,1.0,-0.048885983715398866,-0.0834227138822206,0.2222222222222222,0.2222222222222222,0.6666666666666666,0.6666666666666666,-0.3333333333333335,-0.7777777777777779,3.2222222222222223,3.2222222222222223,0.0,2.0,-1.0,4.0,0,1,0,0,-0.0834227138822206
1.0,0.0,1.0,0.0,1.0,0.0,1.0,0.0,,,,right,0.9716335996054112,50.720754500012845,ox19,38.49371760012582,42.00361429993063,50.720754500012845,,True,1.0,['r'],False,0.2222222222222222,0.6666666666666666,0.6666666666666666,2.0,2.0,0.77250688571426,0.0791966735253772,fight_cost,1.0,0.0,48.270563799887896,,ox19,2,2022-05-11_14h45.45.574,threat_forest,2021.2.3,59.95832888144586,True,49.0,0.5833333333333333,0.5416666666666666,-0.888888888888889,-0.8796296296296298,0,0,1.0,-0.0287765007256116,0.0791966735253772,1.0,0.2222222222222222,0.6666666666666666,0.6666666666666666,-0.3333333333333335,-0.7777777777777779,0.2222222222222221,1.0,0.0,2.0,-1.0,1.0,1,1,0,0,0.625
2.0,0.0,2.0,0.0,0.0,0.0,0.0,0.0,56.86143490020186,60.37070550024509,,left,1.5239832000806928,63.22287579998374,ox19,56.86143490020186,60.37070550024509,63.22287579998374,,False,5.0,['p'],False,0.2,0.2,0.0,0.0,1.0,0.4554859150035951,-0.0328286525992537,wait_cost,1.0,4.0,,,ox19,2,2022-05-11_14h45.45.574,threat_forest,2021.2.3,59.95832888144586,False,39.0,0.43333333333333335,0.5083333333333333,-1.2000000000000002,-1.0444444444444445,0,0,0.0,0.4213274336345953,-0.0328286525992537,0.2,0.2,0.2,0.0,-0.40000000000000013,-0.40000000000000013,4.6,4.6,0.0,1.0,-1.0,5.0,0,1,0,0,-0.0328286525992537
2.0,0.0,2.0,0.0,1.0,0.0,1.0,0.0,,,,right,1.4106314000673592,69.43787300027907,ox19,56.86143490020186,60.37070550024509,69.43787300027907,,True,4.0,['p'],False,0.2,0.2,0.0,0.0,1.0,0.4554859150035951,-0.0236723026638894,unsucc_cost,1.0,2.0,66.7708045002073,,ox19,2,2022-05-11_14h45.45.574,threat_forest,2021.2.3,59.95832888144586,True,39.0,0.43333333333333335,0.5083333333333333,-1.2000000000000002,-1.0444444444444445,0,0,1.0,0.34403740562313445,-0.0236723026638894,0.2,0.2,0.2,0.0,-0.40000000000000013,-0.40000000000000013,3.5999999999999996,3.5999999999999996,0.0,1.0,-1.0,4.0,0,1,0,0,-0.0236723026638894
2.0,0.0,2.0,0.0,2.0,0.0,2.0,0.0,,,,left,1.1673537995666263,76.3045659000054,ox19,56.86143490020186,60.37070550024509,76.3045659000054,,False,2.0,['p'],False,0.2,0.2,0.0,0.0,1.0,0.4554859150035951,-0.0074208352385306,wait_cost,1.0,1.0,72.87083860021085,,ox19,2,2022-05-11_14h45.45.574,threat_forest,2021.2.3,59.95832888144586,False,39.0,0.43333333333333335,0.5083333333333333,-1.2000000000000002,-1.0444444444444445,0,0,0.0,0.1547394775089856,-0.0074208352385306,0.2,0.2,0.2,0.0,-0.40000000000000013,-0.40000000000000013,1.5999999999999999,1.5999999999999999,0.0,1.0,-1.0,2.0,0,1,0,0,-0.0074208352385306
2.0,0.0,2.0,0.0,3.0,0.0,3.0,0.0,,,,left,2.132993499748409,80.57162309996784,ox19,80.57162309996784,,77.50451580015942,79.5043366998434,True,1.0,['p'],True,0.4444444444444445,0.6666666666666666,0.3333333333333333,1.0,1.0,0.9656336071428248,0.0755387898186251,succ_gain,0.0,2.0,79.5043366998434,,ox19,2,2022-05-11_14h45.45.574,threat_forest,2021.2.3,59.95832888144586,True,39.0,0.43333333333333335,0.5083333333333333,-1.2000000000000002,-1.0444444444444445,1,0,1.0,0.7575263920154696,0.0755387898186251,1.0,0.4444444444444445,0.6666666666666666,0.3333333333333333,0.0,0.0,1.0,1.0,1.0,1.0,-1.0,1.0,1,1,0,1,0.625
2.0,0.0,2.0,0.0,4.0,0.0,4.0,0.0,,,,left,1.901320800185204,88.0461757001467,ox19,82.72168199997395,84.72105260007083,88.0461757001467,,False,2.0,['p'],False,0.2,0.2,0.0,0.0,1.0,0.4554859150035951,-0.0261358024691358,wait_cost,1.0,1.0,84.72105260007083,,ox19,2,2022-05-11_14h45.45.574,threat_forest,2021.2.3,59.95832888144586,False,39.0,0.43333333333333335,0.5083333333333333,-1.2000000000000002,-1.0444444444444445,0,0,0.0,0.6425488026542091,-0.0261358024691358,0.2,0.2,0.2,0.0,-0.40000000000000013,-0.40000000000000013,1.5999999999999999,1.5999999999999999,0.0,1.0,1.0,2.0,0,1,0,0,-0.0261358024691358
2.0,0.0,2.0,0.0,5.0,0.0,5.0,0.0,,,,left,1.2655162997543812,95.37186500011012,ox19,95.37186500011012,,89.9714517001994,91.97107740025967,True,1.0,['p'],True,0.4444444444444445,0.6666666666666666,0.3333333333333333,1.0,1.0,0.9656336071428248,0.1703703703703702,succ_gain,0.0,2.0,91.97107740025967,,ox19,2,2022-05-11_14h45.45.574,threat_forest,2021.2.3,59.95832888144586,True,39.0,0.43333333333333335,0.5083333333333333,-1.2000000000000002,-1.0444444444444445,1,0,1.0,0.2354801810104782,0.1703703703703702,1.0,0.4444444444444445,0.6666666666666666,0.3333333333333333,0.0,0.0,1.0,1.0,1.0,1.0,-1.0,1.0,1,1,0,1,0.625
2.0,0.0,2.0,0.0,6.0,0.0,6.0,0.0,,,,left,1.592511999886483,101.8927187002264,ox19,96.6552889002487,98.65458620013668,101.8927187002264,,False,2.0,['p'],False,0.2,0.2,0.0,0.0,1.0,0.4554859150035951,-0.1222222222222222,wait_cost,1.0,1.0,98.65458620013668,,ox19,2,2022-05-11_14h45.45.574,threat_forest,2021.2.3,59.95832888144586,False,39.0,0.43333333333333335,0.5083333333333333,-1.2000000000000002,-1.0444444444444445,0,0,0.0,0.46531264368633024,-0.1222222222222222,0.2,0.2,0.2,0.0,-0.40000000000000013,-0.40000000000000013,1.5999999999999999,1.5999999999999999,0.0,1.0,1.0,2.0,0,1,0,0,-0.1222222222222222
2.0,0.0,2.0,0.0,7.0,0.0,7.0,0.0,,,,left,1.2651015999726951,107.67218670016156,ox19,107.67218670016156,,103.5050766998902,105.504657600075,True,1.0,['p'],True,0.4444444444444445,0.6666666666666666,0.3333333333333333,1.0,1.0,0.9656336071428248,0.4444444444444444,unsucc_cost,0.0,0.0,105.504657600075,,ox19,2,2022-05-11_14h45.45.574,threat_forest,2021.2.3,59.95832888144586,True,39.0,0.43333333333333335,0.5083333333333333,-1.2000000000000002,-1.0444444444444445,1,0,1.0,0.23515243513826026,0.4444444444444444,1.0,0.4444444444444445,0.6666666666666666,0.3333333333333333,0.0,0.0,1.0,1.0,1.0,1.0,-1.0,1.0,1,1,0,1,0.625
3.0,0.0,3.0,0.0,0.0,0.0,0.0,0.0,111.69774940004572,115.2048110999167,,right,1.7949808998964727,117.67226530006155,ox19,111.69774940004572,115.2048110999167,117.67226530006155,,True,5.0,['r'],False,0.375,0.5,0.25,1.0,2.0,0.9850568223215076,0.0153323500884942,unsucc_cost,1.0,3.0,,,ox19,2,2022-05-11_14h45.45.574,threat_forest,2021.2.3,59.95832888144586,True,31.0,0.41666666666666663,0.425,-0.9675925925925928,-1.0837962962962964,1,0,1.0,0.5849943811574302,0.0153323500884942,0.375,0.375,0.5,0.25,0.25,0.25,5.25,5.25,0.0,2.0,-1.0,5.0,0,1,0,1,0.0153323500884942
3.0,0.0,3.0,0.0,1.0,0.0,1.0,0.0,,,,right,1.0784403001889586,122.05513260001317,ox19,111.69774940004572,115.2048110999167,122.05513260001317,,True,3.0,['r'],False,0.375,0.5,0.25,1.0,2.0,0.9850568223215076,0.0791642167699067,succ_gain,1.0,5.0,121.48830260010436,,ox19,2,2022-05-11_14h45.45.574,threat_forest,2021.2.3,59.95832888144586,True,31.0,0.41666666666666663,0.425,-0.9675925925925928,-1.0837962962962964,1,0,1.0,0.07551583083091412,0.0791642167699067,0.375,0.375,0.5,0.25,0.25,0.25,3.25,3.25,0.0,2.0,-1.0,3.0,0,1,0,1,0.0791642167699067
3.0,0.0,3.0,0.0,2.0,0.0,2.0,0.0,,,,right,1.0423479001037776,128.17171340016648,ox19,111.69774940004572,115.2048110999167,128.17171340016648,,True,5.0,['r'],False,0.375,0.5,0.25,1.0,2.0,0.9850568223215076,0.0581486540615872,unsucc_cost,1.0,3.0,125.15485499985516,,ox19,2,2022-05-11_14h45.45.574,threat_forest,2021.2.3,59.95832888144586,True,31.0,0.41666666666666663,0.425,-0.9675925925925928,-1.0837962962962964,1,0,1.0,0.04147576486546997,0.0581486540615872,0.375,0.375,0.5,0.25,0.25,0.25,5.25,5.25,0.0,2.0,1.0,5.0,0,1,0,1,0.0581486540615872
3.0,0.0,3.0,0.0,3.0,0.0,3.0,0.0,,,,right,1.6941946996375918,133.6403394001536,ox19,133.6403394001536,,129.23857300030068,131.2383157000877,False,3.0,['r'],True,0.2592592592592592,0.3333333333333333,0.2222222222222222,2.0,2.0,0.9327883776363324,-0.011359909344652,wait_cost,0.0,2.0,131.2383157000877,,ox19,2,2022-05-11_14h45.45.574,threat_forest,2021.2.3,59.95832888144586,False,31.0,0.41666666666666663,0.425,-0.9675925925925928,-1.0837962962962964,0,0,0.0,0.5272075244763574,-0.011359909344652,0.2592592592592592,0.2592592592592592,0.3333333333333333,0.2222222222222222,-0.3333333333333335,-0.18518518518518556,2.8148148148148144,2.8148148148148144,1.0,2.0,-1.0,3.0,0,1,0,0,-0.011359909344652
3.0,0.0,3.0,0.0,4.0,0.0,4.0,0.0,,,,right,0.8546531000174582,140.55540629988536,ox19,135.35526539990678,137.35506400000304,140.55540629988536,,True,2.0,['r'],False,0.375,0.5,0.25,1.0,2.0,0.9850568223215076,0.0578703703703704,unsucc_cost,1.0,0.0,137.35506400000304,,ox19,2,2022-05-11_14h45.45.574,threat_forest,2021.2.3,59.95832888144586,True,31.0,0.41666666666666663,0.425,-0.9675925925925928,-1.0837962962962964,1,0,1.0,-0.15705962335019172,0.0578703703703704,0.375,0.375,0.5,0.25,0.25,0.25,2.25,2.25,0.0,2.0,-1.0,2.0,0,1,0,1,0.0578703703703704
4.0,0.0,4.0,0.0,0.0,0.0,0.0,0.0,145.06239950004965,148.5719717000611,,left,1.7082567000761628,150.9561538998969,ox19,145.06239950004965,148.5719717000611,150.9561538998969,,False,4.0,['r'],False,0.1875,0.25,0.25,2.0,1.0,0.895754137500101,-0.0017291066874999,wait_cost,1.0,3.0,,,ox19,2,2022-05-11_14h45.45.574,threat_forest,2021.2.3,59.95832888144586,False,57.0,0.4583333333333333,0.4375,-1.34375,-1.1556712962962963,0,0,0.0,0.5354733768581876,-0.0017291066874999,0.1875,0.1875,0.25,0.25,-1.0,-0.6875,3.3125,3.3125,0.0,1.0,-1.0,4.0,0,1,0,0,-0.0017291066874999
4.0,0.0,4.0,0.0,1.0,0.0,1.0,0.0,,,,left,1.1469187997281551,157.37276680022478,ox19,157.37276680022478,,152.6912584998645,154.70544160017744,True,3.0,['r'],True,0.4444444444444445,0.6666666666666666,0.3333333333333333,1.0,1.0,0.9656336071428248,0.0513734255734631,unsucc_cost,0.0,1.0,154.70544160017744,,ox19,2,2022-05-11_14h45.45.574,threat_forest,2021.2.3,59.95832888144586,True,57.0,0.4583333333333333,0.4375,-1.34375,-1.1556712962962963,1,1,1.0,0.1370790420302234,0.0513734255734631,0.4444444444444445,0.4444444444444445,0.6666666666666666,0.3333333333333333,0.0,0.0,3.0,3.0,1.0,1.0,-1.0,3.0,0,1,1,1,0.0513734255734631
4.0,0.0,4.0,0.0,2.0,0.0,2.0,0.0,,,,left,1.1905968002974987,163.00573430024087,ox19,163.00573430024087,,152.6912584998645,154.70544160017744,True,1.0,['r'],True,0.4444444444444445,0.6666666666666666,0.3333333333333333,1.0,1.0,0.9656336071428248,0.0687386779676624,succ_gain,0.0,2.0,160.5390453999862,,ox19,2,2022-05-11_14h45.45.574,threat_forest,2021.2.3,59.95832888144586,True,57.0,0.4583333333333333,0.4375,-1.34375,-1.1556712962962963,1,1,1.0,0.17445469426293728,0.0687386779676624,1.0,0.4444444444444445,0.6666666666666666,0.3333333333333333,0.0,0.0,1.0,1.0,1.0,1.0,-1.0,1.0,1,1,1,1,0.625
4.0,0.0,4.0,0.0,3.0,0.0,3.0,0.0,,,,left,1.8517636000178757,167.85644100001082,ox19,164.22260509990156,166.2223192001693,167.85644100001082,,False,2.0,['r'],False,0.1875,0.25,0.25,2.0,1.0,0.895754137500101,-0.0403212559076002,wait_cost,1.0,1.0,166.2223192001693,,ox19,2,2022-05-11_14h45.45.574,threat_forest,2021.2.3,59.95832888144586,False,57.0,0.4583333333333333,0.4375,-1.34375,-1.1556712962962963,0,0,0.0,0.616138482297887,-0.0403212559076002,0.1875,0.1875,0.25,0.25,-1.0,-0.6875,1.3125,1.3125,0.0,1.0,1.0,2.0,0,1,0,0,-0.0403212559076002
4.0,0.0,4.0,0.0,4.0,0.0,4.0,0.0,,,,right,1.0839205998927357,174.45653290022165,ox19,164.22260509990156,166.2223192001693,174.45653290022165,,True,1.0,['r'],False,0.1875,0.25,0.25,2.0,1.0,0.895754137500101,0.0712890625,unsucc_cost,1.0,0.0,171.73949060030282,,ox19,2,2022-05-11_14h45.45.574,threat_forest,2021.2.3,59.95832888144586,True,57.0,0.4583333333333333,0.4375,-1.34375,-1.1556712962962963,0,0,1.0,0.08058465300331305,0.0712890625,1.0,0.1875,0.25,0.25,-1.0,-0.6875,0.3125,1.0,0.0,1.0,-1.0,1.0,1,1,0,0,0.625
5.0,0.0,5.0,0.0,0.0,0.0,0.0,0.0,181.1942143002525,184.70578359998763,,left,1.8596773999743164,187.0732879000716,ox19,181.1942143002525,184.70578359998763,187.0732879000716,,False,4.0,['p'],False,0.2040816326530612,0.2857142857142857,0.2857142857142857,2.0,2.0,0.9335459102197724,-0.0053173066993206,wait_cost,1.0,3.0,,,ox19,2,2022-05-11_14h45.45.574,threat_forest,2021.2.3,59.95832888144586,False,21.0,0.47619047619047616,0.46726190476190477,-1.012471655328798,-1.178110827664399,0,0,0.0,0.6204030318084787,-0.0053173066993206,0.2040816326530612,0.2040816326530612,0.2857142857142857,0.2857142857142857,-0.7142857142857144,-0.46938775510204067,3.5306122448979593,3.5306122448979593,0.0,2.0,-1.0,4.0,0,1,0,0,-0.0053173066993206
5.0,0.0,5.0,0.0,1.0,0.0,1.0,0.0,,,,left,1.869226299691945,193.7228677002713,ox19,181.1942143002525,184.70578359998763,193.7228677002713,,False,3.0,['p'],False,0.2040816326530612,0.2857142857142857,0.2857142857142857,2.0,2.0,0.9335459102197724,-0.0017432505178245,wait_cost,1.0,2.0,190.9560936000198,,ox19,2,2022-05-11_14h45.45.574,threat_forest,2021.2.3,59.95832888144586,False,21.0,0.47619047619047616,0.46726190476190477,-1.012471655328798,-1.178110827664399,0,0,0.0,0.6255246017708023,-0.0017432505178245,0.2040816326530612,0.2040816326530612,0.2857142857142857,0.2857142857142857,-0.7142857142857144,-0.46938775510204067,2.5306122448979593,2.5306122448979593,0.0,2.0,-1.0,3.0,0,1,0,0,-0.0017432505178245
5.0,0.0,5.0,0.0,2.0,0.0,2.0,0.0,,,,right,1.628670800011605,200.4731111000292,ox19,181.1942143002525,184.70578359998763,200.4731111000292,,True,2.0,['p'],False,0.2040816326530612,0.2857142857142857,0.2857142857142857,2.0,2.0,0.9335459102197724,-0.0410602699792536,unsucc_cost,1.0,0.0,197.62267909990624,,ox19,2,2022-05-11_14h45.45.574,threat_forest,2021.2.3,59.95832888144586,True,21.0,0.47619047619047616,0.46726190476190477,-1.012471655328798,-1.178110827664399,0,0,1.0,0.487764222034627,-0.0410602699792536,0.2040816326530612,0.2040816326530612,0.2857142857142857,0.2857142857142857,-0.7142857142857144,-0.46938775510204067,1.5306122448979593,1.5306122448979593,0.0,2.0,-1.0,2.0,0,1,0,0,-0.0410602699792536
6.0,0.0,6.0,0.0,0.0,0.0,0.0,0.0,205.1788838999346,208.68951759999615,,left,1.683355299755931,209.3570559001528,ox19,209.3570559001528,,205.1788838999346,208.68951759999615,True,4.0,['p'],True,0.4444444444444445,0.6666666666666666,0.3333333333333333,1.0,1.0,0.9656336071428248,0.042368878985042,succ_gain,0.0,5.0,,,ox19,2,2022-05-11_14h45.45.574,threat_forest,2021.2.3,59.95832888144586,True,6.0,0.4833333333333333,0.4797619047619047,-1.145,-1.078735827664399,1,0,1.0,0.5207890038939755,0.042368878985042,0.4444444444444445,0.4444444444444445,0.6666666666666666,0.3333333333333333,0.0,0.0,4.0,4.0,1.0,1.0,-1.0,4.0,0,1,0,1,0.042368878985042
6.0,0.0,6.0,0.0,1.0,0.0,1.0,0.0,,,,left,1.5600413996726274,216.69329999992624,ox19,211.073330400046,213.0728434999473,216.69329999992624,,False,5.0,['p'],False,0.27,0.3,0.1,1.0,1.0,0.7963326591781347,0.0089877743882081,wait_cost,1.0,4.0,213.0728434999473,,ox19,2,2022-05-11_14h45.45.574,threat_forest,2021.2.3,59.95832888144586,False,6.0,0.4833333333333333,0.4797619047619047,-1.145,-1.078735827664399,0,0,0.0,0.4447123591609968,0.0089877743882081,0.27,0.27,0.3,0.1,-0.3999999999999999,-0.29000000000000004,4.71,4.71,0.0,1.0,1.0,5.0,0,1,0,0,0.0089877743882081
6.0,0.0,6.0,0.0,2.0,0.0,2.0,0.0,,,,left,1.140334699768573,223.0566611001268,ox19,223.0566611001268,,218.27341319993135,220.2730487002991,True,4.0,['p'],True,0.4444444444444445,0.6666666666666666,0.3333333333333333,1.0,1.0,0.9656336071428248,0.0584692485569717,fight_cost,0.0,1.0,220.2730487002991,,ox19,2,2022-05-11_14h45.45.574,threat_forest,2021.2.3,59.95832888144586,True,6.0,0.4833333333333333,0.4797619047619047,-1.145,-1.078735827664399,1,0,1.0,0.13132181560366984,0.0584692485569717,0.4444444444444445,0.4444444444444445,0.6666666666666666,0.3333333333333333,0.0,0.0,4.0,4.0,1.0,1.0,-1.0,4.0,0,1,0,1,0.0584692485569717
6.0,0.0,6.0,0.0,3.0,0.0,3.0,0.0,,,,left,1.1979550002142787,229.7405852000229,ox19,229.7405852000229,,218.27341319993135,220.2730487002991,True,1.0,['p'],True,0.4444444444444445,0.6666666666666666,0.3333333333333333,1.0,1.0,0.9656336071428248,0.0821341601889955,fight_cost,0.0,0.0,226.22331700008365,,ox19,2,2022-05-11_14h45.45.574,threat_forest,2021.2.3,59.95832888144586,True,6.0,0.4833333333333333,0.4797619047619047,-1.145,-1.078735827664399,1,0,1.0,0.18061593656229516,0.0821341601889955,1.0,0.4444444444444445,0.6666666666666666,0.3333333333333333,0.0,0.0,1.0,1.0,1.0,1.0,-1.0,1.0,1,1,0,1,0.625
7.0,0.0,7.0,0.0,0.0,0.0,0.0,0.0,234.5623042001389,238.07324759988117,,left,1.219800100196153,240.90750620001927,ox19,240.90750620001927,,234.5623042001389,238.07324759988117,True,4.0,['p'],True,0.6,0.6,0.0,0.0,2.0,0.6126016192893442,0.1103326303155006,unsucc_cost,0.0,2.0,,,ox19,2,2022-05-11_14h45.45.574,threat_forest,2021.2.3,59.95832888144586,True,47.0,0.6333333333333333,0.5583333333333333,-0.07777777777777783,-0.611388888888889,1,1,1.0,0.19868699302167553,0.1103326303155006,0.6,0.6,0.6,0.0,1.4,1.4,5.4,5.4,1.0,2.0,-1.0,4.0,0,1,1,1,0.1103326303155006
7.0,0.0,7.0,0.0,1.0,0.0,1.0,0.0,,,,left,1.0205232999287546,247.20743580022827,ox19,247.20743580022827,,234.5623042001389,238.07324759988117,True,2.0,['p'],True,0.6,0.6,0.0,0.0,2.0,0.6126016192893442,0.0858461728395062,succ_gain,0.0,4.0,244.15692500025037,,ox19,2,2022-05-11_14h45.45.574,threat_forest,2021.2.3,59.95832888144586,True,47.0,0.6333333333333333,0.5583333333333333,-0.07777777777777783,-0.611388888888889,1,1,1.0,0.020315534882429834,0.0858461728395062,0.6,0.6,0.6,0.0,1.4,1.4,3.4,3.4,1.0,2.0,-1.0,2.0,0,1,1,1,0.0858461728395062
7.0,0.0,7.0,0.0,2.0,0.0,2.0,0.0,,,,left,1.0597365000285208,252.3071653000079,ox19,252.3071653000079,,234.5623042001389,238.07324759988117,True,4.0,['p'],True,0.6,0.6,0.0,0.0,2.0,0.6126016192893442,0.1135037037037036,succ_gain,0.0,6.0,250.25685340026396,,ox19,2,2022-05-11_14h45.45.574,threat_forest,2021.2.3,59.95832888144586,True,47.0,0.6333333333333333,0.5583333333333333,-0.07777777777777783,-0.611388888888889,1,1,1.0,0.05802029234287952,0.1135037037037036,0.6,0.6,0.6,0.0,1.4,1.4,5.4,5.4,1.0,2.0,1.0,4.0,0,1,1,1,0.1135037037037036
7.0,0.0,7.0,0.0,3.0,0.0,3.0,0.0,,,,right,1.3102710000239313,259.1241494999267,ox19,259.1241494999267,,234.5623042001389,238.07324759988117,False,6.0,['p'],True,0.6,0.6,0.0,0.0,2.0,0.6126016192893442,-0.0864691358024691,wait_cost,0.0,5.0,255.39020729996264,,ox19,2,2022-05-11_14h45.45.574,threat_forest,2021.2.3,59.95832888144586,False,47.0,0.6333333333333333,0.5583333333333333,-0.07777777777777783,-0.611388888888889,1,1,0.0,0.2702339860656369,-0.0864691358024691,0.0,0.6,0.6,0.0,1.4,1.4,7.4,7.0,1.0,2.0,1.0,6.0,0,0,1,1,-0.84
7.0,0.0,7.0,0.0,4.0,0.0,4.0,0.0,,,,right,0.8372649000957608,265.12407749984413,ox19,265.12407749984413,,234.5623042001389,238.07324759988117,False,5.0,['p'],True,0.6,0.6,0.0,0.0,2.0,0.6126016192893442,-0.126,wait_cost,0.0,4.0,262.4570627002977,,ox19,2,2022-05-11_14h45.45.574,threat_forest,2021.2.3,59.95832888144586,False,47.0,0.6333333333333333,0.5583333333333333,-0.07777777777777783,-0.611388888888889,1,1,0.0,-0.17761477099468145,-0.126,0.0,0.6,0.6,0.0,1.4,1.4,6.4,6.4,1.0,2.0,-1.0,5.0,0,0,1,1,-0.84
7.0,0.0,7.0,0.0,5.0,0.0,5.0,0.0,,,,left,1.3598172003403306,269.624861900229,ox19,265.9909973000176,267.9904868998565,269.624861900229,,False,4.0,['p'],False,0.4444444444444445,0.6666666666666666,0.3333333333333333,2.0,2.0,0.9656336071428248,-0.2567901234567901,wait_cost,1.0,3.0,267.9904868998565,,ox19,2,2022-05-11_14h45.45.574,threat_forest,2021.2.3,59.95832888144586,False,47.0,0.6333333333333333,0.5583333333333333,-0.07777777777777783,-0.611388888888889,1,0,0.0,0.30735027919946073,-0.2567901234567901,0.0,0.4444444444444445,0.6666666666666666,0.3333333333333333,0.6666666666666665,0.4444444444444444,4.444444444444445,4.444444444444445,0.0,2.0,-1.0,4.0,0,0,0,1,-0.84
7.0,0.0,7.0,0.0,6.0,0.0,6.0,0.0,,,,right,1.278031099587679,274.87460590014234,ox19,274.87460590014234,,271.0073728002608,273.00716330017895,False,3.0,['p'],True,0.6,0.6,0.0,0.0,2.0,0.6126016192893442,-0.1911111111111111,wait_cost,0.0,2.0,273.00716330017895,,ox19,2,2022-05-11_14h45.45.574,threat_forest,2021.2.3,59.95832888144586,False,47.0,0.6333333333333333,0.5583333333333333,-0.07777777777777783,-0.611388888888889,1,1,0.0,0.24532069023491068,-0.1911111111111111,0.0,0.6,0.6,0.0,1.4,1.4,4.4,4.4,1.0,2.0,-1.0,3.0,0,0,1,1,-0.84
7.0,0.0,7.0,0.0,7.0,0.0,7.0,0.0,,,,right,0.8990545999258757,279.6581580000929,ox19,279.6581580000929,,271.0073728002608,273.00716330017895,False,2.0,['p'],True,0.6,0.6,0.0,0.0,2.0,0.6126016192893442,-0.4,wait_cost,0.0,1.0,278.1739087002352,,ox19,2,2022-05-11_14h45.45.574,threat_forest,2021.2.3,59.95832888144586,False,47.0,0.6333333333333333,0.5583333333333333,-0.07777777777777783,-0.611388888888889,1,1,0.0,-0.10641151228815302,-0.4,0.0,0.6,0.6,0.0,1.4,1.4,3.4,3.4,1.0,2.0,-1.0,2.0,0,0,1,1,-0.84
8.0,0.0,8.0,0.0,0.0,0.0,0.0,0.0,283.32703260006383,286.8407545001246,,left,1.0761335999704895,289.9413799000904,ox19,283.32703260006383,286.8407545001246,289.9413799000904,,False,5.0,['p'],False,0.3333333333333333,0.3333333333333333,0.0,0.0,2.0,0.5793801642856949,0.0474629650798488,wait_cost,1.0,4.0,,,ox19,2,2022-05-11_14h45.45.574,threat_forest,2021.2.3,59.95832888144586,False,68.0,0.5,0.5666666666666667,-1.2222222222222223,-0.6500000000000001,0,0,0.0,0.07337461757328531,0.0474629650798488,0.3333333333333333,0.3333333333333333,0.3333333333333333,0.0,0.33333333333333315,0.33333333333333315,5.333333333333333,5.333333333333333,0.0,2.0,-1.0,5.0,0,1,0,0,0.0474629650798488
8.0,0.0,8.0,0.0,1.0,0.0,1.0,0.0,,,,left,1.038259600289166,294.8078125999309,ox19,294.8078125999309,,291.0411300002597,293.0407767998986,True,4.0,['p'],True,0.2222222222222222,0.6666666666666666,0.6666666666666666,2.0,2.0,0.77250688571426,0.015545616775898,unsucc_cost,0.0,2.0,293.0407767998986,,ox19,2,2022-05-11_14h45.45.574,threat_forest,2021.2.3,59.95832888144586,True,68.0,0.5,0.5666666666666667,-1.2222222222222223,-0.6500000000000001,0,0,1.0,0.037545850092444814,0.015545616775898,0.2222222222222222,0.2222222222222222,0.6666666666666666,0.6666666666666666,-0.3333333333333335,-0.7777777777777779,3.2222222222222223,3.2222222222222223,1.0,2.0,-1.0,4.0,0,1,0,0,0.015545616775898
8.0,0.0,8.0,0.0,2.0,0.0,2.0,0.0,,,,left,1.595158000010997,298.9250002000481,ox19,298.9250002000481,,291.0411300002597,293.0407767998986,True,2.0,['p'],True,0.2222222222222222,0.6666666666666666,0.6666666666666666,2.0,2.0,0.77250688571426,-0.0090020576131686,fight_cost,0.0,0.0,297.87422110000625,,ox19,2,2022-05-11_14h45.45.574,threat_forest,2021.2.3,59.95832888144586,True,68.0,0.5,0.5666666666666667,-1.2222222222222223,-0.6500000000000001,0,0,1.0,0.4669727908987561,-0.0090020576131686,0.2222222222222222,0.2222222222222222,0.6666666666666666,0.6666666666666666,-0.3333333333333335,-0.7777777777777779,1.222222222222222,1.222222222222222,1.0,2.0,-1.0,2.0,0,1,0,0,-0.0090020576131686
9.0,0.0,9.0,0.0,0.0,0.0,0.0,0.0,305.8301548999734,309.34101819992065,,right,1.5282492996193469,310.4746473999694,ox19,310.4746473999694,,305.8301548999734,309.34101819992065,False,5.0,['p'],True,0.3333333333333333,0.3333333333333333,0.0,0.0,2.0,0.5793801642856949,0.0388172421765338,wait_cost,0.0,4.0,,,ox19,2,2022-05-11_14h45.45.574,threat_forest,2021.2.3,59.95832888144586,False,40.0,0.35416666666666663,0.4270833333333333,-0.8958333333333335,-1.059027777777778,1,0,0.0,0.4241228316372728,0.0388172421765338,0.3333333333333333,0.3333333333333333,0.3333333333333333,0.0,0.33333333333333315,0.33333333333333315,5.333333333333333,5.333333333333333,1.0,2.0,-1.0,5.0,0,1,0,1,0.0388172421765338
9.0,0.0,9.0,0.0,1.0,0.0,1.0,0.0,,,,left,2.147016800008714,314.5746884001419,ox19,314.5746884001419,,305.8301548999734,309.34101819992065,True,4.0,['p'],True,0.3333333333333333,0.3333333333333333,0.0,0.0,2.0,0.5793801642856949,0.0478477227835006,succ_gain,0.0,6.0,314.0249168998562,,ox19,2,2022-05-11_14h45.45.574,threat_forest,2021.2.3,59.95832888144586,True,40.0,0.35416666666666663,0.4270833333333333,-0.8958333333333335,-1.059027777777778,1,0,1.0,0.7640793437420029,0.0478477227835006,0.3333333333333333,0.3333333333333333,0.3333333333333333,0.0,0.33333333333333315,0.33333333333333315,4.333333333333333,4.333333333333333,1.0,2.0,-1.0,4.0,0,1,0,1,0.0478477227835006
9.0,0.0,9.0,0.0,2.0,0.0,2.0,0.0,,,,right,1.491214099805802,319.6749919001013,ox19,319.6749919001013,,305.8301548999734,309.34101819992065,False,6.0,['p'],True,0.3333333333333333,0.3333333333333333,0.0,0.0,2.0,0.5793801642856949,0.0553855895996093,wait_cost,0.0,5.0,318.7411548001692,,ox19,2,2022-05-11_14h45.45.574,threat_forest,2021.2.3,59.95832888144586,False,40.0,0.35416666666666663,0.4270833333333333,-0.8958333333333335,-1.059027777777778,1,0,0.0,0.39959062024636194,0.0553855895996093,0.3333333333333333,0.3333333333333333,0.3333333333333333,0.0,0.33333333333333315,0.33333333333333315,6.333333333333333,6.333333333333333,1.0,2.0,1.0,6.0,0,1,0,1,0.0553855895996093
9.0,0.0,9.0,0.0,3.0,0.0,3.0,0.0,,,,left,0.9305994999594986,326.82513070013374,ox19,326.82513070013374,,305.8301548999734,309.34101819992065,True,5.0,['p'],True,0.3333333333333333,0.3333333333333333,0.0,0.0,2.0,0.5793801642856949,0.1269486038773148,unsucc_cost,0.0,3.0,323.1911809002049,,ox19,2,2022-05-11_14h45.45.574,threat_forest,2021.2.3,59.95832888144586,True,40.0,0.35416666666666663,0.4270833333333333,-0.8958333333333335,-1.059027777777778,1,0,1.0,-0.07192627690302637,0.1269486038773148,0.3333333333333333,0.3333333333333333,0.3333333333333333,0.0,0.33333333333333315,0.33333333333333315,5.333333333333333,5.333333333333333,1.0,2.0,-1.0,5.0,0,1,0,1,0.1269486038773148
9.0,0.0,9.0,0.0,4.0,0.0,4.0,0.0,,,,left,1.2411668999120593,330.4253138001077,ox19,330.4253138001077,,305.8301548999734,309.34101819992065,True,3.0,['p'],True,0.3333333333333333,0.3333333333333333,0.0,0.0,2.0,0.5793801642856949,0.2178819444444443,unsucc_cost,0.0,1.0,329.77505439985543,,ox19,2,2022-05-11_14h45.45.574,threat_forest,2021.2.3,59.95832888144586,True,40.0,0.35416666666666663,0.4270833333333333,-0.8958333333333335,-1.059027777777778,1,0,1.0,0.2160519854247484,0.2178819444444443,0.3333333333333333,0.3333333333333333,0.3333333333333333,0.0,0.33333333333333315,0.33333333333333315,3.333333333333333,3.333333333333333,1.0,2.0,-1.0,3.0,0,1,0,1,0.2178819444444443
9.0,0.0,9.0,0.0,5.0,0.0,5.0,0.0,,,,left,0.647594400215894,335.25889520021155,ox19,335.25889520021155,,305.8301548999734,309.34101819992065,True,1.0,['p'],True,0.3333333333333333,0.3333333333333333,0.0,0.0,2.0,0.5793801642856949,0.3333333333333332,unsucc_cost,0.0,0.0,333.6913821999915,,ox19,2,2022-05-11_14h45.45.574,threat_forest,2021.2.3,59.95832888144586,True,40.0,0.35416666666666663,0.4270833333333333,-0.8958333333333335,-1.059027777777778,1,0,1.0,-0.4344907041958231,0.3333333333333332,1.0,0.3333333333333333,0.3333333333333333,0.0,0.33333333333333315,0.33333333333333315,1.333333333333333,1.333333333333333,1.0,2.0,-1.0,1.0,1,1,0,1,0.625
10.0,0.0,10.0,0.0,0.0,0.0,0.0,0.0,339.6014141999185,343.10830620024353,,right,2.2231848002411425,344.6423968998715,ox19,344.6423968998715,,339.6014141999185,343.10830620024353,False,4.0,['p'],True,0.375,0.5,0.25,1.0,1.0,0.9850568223215076,0.0365041143210029,wait_cost,0.0,3.0,,,ox19,2,2022-05-11_14h45.45.574,threat_forest,2021.2.3,59.95832888144586,False,3.0,0.35,0.3520833333333333,-1.4225000000000003,-1.159166666666667,1,1,0.0,0.7989407625395281,0.0365041143210029,0.375,0.375,0.5,0.25,-0.25,-0.125,3.875,3.875,1.0,1.0,-1.0,4.0,0,1,1,1,0.0365041143210029
10.0,0.0,10.0,0.0,1.0,0.0,1.0,0.0,,,,left,1.5446625002659855,349.6755506000481,ox19,349.6755506000481,,339.6014141999185,343.10830620024353,True,3.0,['p'],True,0.375,0.5,0.25,1.0,1.0,0.9850568223215076,0.0398144030189514,fight_cost,0.0,0.0,348.8915754999034,,ox19,2,2022-05-11_14h45.45.574,threat_forest,2021.2.3,59.95832888144586,True,3.0,0.35,0.3520833333333333,-1.4225000000000003,-1.159166666666667,1,1,1.0,0.43480544005702937,0.0398144030189514,0.375,0.375,0.5,0.25,-0.25,-0.125,2.875,2.875,1.0,1.0,-1.0,3.0,0,1,1,1,0.0398144030189514
11.0,0.0,11.0,0.0,0.0,0.0,0.0,0.0,354.32599289994687,357.8250758000649,,right,1.4731228998862207,359.2593404999934,ox19,359.2593404999934,,354.32599289994687,357.8250758000649,False,5.0,['p'],True,0.3333333333333333,0.3333333333333333,0.0,0.0,1.0,0.5793801642856949,0.0360091124884982,wait_cost,0.0,4.0,,,ox19,2,2022-05-11_14h45.45.574,threat_forest,2021.2.3,59.95832888144586,False,66.0,0.5,0.425,-1.5,-1.4612500000000002,1,0,0.0,0.38738456908906377,0.0360091124884982,0.3333333333333333,0.3333333333333333,0.3333333333333333,0.0,-2.220446049250313e-16,-2.220446049250313e-16,5.0,5.0,1.0,1.0,-1.0,5.0,0,1,0,1,0.0360091124884982
11.0,0.0,11.0,0.0,1.0,0.0,1.0,0.0,,,,right,1.9067410002462568,365.025778000243,ox19,365.025778000243,,354.32599289994687,357.8250758000649,False,4.0,['p'],True,0.3333333333333333,0.3333333333333333,0.0,0.0,1.0,0.5793801642856949,0.0435972666768277,wait_cost,0.0,3.0,362.75864320015535,,ox19,2,2022-05-11_14h45.45.574,threat_forest,2021.2.3,59.95832888144586,False,66.0,0.5,0.425,-1.5,-1.4612500000000002,1,0,0.0,0.6453955021067986,0.0435972666768277,0.3333333333333333,0.3333333333333333,0.3333333333333333,0.0,-2.220446049250313e-16,-2.220446049250313e-16,4.0,4.0,1.0,1.0,-1.0,4.0,0,1,0,1,0.0435972666768277
11.0,0.0,11.0,0.0,2.0,0.0,2.0,0.0,,,,right,1.5233064000494778,370.4423747002147,ox19,366.9590414999984,368.9586038002744,370.4423747002147,,True,3.0,['p'],False,0.2222222222222222,0.6666666666666666,0.6666666666666666,2.0,1.0,0.77250688571426,-0.0127092541787329,fight_cost,1.0,0.0,368.9586038002744,,ox19,2,2022-05-11_14h45.45.574,threat_forest,2021.2.3,59.95832888144586,True,66.0,0.5,0.425,-1.5,-1.4612500000000002,0,0,1.0,0.42088323558901775,-0.0127092541787329,0.2222222222222222,0.2222222222222222,0.6666666666666666,0.6666666666666666,-1.0,-1.0,2.0,2.0,0.0,1.0,-1.0,3.0,0,1,0,0,-0.0127092541787329
12.0,0.0,12.0,0.0,0.0,0.0,0.0,0.0,377.4223512001336,380.9112114002928,,left,1.2482723998837173,381.72640739986673,ox19,381.72640739986673,,377.4223512001336,380.9112114002928,True,4.0,['r'],True,0.5185185185185185,0.6666666666666666,0.2222222222222222,2.0,2.0,0.9327883776363328,0.0236802094142134,succ_gain,0.0,6.0,,,ox19,2,2022-05-11_14h45.45.574,threat_forest,2021.2.3,59.95832888144586,True,60.0,0.6458333333333333,0.5729166666666666,0.17592592592592587,-0.6620370370370371,1,0,1.0,0.22176051526758736,0.0236802094142134,0.5185185185185185,0.5185185185185185,0.6666666666666666,0.2222222222222222,0.9999999999999999,0.8518518518518517,4.851851851851852,4.851851851851852,1.0,2.0,-1.0,4.0,0,1,0,1,0.0236802094142134
12.0,0.0,12.0,0.0,1.0,0.0,1.0,0.0,,,,right,2.3030419000424445,388.3430722998455,ox19,388.3430722998455,,377.4223512001336,380.9112114002928,False,6.0,['r'],True,0.5185185185185185,0.6666666666666666,0.2222222222222222,2.0,2.0,0.9327883776363328,-0.0383052857519836,wait_cost,0.0,5.0,384.9921500999481,,ox19,2,2022-05-11_14h45.45.574,threat_forest,2021.2.3,59.95832888144586,False,60.0,0.6458333333333333,0.5729166666666666,0.17592592592592587,-0.6620370370370371,1,0,0.0,0.8342308143519181,-0.0383052857519836,0.5185185185185185,0.5185185185185185,0.6666666666666666,0.2222222222222222,0.9999999999999999,0.8518518518518517,6.851851851851852,6.851851851851852,1.0,2.0,1.0,6.0,0,1,0,1,-0.0383052857519836
12.0,0.0,12.0,0.0,2.0,0.0,2.0,0.0,,,,right,1.062939700204879,394.14311349997297,ox19,390.67597310012206,392.6756806001067,394.14311349997297,,True,5.0,['r'],False,0.625,0.625,0.0,0.0,2.0,0.6021808102656677,0.0812504672485717,succ_gain,1.0,6.0,392.6756806001067,,ox19,2,2022-05-11_14h45.45.574,threat_forest,2021.2.3,59.95832888144586,True,60.0,0.6458333333333333,0.5729166666666666,0.17592592592592587,-0.6620370370370371,1,1,1.0,0.06103837169709183,0.0812504672485717,0.625,0.625,0.625,0.0,1.5,1.5,6.5,6.5,0.0,2.0,-1.0,5.0,0,1,1,1,0.0812504672485717
12.0,0.0,12.0,0.0,3.0,0.0,3.0,0.0,,,,left,1.611486699897796,398.0927226999775,ox19,390.67597310012206,392.6756806001067,398.0927226999775,,False,6.0,['r'],False,0.625,0.625,0.0,0.0,2.0,0.6021808102656677,-0.0656055089377572,wait_cost,1.0,5.0,397.2257441999391,,ox19,2,2022-05-11_14h45.45.574,threat_forest,2021.2.3,59.95832888144586,False,60.0,0.6458333333333333,0.5729166666666666,0.17592592592592587,-0.6620370370370371,1,1,0.0,0.4771571689956087,-0.0656055089377572,0.0,0.625,0.625,0.0,1.5,1.5,7.5,7.0,0.0,2.0,1.0,6.0,0,0,1,1,-0.84
12.0,0.0,12.0,0.0,4.0,0.0,4.0,0.0,,,,right,1.0830542999319732,403.3796597002074,ox19,403.3796597002074,,399.7261590003036,401.725849899929,False,5.0,['r'],True,0.5185185185185185,0.6666666666666666,0.2222222222222222,2.0,2.0,0.9327883776363328,-0.1532649923157039,wait_cost,0.0,4.0,401.725849899929,,ox19,2,2022-05-11_14h45.45.574,threat_forest,2021.2.3,59.95832888144586,False,60.0,0.6458333333333333,0.5729166666666666,0.17592592592592587,-0.6620370370370371,1,0,0.0,0.07978510520330577,-0.1532649923157039,0.0,0.5185185185185185,0.6666666666666666,0.2222222222222222,0.9999999999999999,0.8518518518518517,5.851851851851852,5.851851851851852,1.0,2.0,-1.0,5.0,0,0,0,1,-0.84
12.0,0.0,12.0,0.0,5.0,0.0,5.0,0.0,,,,left,1.1193609000183642,407.9430984002538,ox19,404.49283799994737,406.4925302001648,407.9430984002538,,False,4.0,['r'],False,0.625,0.625,0.0,0.0,2.0,0.6021808102656677,-0.1506076388888889,wait_cost,1.0,3.0,406.4925302001648,,ox19,2,2022-05-11_14h45.45.574,threat_forest,2021.2.3,59.95832888144586,False,60.0,0.6458333333333333,0.5729166666666666,0.17592592592592587,-0.6620370370370371,1,1,0.0,0.11275789745500302,-0.1506076388888889,0.0,0.625,0.625,0.0,1.5,1.5,5.5,5.5,0.0,2.0,-1.0,4.0,0,0,1,1,-0.84
12.0,0.0,12.0,0.0,6.0,0.0,6.0,0.0,,,,left,0.6688490998931229,412.97649080026895,ox19,404.49283799994737,406.4925302001648,412.97649080026895,,False,3.0,['r'],False,0.625,0.625,0.0,0.0,2.0,0.6021808102656677,-0.1605902777777778,wait_cost,1.0,2.0,411.0926211001352,,ox19,2,2022-05-11_14h45.45.574,threat_forest,2021.2.3,59.95832888144586,False,60.0,0.6458333333333333,0.5729166666666666,0.17592592592592587,-0.6620370370370371,1,1,0.0,-0.4021968049944219,-0.1605902777777778,0.0,0.625,0.625,0.0,1.5,1.5,4.5,4.5,0.0,2.0,-1.0,3.0,0,0,1,1,-0.84
12.0,0.0,12.0,0.0,7.0,0.0,7.0,0.0,,,,left,0.6854495001025498,419.1099467002786,ox19,404.49283799994737,406.4925302001648,419.1099467002786,,False,2.0,['r'],False,0.625,0.625,0.0,0.0,2.0,0.6021808102656677,-0.375,wait_cost,1.0,1.0,415.6760706002824,,ox19,2,2022-05-11_14h45.45.574,threat_forest,2021.2.3,59.95832888144586,False,60.0,0.6458333333333333,0.5729166666666666,0.17592592592592587,-0.6620370370370371,1,1,0.0,-0.3776804513986923,-0.375,0.0,0.625,0.625,0.0,1.5,1.5,3.5,3.5,0.0,2.0,-1.0,2.0,0,0,1,1,-0.84
13.0,0.0,13.0,0.0,0.0,0.0,0.0,0.0,424.16657690005377,427.6761841000989,,right,1.3069286001846194,428.9430928002112,ox19,424.16657690005377,427.6761841000989,428.9430928002112,,True,4.0,['r'],False,0.4081632653061224,0.5714285714285714,0.2857142857142857,2.0,2.0,0.9885754083994552,0.0102904310319958,fight_cost,1.0,1.0,,,ox19,2,2022-05-11_14h45.45.574,threat_forest,2021.2.3,59.95832888144586,True,64.0,0.5357142857142857,0.5907738095238095,-0.326530612244898,-0.07530234315948606,0,0,1.0,0.26767980436993954,0.0102904310319958,0.4081632653061224,0.4081632653061224,0.5714285714285714,0.2857142857142857,0.4285714285714285,0.346938775510204,4.346938775510204,4.346938775510204,0.0,2.0,-1.0,4.0,0,1,0,0,0.0102904310319958
13.0,0.0,13.0,0.0,1.0,0.0,1.0,0.0,,,,left,1.35025139991194,434.9102252000012,ox19,434.9102252000012,,430.2768576000817,432.2763630002737,True,1.0,['r'],True,0.5,0.5,0.0,0.0,2.0,0.6309297535714574,0.2351721525437304,succ_gain,0.0,3.0,432.2763630002737,,ox19,2,2022-05-11_14h45.45.574,threat_forest,2021.2.3,59.95832888144586,True,64.0,0.5357142857142857,0.5907738095238095,-0.326530612244898,-0.07530234315948606,1,0,1.0,0.3002907972701372,0.2351721525437304,1.0,0.5,0.5,0.0,1.0,1.0,2.0,2.0,1.0,2.0,-1.0,1.0,1,1,0,1,0.625
13.0,0.0,13.0,0.0,2.0,0.0,2.0,0.0,,,,right,1.5061119999736547,439.9269175999798,ox19,436.29324290016666,438.2930298000574,439.9269175999798,,True,3.0,['r'],False,0.4081632653061224,0.5714285714285714,0.2857142857142857,2.0,2.0,0.9885754083994552,0.0835735767917227,fight_cost,1.0,0.0,438.2930298000574,,ox19,2,2022-05-11_14h45.45.574,threat_forest,2021.2.3,59.95832888144586,True,64.0,0.5357142857142857,0.5907738095238095,-0.326530612244898,-0.07530234315948606,0,0,1.0,0.40953149578486553,0.0835735767917227,0.4081632653061224,0.4081632653061224,0.5714285714285714,0.2857142857142857,0.4285714285714285,0.346938775510204,3.3469387755102042,3.3469387755102042,0.0,2.0,1.0,3.0,0,1,0,0,0.0835735767917227
14.0,0.0,14.0,0.0,0.0,0.0,0.0,0.0,445.41942710010335,448.92649149987847,,right,1.5500737996771932,449.9440009999089,ox19,449.9440009999089,,445.41942710010335,448.92649149987847,False,5.0,['p'],True,0.32,0.4,0.2,1.0,1.0,0.9455672104350704,0.029786704162101,wait_cost,0.0,4.0,,,ox19,2,2022-05-11_14h45.45.574,threat_forest,2021.2.3,59.95832888144586,False,48.0,0.3111111111111111,0.4234126984126984,-1.3792592592592592,-0.8528949357520785,0,0,0.0,0.4383025424926702,0.029786704162101,0.32,0.32,0.4,0.2,-0.3999999999999999,-0.24,4.76,4.76,1.0,1.0,-1.0,5.0,0,1,0,0,0.029786704162101
14.0,0.0,14.0,0.0,1.0,0.0,1.0,0.0,,,,left,1.6586450999602675,454.095242400188,ox19,451.5268349000253,453.526606600266,454.095242400188,,False,4.0,['p'],False,0.1975308641975308,0.2222222222222222,0.1111111111111111,1.0,1.0,0.7461067557824965,-0.001083293741359,wait_cost,1.0,3.0,453.526606600266,,ox19,2,2022-05-11_14h45.45.574,threat_forest,2021.2.3,59.95832888144586,False,48.0,0.3111111111111111,0.4234126984126984,-1.3792592592592592,-0.8528949357520785,0,0,0.0,0.5060010642487062,-0.001083293741359,0.1975308641975308,0.1975308641975308,0.2222222222222222,0.1111111111111111,-0.6666666666666667,-0.5185185185185184,3.481481481481482,3.481481481481482,0.0,1.0,-1.0,4.0,0,1,0,0,-0.001083293741359
14.0,0.0,14.0,0.0,2.0,0.0,2.0,0.0,,,,left,1.5861920998431742,461.16086120018736,ox19,461.16086120018736,,455.776887900196,457.7766908002086,True,3.0,['p'],True,0.32,0.4,0.2,1.0,1.0,0.9455672104350704,0.0374973431137762,unsucc_cost,0.0,1.0,457.7766908002086,,ox19,2,2022-05-11_14h45.45.574,threat_forest,2021.2.3,59.95832888144586,True,48.0,0.3111111111111111,0.4234126984126984,-1.3792592592592592,-0.8528949357520785,0,0,1.0,0.4613362380993736,0.0374973431137762,0.32,0.32,0.4,0.2,-0.3999999999999999,-0.24,2.76,2.76,1.0,1.0,-1.0,3.0,0,1,0,0,0.0374973431137762
14.0,0.0,14.0,0.0,3.0,0.0,3.0,0.0,,,,right,1.65942299971357,467.77708620019257,ox19,462.7769527998753,464.77679869998246,467.77708620019257,,True,1.0,['p'],False,0.1975308641975308,0.2222222222222222,0.1111111111111111,1.0,1.0,0.7461067557824965,0.0209731064269448,unsucc_cost,1.0,0.0,464.77679869998246,,ox19,2,2022-05-11_14h45.45.574,threat_forest,2021.2.3,59.95832888144586,True,48.0,0.3111111111111111,0.4234126984126984,-1.3792592592592592,-0.8528949357520785,0,0,1.0,0.5064699514108661,0.0209731064269448,1.0,0.1975308641975308,0.2222222222222222,0.1111111111111111,-0.6666666666666667,-0.5185185185185184,0.4814814814814816,1.0,0.0,1.0,-1.0,1.0,1,1,0,0,0.625
15.0,0.0,15.0,0.0,0.0,0.0,0.0,0.0,472.3296320000664,475.84348700009286,,left,1.484802300110459,478.8608889998868,ox19,472.3296320000664,475.84348700009286,478.8608889998868,,False,5.0,['p'],False,0.25,0.25,0.0,0.0,1.0,0.5118595071429148,0.0161331298904485,wait_cost,1.0,4.0,,,ox19,2,2022-05-11_14h45.45.574,threat_forest,2021.2.3,59.95832888144586,False,20.0,0.4583333333333333,0.3847222222222222,-1.625,-1.5021296296296296,1,0,0.0,0.39528163215316486,0.0161331298904485,0.25,0.25,0.25,0.0,-0.25,-0.25,4.75,4.75,0.0,1.0,-1.0,5.0,0,1,0,1,0.0161331298904485
15.0,0.0,15.0,0.0,1.0,0.0,1.0,0.0,,,,left,2.0825887001119554,483.66054109996185,ox19,472.3296320000664,475.84348700009286,483.66054109996185,,False,4.0,['p'],False,0.25,0.25,0.0,0.0,1.0,0.5118595071429148,0.0222806905508626,wait_cost,1.0,3.0,482.3771446002647,,ox19,2,2022-05-11_14h45.45.574,threat_forest,2021.2.3,59.95832888144586,False,20.0,0.4583333333333333,0.3847222222222222,-1.625,-1.5021296296296296,1,0,0.0,0.7336116872427757,0.0222806905508626,0.25,0.25,0.25,0.0,-0.25,-0.25,3.75,3.75,0.0,1.0,-1.0,4.0,0,1,0,1,0.0222806905508626
15.0,0.0,15.0,0.0,2.0,0.0,2.0,0.0,,,,right,2.6282100998796523,490.24426779989153,ox19,472.3296320000664,475.84348700009286,490.24426779989153,,True,3.0,['p'],False,0.25,0.25,0.0,0.0,1.0,0.5118595071429148,0.0232278910774843,unsucc_cost,1.0,1.0,487.76042940001935,,ox19,2,2022-05-11_14h45.45.574,threat_forest,2021.2.3,59.95832888144586,True,20.0,0.4583333333333333,0.3847222222222222,-1.625,-1.5021296296296296,1,0,1.0,0.9663030441085535,0.0232278910774843,0.25,0.25,0.25,0.0,-0.25,-0.25,2.75,2.75,0.0,1.0,-1.0,3.0,0,1,0,1,0.0232278910774843
15.0,0.0,15.0,0.0,3.0,0.0,3.0,0.0,,,,right,0.8108064997941256,497.3779821000062,ox19,472.3296320000664,475.84348700009286,497.3779821000062,,True,1.0,['p'],False,0.25,0.25,0.0,0.0,1.0,0.5118595071429148,0.01993781614369,unsucc_cost,1.0,0.0,494.8938680002466,,ox19,2,2022-05-11_14h45.45.574,threat_forest,2021.2.3,59.95832888144586,True,20.0,0.4583333333333333,0.3847222222222222,-1.625,-1.5021296296296296,1,0,1.0,-0.20972584791678242,0.01993781614369,1.0,0.25,0.25,0.0,-0.25,-0.25,0.75,1.0,0.0,1.0,-1.0,1.0,1,1,0,1,0.625
16.0,0.0,16.0,0.0,0.0,0.0,0.0,0.0,503.7507945001125,507.2605707002804,,left,1.7296327999792993,510.7952459002845,ox19,510.7952459002845,,503.7507945001125,507.2605707002804,True,5.0,['r'],True,0.4081632653061224,0.5714285714285714,0.2857142857142857,2.0,2.0,0.9885754083994552,-0.0170150236195817,succ_gain,0.0,6.0,,,ox19,2,2022-05-11_14h45.45.574,threat_forest,2021.2.3,59.95832888144586,True,14.0,0.5357142857142857,0.49702380952380953,-0.326530612244898,-0.9757653061224489,1,0,1.0,0.5479091316333198,-0.0170150236195817,0.4081632653061224,0.4081632653061224,0.5714285714285714,0.2857142857142857,0.4285714285714285,0.346938775510204,5.346938775510204,5.346938775510204,1.0,2.0,-1.0,5.0,0,1,0,1,-0.0170150236195817
16.0,0.0,16.0,0.0,1.0,0.0,1.0,0.0,,,,right,1.325447800103575,516.4277985999361,ox19,516.4277985999361,,503.7507945001125,507.2605707002804,False,6.0,['r'],True,0.4081632653061224,0.5714285714285714,0.2857142857142857,2.0,2.0,0.9885754083994552,-0.0789184913550894,wait_cost,0.0,5.0,514.5441046999767,,ox19,2,2022-05-11_14h45.45.574,threat_forest,2021.2.3,59.95832888144586,False,14.0,0.5357142857142857,0.49702380952380953,-0.326530612244898,-0.9757653061224489,1,0,0.0,0.2817503646840978,-0.0789184913550894,0.4081632653061224,0.4081632653061224,0.5714285714285714,0.2857142857142857,0.4285714285714285,0.346938775510204,6.346938775510204,6.346938775510204,1.0,2.0,1.0,6.0,0,1,0,1,-0.0789184913550894
16.0,0.0,16.0,0.0,2.0,0.0,2.0,0.0,,,,left,0.8975454000756145,521.7783241001889,ox19,521.7783241001889,,503.7507945001125,507.2605707002804,True,5.0,['r'],True,0.4081632653061224,0.5714285714285714,0.2857142857142857,2.0,2.0,0.9885754083994552,-0.0126763486945585,fight_cost,0.0,2.0,519.7775437003002,,ox19,2,2022-05-11_14h45.45.574,threat_forest,2021.2.3,59.95832888144586,True,14.0,0.5357142857142857,0.49702380952380953,-0.326530612244898,-0.9757653061224489,1,0,1.0,-0.10809157485661587,-0.0126763486945585,0.4081632653061224,0.4081632653061224,0.5714285714285714,0.2857142857142857,0.4285714285714285,0.346938775510204,5.346938775510204,5.346938775510204,1.0,2.0,-1.0,5.0,0,1,0,1,-0.0126763486945585
16.0,0.0,16.0,0.0,3.0,0.0,3.0,0.0,,,,left,1.1143759996630251,527.2281458000652,ox19,527.2281458000652,,503.7507945001125,507.2605707002804,True,2.0,['r'],True,0.4081632653061224,0.5714285714285714,0.2857142857142857,2.0,2.0,0.9885754083994552,0.00099939757244,fight_cost,0.0,0.0,524.694327800069,,ox19,2,2022-05-11_14h45.45.574,threat_forest,2021.2.3,59.95832888144586,True,14.0,0.5357142857142857,0.49702380952380953,-0.326530612244898,-0.9757653061224489,1,0,1.0,0.1082946066964696,0.00099939757244,0.4081632653061224,0.4081632653061224,0.5714285714285714,0.2857142857142857,0.4285714285714285,0.346938775510204,2.3469387755102042,2.3469387755102042,1.0,2.0,-1.0,2.0,0,1,0,1,0.00099939757244
17.0,0.0,17.0,0.0,0.0,0.0,0.0,0.0,533.5314428000711,537.0445936000906,,right,1.5911879003979266,540.6286784000695,ox19,533.5314428000711,537.0445936000906,540.6286784000695,,True,5.0,['r'],False,0.2222222222222222,0.6666666666666666,0.6666666666666666,2.0,2.0,0.77250688571426,-0.023281607963558,fight_cost,1.0,2.0,,,ox19,2,2022-05-11_14h45.45.574,threat_forest,2021.2.3,59.95832888144586,True,34.0,0.4583333333333333,0.49702380952380953,-1.3888888888888888,-0.8577097505668934,0,0,1.0,0.46448084445501303,-0.023281607963558,0.2222222222222222,0.2222222222222222,0.6666666666666666,0.6666666666666666,-0.3333333333333335,-0.7777777777777779,4.222222222222222,4.222222222222222,0.0,2.0,-1.0,5.0,0,1,0,0,-0.023281607963558
17.0,0.0,17.0,0.0,1.0,0.0,1.0,0.0,,,,right,2.513322100043297,545.8121366002597,ox19,533.5314428000711,537.0445936000906,545.8121366002597,,True,2.0,['r'],False,0.2222222222222222,0.6666666666666666,0.6666666666666666,2.0,2.0,0.77250688571426,0.0025834334843665,fight_cost,1.0,0.0,544.244570299983,,ox19,2,2022-05-11_14h45.45.574,threat_forest,2021.2.3,59.95832888144586,True,34.0,0.4583333333333333,0.49702380952380953,-1.3888888888888888,-0.8577097505668934,0,0,1.0,0.9216054238629725,0.0025834334843665,0.2222222222222222,0.2222222222222222,0.6666666666666666,0.6666666666666666,-0.3333333333333335,-0.7777777777777779,1.222222222222222,1.222222222222222,0.0,2.0,-1.0,2.0,0,1,0,0,0.0025834334843665
