miniblock.thisRepN,miniblock.thisTrialN,miniblock.thisN,miniblock.thisIndex,day.thisRepN,day.thisTrialN,day.thisN,day.thisIndex,forest.started,fixation_forest.started,fixation_forest.stopped,key_resp.keys,key_resp.rt,key_resp.started,Subject_ID,weather_left.started,weather_left.stopped,weather_right.started,weather_right.stopped,foraging T/F,in_LP,p/r heuristic,good_weather.T/F,p_succ_correct,p_succ_uncorrected,r_threat,n_oponents,gain_if_succ,weather_entropy,OP_value_difference,action_outcome,forest_side_L=0_R=1,out_LP,fixation_day.started,fixation_day.stopped,participant,session,date,expName,psychopyVersion,frameRate,foraging T/F NaNs,fora_NR,forest_mean_p,mvt_cutoff_p,forest_mean_ev,mvt_cutoff_ev,mvt_policy_eg,mvt_policy_p,fora_response,logRT,optimal policy,$\mathit{p}$ success cor + cap,$\mathit{p}$ success cor,$\mathit{p}$ success,risk threat encounter,expected gain naive,expected gain correct,expected state no bounds,expected state with bounds,weather type,gain magnitude,win stay lose shift,continuous energy state,binary energy state,$\mathit{p}$ success based MVT,expected gain based MVT
0.0,0.0,0.0,0.0,0.0,0.0,0.0,0.0,51.753421899979,55.26262749999296,None,left,2.230377099942416,57.26937460002955,uk5,57.26937460002955,None,51.753421899979,55.26262749999296,True,4.0,['p'],True,0.2448979591836734,0.2857142857142857,0.1428571428571428,1.0,1.0,0.8400769154957735,0.0043475630520346,unsucc_cost,0.0,2.0,,,uk5,1,2022-04-08_15h17.55.971,threat_forest,2021.2.3,60.134532979497365,True,69.0,0.39285714285714285,0.39285714285714285,-1.2665816326530612,-1.2665816326530612,0,0,1,0.8021706742888987,0.0043475630520346,0.2448979591836734,0.2448979591836734,0.2857142857142857,0.8571428571428572,-1.5714285714285712,-1.4081632653061225,2.5918367346938775,2.5918367346938775,1.0,1.0,,4.0,0,0,0
0.0,0.0,0.0,0.0,1.0,0.0,1.0,0.0,,,,left,2.665066199959256,64.05943499994464,uk5,64.05943499994464,None,51.753421899979,55.26262749999296,True,2.0,['p'],True,0.2448979591836734,0.2857142857142857,0.1428571428571428,1.0,1.0,0.8400769154957735,-0.0014266957065605,unsucc_cost,0.0,0.0,61.53556460002437,None,uk5,1,2022-04-08_15h17.55.971,threat_forest,2021.2.3,60.134532979497365,True,69.0,0.39285714285714285,0.39285714285714285,-1.2665816326530612,-1.2665816326530612,0,0,1,0.9802288978193273,-0.0014266957065605,0.2448979591836734,0.2448979591836734,0.2857142857142857,0.8571428571428572,-1.5714285714285712,-1.4081632653061225,0.5918367346938775,0.5918367346938775,1.0,1.0,-1.0,2.0,0,0,0
1.0,0.0,1.0,0.0,0.0,0.0,0.0,0.0,72.38952520000748,75.88887030002661,None,None,,78.14889299997594,uk5,72.38952520000748,75.88887030002661,78.14889299997594,None,False,4.0,['r'],False,0.2222222222222222,0.6666666666666666,0.6666666666666666,2.0,1.0,0.77250688571426,-0.0341076534259416,wait_cost,1.0,3.0,,,uk5,1,2022-04-08_15h17.55.971,threat_forest,2021.2.3,60.134532979497365,None,30.0,0.5833333333333333,0.488095238095238,-1.25,-1.2582908163265305,0,0,0,,-0.0341076534259416,0.2222222222222222,0.2222222222222222,0.6666666666666666,0.33333333333333337,-2.0,-2.0,2.0,2.0,0.0,1.0,-1.0,4.0,0,0,0
1.0,0.0,1.0,0.0,1.0,0.0,1.0,0.0,,,,None,,84.93288259999827,uk5,72.38952520000748,75.88887030002661,84.93288259999827,None,False,3.0,['r'],False,0.2222222222222222,0.6666666666666666,0.6666666666666666,2.0,1.0,0.77250688571426,-0.0235801665380659,wait_cost,1.0,2.0,83.16542350000236,None,uk5,1,2022-04-08_15h17.55.971,threat_forest,2021.2.3,60.134532979497365,None,30.0,0.5833333333333333,0.488095238095238,-1.25,-1.2582908163265305,0,0,0,,-0.0235801665380659,0.2222222222222222,0.2222222222222222,0.6666666666666666,0.33333333333333337,-2.0,-2.0,1.0,1.0,0.0,1.0,-1.0,3.0,0,0,0
1.0,0.0,1.0,0.0,2.0,0.0,2.0,0.0,,,,right,1.8765027000335976,91.76277349994052,uk5,72.38952520000748,75.88887030002661,91.76277349994052,None,True,2.0,['r'],False,0.2222222222222222,0.6666666666666666,0.6666666666666666,2.0,1.0,0.77250688571426,-0.0102184070644718,succ_gain,1.0,3.0,89.95840699994005,None,uk5,1,2022-04-08_15h17.55.971,threat_forest,2021.2.3,60.134532979497365,True,30.0,0.5833333333333333,0.488095238095238,-1.25,-1.2582908163265305,0,0,1,0.6294097784587286,-0.0102184070644718,0.2222222222222222,0.2222222222222222,0.6666666666666666,0.33333333333333337,-2.0,-2.0,0.0,0.0,0.0,1.0,-1.0,2.0,0,0,0
1.0,0.0,1.0,0.0,3.0,0.0,3.0,0.0,,,,left,2.9228598999325186,96.36082419997548,uk5,72.38952520000748,75.88887030002661,96.36082419997548,None,False,3.0,['r'],False,0.2222222222222222,0.6666666666666666,0.6666666666666666,2.0,1.0,0.77250688571426,-0.0581490054869684,wait_cost,1.0,2.0,95.68696840002669,None,uk5,1,2022-04-08_15h17.55.971,threat_forest,2021.2.3,60.134532979497365,False,30.0,0.5833333333333333,0.488095238095238,-1.25,-1.2582908163265305,0,0,0,1.0725625547486426,-0.0581490054869684,0.2222222222222222,0.2222222222222222,0.6666666666666666,0.33333333333333337,-2.0,-2.0,1.0,1.0,0.0,1.0,1.0,3.0,0,0,0
1.0,0.0,1.0,0.0,4.0,0.0,4.0,0.0,,,,right,1.8597737000091,104.98717239999678,uk5,72.38952520000748,75.88887030002661,104.98717239999678,None,True,2.0,['r'],False,0.2222222222222222,0.6666666666666666,0.6666666666666666,2.0,1.0,0.77250688571426,-0.0320216049382716,figh_cost,1.0,0.0,101.31508530001156,None,uk5,1,2022-04-08_15h17.55.971,threat_forest,2021.2.3,60.134532979497365,True,30.0,0.5833333333333333,0.488095238095238,-1.25,-1.2582908163265305,0,0,1,0.6204548136613469,-0.0320216049382716,0.2222222222222222,0.2222222222222222,0.6666666666666666,0.33333333333333337,-2.0,-2.0,0.0,0.0,0.0,1.0,-1.0,2.0,0,0,0
2.0,0.0,2.0,0.0,0.0,0.0,0.0,0.0,112.294044499984,115.79657649993896,None,right,2.244588400004432,119.00167869997676,uk5,119.00167869997676,None,112.294044499984,115.79657649993896,False,4.0,['p'],True,0.16,0.2,0.2,2.0,2.0,0.8198746470064713,0.0025632255999997,wait_cost,0.0,3.0,,,uk5,1,2022-04-08_15h17.55.971,threat_forest,2021.2.3,60.134532979497365,False,65.0,0.30000000000000004,0.44166666666666665,-1.5000000000000002,-1.375,0,0,0,0.8085221636299826,0.0025632255999997,0.16,0.16,0.2,0.8,-1.8000000000000003,-1.5600000000000003,2.4399999999999995,2.4399999999999995,1.0,2.0,-1.0,4.0,0,0,0
2.0,0.0,2.0,0.0,1.0,0.0,1.0,0.0,,,,right,2.670764600043185,126.91694789996836,uk5,126.91694789996836,None,112.294044499984,115.79657649993896,False,3.0,['p'],True,0.16,0.2,0.2,2.0,2.0,0.8198746470064713,0.0162975999999998,wait_cost,0.0,2.0,123.27801220002584,None,uk5,1,2022-04-08_15h17.55.971,threat_forest,2021.2.3,60.134532979497365,False,65.0,0.30000000000000004,0.44166666666666665,-1.5000000000000002,-1.375,0,0,0,0.9823647984743114,0.0162975999999998,0.16,0.16,0.2,0.8,-1.8000000000000003,-1.5600000000000003,1.4399999999999997,1.4399999999999997,1.0,2.0,-1.0,3.0,0,0,0
2.0,0.0,2.0,0.0,2.0,0.0,2.0,0.0,,,,None,,133.44881950004492,uk5,133.44881950004492,None,112.294044499984,115.79657649993896,False,2.0,['p'],True,0.16,0.2,0.2,2.0,2.0,0.8198746470064713,-0.0075200000000001,wait_cost,0.0,1.0,131.6198282999685,None,uk5,1,2022-04-08_15h17.55.971,threat_forest,2021.2.3,60.134532979497365,None,65.0,0.30000000000000004,0.44166666666666665,-1.5000000000000002,-1.375,0,0,0,,-0.0075200000000001,0.16,0.16,0.2,0.8,-1.8000000000000003,-1.5600000000000003,0.4399999999999997,0.4399999999999997,1.0,2.0,-1.0,2.0,0,0,0
2.0,0.0,2.0,0.0,3.0,0.0,3.0,0.0,,,,left,0.5656504000071436,140.66957809997257,uk5,140.66957809997257,None,112.294044499984,115.79657649993896,True,1.0,['p'],True,0.16,0.2,0.2,2.0,2.0,0.8198746470064713,0.0479999999999999,unsucc_cost,0.0,0.0,138.4463715000311,None,uk5,1,2022-04-08_15h17.55.971,threat_forest,2021.2.3,60.134532979497365,True,65.0,0.30000000000000004,0.44166666666666665,-1.5000000000000002,-1.375,0,0,1,-0.5697790594462171,0.0479999999999999,1.0,0.16,0.2,0.8,-1.8000000000000003,-1.5600000000000003,-0.5600000000000003,0.0,1.0,2.0,-1.0,1.0,1,0,0
3.0,0.0,3.0,0.0,0.0,0.0,0.0,0.0,146.5111040000338,150.0078456000192,None,left,1.6081309000728652,152.1672877999954,uk5,152.1672877999954,None,146.5111040000338,150.0078456000192,True,4.0,['r'],True,0.3333333333333333,0.3333333333333333,0.0,0.0,2.0,0.5793801642856949,0.0326749431231451,succ_gain,0.0,6.0,,,uk5,1,2022-04-08_15h17.55.971,threat_forest,2021.2.3,60.134532979497365,True,10.0,0.35416666666666663,0.32708333333333334,-0.8958333333333335,-1.197916666666667,1,1,1,0.47507257296147626,0.0326749431231451,0.3333333333333333,0.3333333333333333,0.3333333333333333,1.0,-0.6666666666666669,-0.6666666666666669,3.333333333333333,3.333333333333333,1.0,2.0,-1.0,4.0,0,1,1
3.0,0.0,3.0,0.0,1.0,0.0,1.0,0.0,,,,right,2.85388830001466,159.56218939996324,uk5,153.799662000034,155.81406799994875,159.56218939996324,None,True,6.0,['r'],False,0.28125,0.375,0.25,2.0,2.0,0.9634951148421658,-0.1073108765070514,figh_cost,1.0,3.0,155.81406799994875,None,uk5,1,2022-04-08_15h17.55.971,threat_forest,2021.2.3,60.134532979497365,True,10.0,0.35416666666666663,0.32708333333333334,-0.8958333333333335,-1.197916666666667,1,0,1,1.048682380242011,-0.1073108765070514,0.28125,0.28125,0.375,0.75,-1.25,-1.125,4.875,4.875,0.0,2.0,1.0,6.0,0,0,1
3.0,0.0,3.0,0.0,2.0,0.0,2.0,0.0,,,,None,,166.96407270000782,uk5,153.799662000034,155.81406799994875,166.96407270000782,None,False,3.0,['r'],False,0.28125,0.375,0.25,2.0,2.0,0.9634951148421658,0.0818867418501112,wait_cost,1.0,2.0,164.4559275000356,None,uk5,1,2022-04-08_15h17.55.971,threat_forest,2021.2.3,60.134532979497365,None,10.0,0.35416666666666663,0.32708333333333334,-0.8958333333333335,-1.197916666666667,1,0,0,,0.0818867418501112,0.28125,0.28125,0.375,0.75,-1.25,-1.125,1.875,1.875,0.0,2.0,-1.0,3.0,0,0,1
3.0,0.0,3.0,0.0,3.0,0.0,3.0,0.0,,,,left,0.6333327000029385,175.2704851999879,uk5,175.2704851999879,None,169.97487879998516,171.9823519999627,True,2.0,['r'],True,0.3333333333333333,0.3333333333333333,0.0,0.0,2.0,0.5793801642856949,0.0278132403338395,unsucc_cost,0.0,0.0,171.9823519999627,None,uk5,1,2022-04-08_15h17.55.971,threat_forest,2021.2.3,60.134532979497365,True,10.0,0.35416666666666663,0.32708333333333334,-0.8958333333333335,-1.197916666666667,1,1,1,-0.45675940249157515,0.0278132403338395,0.3333333333333333,0.3333333333333333,0.3333333333333333,1.0,-0.6666666666666669,-0.6666666666666669,1.333333333333333,1.333333333333333,1.0,2.0,-1.0,2.0,0,1,1
4.0,0.0,4.0,0.0,0.0,0.0,0.0,0.0,179.15082300000358,182.6442023999989,None,right,2.275460799923166,184.3391433999641,uk5,184.3391433999641,None,179.15082300000358,182.6442023999989,False,5.0,['r'],True,0.4285714285714285,0.4285714285714285,0.0,0.0,2.0,0.6216097450797565,0.0526055132283747,wait_cost,0.0,4.0,,,uk5,1,2022-04-08_15h17.55.971,threat_forest,2021.2.3,60.134532979497365,False,52.0,0.43650793650793646,0.3953373015873015,-0.5626102292768962,-0.7292217813051148,1,1,0,0.8221825813093265,0.0526055132283747,0.4285714285714285,0.4285714285714285,0.4285714285714285,1.0,-0.28571428571428603,-0.28571428571428603,4.7142857142857135,4.7142857142857135,1.0,2.0,-1.0,5.0,0,1,1
4.0,0.0,4.0,0.0,1.0,0.0,1.0,0.0,,,,None,,191.5848529000068,uk5,191.5848529000068,None,179.15082300000358,182.6442023999989,False,4.0,['r'],True,0.4285714285714285,0.4285714285714285,0.0,0.0,2.0,0.6216097450797565,0.0705105637126513,wait_cost,0.0,3.0,188.65022539999336,None,uk5,1,2022-04-08_15h17.55.971,threat_forest,2021.2.3,60.134532979497365,None,52.0,0.43650793650793646,0.3953373015873015,-0.5626102292768962,-0.7292217813051148,1,1,0,,0.0705105637126513,0.4285714285714285,0.4285714285714285,0.4285714285714285,1.0,-0.28571428571428603,-0.28571428571428603,3.714285714285714,3.714285714285714,1.0,2.0,-1.0,4.0,0,1,1
4.0,0.0,4.0,0.0,2.0,0.0,2.0,0.0,,,,right,1.6807470000348983,198.5723158000037,uk5,194.5949382999679,196.6091565999668,198.5723158000037,None,True,3.0,['r'],False,0.345679012345679,0.4444444444444444,0.2222222222222222,2.0,2.0,0.9685033186841367,0.0990173518329796,figh_cost,1.0,0.0,196.6091565999668,None,uk5,1,2022-04-08_15h17.55.971,threat_forest,2021.2.3,60.134532979497365,True,52.0,0.43650793650793646,0.3953373015873015,-0.5626102292768962,-0.7292217813051148,0,0,1,0.519238337468732,0.0990173518329796,0.345679012345679,0.345679012345679,0.4444444444444444,0.7777777777777778,-0.888888888888889,-0.8395061728395062,2.1604938271604937,2.1604938271604937,0.0,2.0,-1.0,3.0,0,0,0
5.0,0.0,5.0,0.0,0.0,0.0,0.0,0.0,205.99632030003704,209.4972697000485,None,right,1.466617799946107,213.2596289999783,uk5,213.2596289999783,None,205.99632030003704,209.4972697000485,False,5.0,['r'],True,0.25,0.5,0.5,2.0,1.0,0.9463946303571862,-0.0116810922923564,wait_cost,0.0,4.0,,,uk5,1,2022-04-08_15h17.55.971,threat_forest,2021.2.3,60.134532979497365,False,43.0,0.41666666666666663,0.4265873015873015,-1.375,-0.9688051146384481,0,0,0,0.38295893348247817,-0.0116810922923564,0.25,0.25,0.5,0.5,-2.0,-1.75,3.25,3.25,1.0,1.0,-1.0,5.0,0,0,0
5.0,0.0,5.0,0.0,1.0,0.0,1.0,0.0,,,,None,,218.87963340000715,uk5,214.74957139999609,216.75711999996565,218.87963340000715,None,False,4.0,['r'],False,0.3333333333333333,0.3333333333333333,0.0,0.0,1.0,0.5793801642856949,0.0467425059879758,wait_cost,1.0,3.0,216.75711999996565,None,uk5,1,2022-04-08_15h17.55.971,threat_forest,2021.2.3,60.134532979497365,None,43.0,0.41666666666666663,0.4265873015873015,-1.375,-0.9688051146384481,0,0,0,,0.0467425059879758,0.3333333333333333,0.3333333333333333,0.3333333333333333,1.0,-1.0000000000000002,-1.0000000000000002,3.0,3.0,0.0,1.0,-1.0,4.0,0,0,0
5.0,0.0,5.0,0.0,2.0,0.0,2.0,0.0,,,,left,2.2160843999590725,226.0672335999552,uk5,214.74957139999609,216.75711999996565,226.0672335999552,None,False,3.0,['r'],False,0.3333333333333333,0.3333333333333333,0.0,0.0,1.0,0.5793801642856949,0.0478897408693415,wait_cost,1.0,2.0,223.90039570000957,None,uk5,1,2022-04-08_15h17.55.971,threat_forest,2021.2.3,60.134532979497365,False,43.0,0.41666666666666663,0.4265873015873015,-1.375,-0.9688051146384481,0,0,0,0.7957418547838905,0.0478897408693415,0.3333333333333333,0.3333333333333333,0.3333333333333333,1.0,-1.0000000000000002,-1.0000000000000002,1.9999999999999998,1.9999999999999998,0.0,1.0,-1.0,3.0,0,0,0
5.0,0.0,5.0,0.0,3.0,0.0,3.0,0.0,,,,left,2.7842953999061137,233.72628219996116,uk5,214.74957139999609,216.75711999996565,233.72628219996116,None,False,2.0,['r'],False,0.3333333333333333,0.3333333333333333,0.0,0.0,1.0,0.5793801642856949,0.0266203703703703,wait_cost,1.0,1.0,230.32762470003215,None,uk5,1,2022-04-08_15h17.55.971,threat_forest,2021.2.3,60.134532979497365,False,43.0,0.41666666666666663,0.4265873015873015,-1.375,-0.9688051146384481,0,0,0,1.0239948431314148,0.0266203703703703,0.3333333333333333,0.3333333333333333,0.3333333333333333,1.0,-1.0000000000000002,-1.0000000000000002,0.9999999999999998,0.9999999999999998,0.0,1.0,-1.0,2.0,0,0,0
5.0,0.0,5.0,0.0,4.0,0.0,4.0,0.0,,,,left,2.1230023000389338,240.3763230999466,uk5,240.3763230999466,None,236.5387703999877,238.55298729997594,True,1.0,['r'],True,0.25,0.5,0.5,2.0,1.0,0.9463946303571862,0.078125,unsucc_cost,0.0,0.0,238.55298729997597,None,uk5,1,2022-04-08_15h17.55.971,threat_forest,2021.2.3,60.134532979497365,True,43.0,0.41666666666666663,0.4265873015873015,-1.375,-0.9688051146384481,0,0,1,0.7528312661114571,0.078125,1.0,0.25,0.5,0.5,-2.0,-1.75,-0.75,0.0,1.0,1.0,-1.0,1.0,1,0,0
6.0,0.0,6.0,0.0,0.0,0.0,0.0,0.0,246.5316539000487,250.03427699999884,None,left,1.873886200017296,250.75236389995555,uk5,246.5316539000487,250.03427699999884,250.75236389995555,None,False,5.0,['p'],False,0.21875,0.25,0.125,1.0,1.0,0.7908280489481783,-0.003347083026002,wait_cost,1.0,4.0,,,uk5,1,2022-04-08_15h17.55.971,threat_forest,2021.2.3,60.134532979497365,False,61.0,0.325,0.37083333333333335,-1.354375,-1.3646875,0,0,0,0.628014456261195,-0.003347083026002,0.21875,0.21875,0.25,0.875,-1.625,-1.46875,3.53125,3.53125,0.0,1.0,-1.0,5.0,0,0,0
6.0,0.0,6.0,0.0,1.0,0.0,1.0,0.0,,,,left,1.2235708999214694,257.4764622000512,uk5,257.4764622000512,None,252.6570439999923,254.6717336999718,True,4.0,['p'],True,0.32,0.4,0.2,1.0,1.0,0.9455672104350704,0.0367450763052585,unsucc_cost,0.0,2.0,254.6717336999718,None,uk5,1,2022-04-08_15h17.55.971,threat_forest,2021.2.3,60.134532979497365,True,61.0,0.325,0.37083333333333335,-1.354375,-1.3646875,1,0,1,0.20177355066583547,0.0367450763052585,0.32,0.32,0.4,0.8,-1.4,-1.24,2.76,2.76,1.0,1.0,-1.0,4.0,0,0,1
6.0,0.0,6.0,0.0,2.0,0.0,2.0,0.0,,,,right,2.1243031000485644,263.4065699999919,uk5,263.4065699999919,None,252.6570439999923,254.6717336999718,False,2.0,['p'],True,0.32,0.4,0.2,1.0,1.0,0.9455672104350704,0.0225587820034484,wait_cost,0.0,1.0,260.7325295000337,None,uk5,1,2022-04-08_15h17.55.971,threat_forest,2021.2.3,60.134532979497365,False,61.0,0.325,0.37083333333333335,-1.354375,-1.3646875,1,0,0,0.7534437956697388,0.0225587820034484,0.32,0.32,0.4,0.8,-1.4,-1.24,0.76,0.76,1.0,1.0,-1.0,2.0,0,0,1
6.0,0.0,6.0,0.0,3.0,0.0,3.0,0.0,,,,left,1.9050788000458847,270.24405540002044,uk5,270.24405540002044,None,252.6570439999923,254.6717336999718,True,1.0,['p'],True,0.32,0.4,0.2,1.0,1.0,0.9455672104350704,0.0364120585156251,succ_gain,0.0,2.0,267.5764564999845,None,uk5,1,2022-04-08_15h17.55.971,threat_forest,2021.2.3,60.134532979497365,True,61.0,0.325,0.37083333333333335,-1.354375,-1.3646875,1,0,1,0.6445233725766452,0.0364120585156251,1.0,0.32,0.4,0.8,-1.4,-1.24,-0.24,0.0,1.0,1.0,-1.0,1.0,1,0,1
6.0,0.0,6.0,0.0,4.0,0.0,4.0,0.0,,,,left,2.6530718998983502,274.7153233999852,uk5,272.1724034999497,274.1869512000121,274.7153233999852,None,False,2.0,['p'],False,0.21875,0.25,0.125,1.0,1.0,0.7908280489481783,0.0130215454101562,wait_cost,1.0,1.0,274.1869512000121,None,uk5,1,2022-04-08_15h17.55.971,threat_forest,2021.2.3,60.134532979497365,False,61.0,0.325,0.37083333333333335,-1.354375,-1.3646875,0,0,0,0.9757181761447,0.0130215454101562,0.21875,0.21875,0.25,0.875,-1.625,-1.46875,0.53125,0.53125,0.0,1.0,1.0,2.0,0,0,0
6.0,0.0,6.0,0.0,5.0,0.0,5.0,0.0,,,,left,0.5583721000002697,281.85601300001144,uk5,281.85601300001144,None,277.4010673000012,279.4151902999729,True,1.0,['p'],True,0.32,0.4,0.2,1.0,1.0,0.9455672104350704,0.0943,figh_cost,0.0,0.0,279.4151902999729,None,uk5,1,2022-04-08_15h17.55.971,threat_forest,2021.2.3,60.134532979497365,True,61.0,0.325,0.37083333333333335,-1.354375,-1.3646875,1,0,1,-0.5827296929651238,0.0943,1.0,0.32,0.4,0.8,-1.4,-1.24,-0.24,0.0,1.0,1.0,-1.0,1.0,1,0,1
7.0,0.0,7.0,0.0,0.0,0.0,0.0,0.0,285.0828769999789,288.5873060999438,None,right,2.34386020002421,290.80080800002906,uk5,285.0828769999789,288.5873060999438,290.80080800002906,None,True,5.0,['p'],False,0.1728395061728395,0.2222222222222222,0.2222222222222222,2.0,2.0,0.8571721972794328,-0.0270759260606772,unsucc_cost,1.0,3.0,,,uk5,1,2022-04-08_15h17.55.971,threat_forest,2021.2.3,60.134532979497365,True,59.0,0.3611111111111111,0.34305555555555556,-1.1404320987654322,-1.247403549382716,0,0,1,0.8517992283082367,-0.0270759260606772,0.1728395061728395,0.1728395061728395,0.2222222222222222,0.7777777777777778,-1.7777777777777777,-1.5308641975308643,3.4691358024691357,3.4691358024691357,0.0,2.0,-1.0,5.0,0,0,0
7.0,0.0,7.0,0.0,1.0,0.0,1.0,0.0,,,,left,1.1247734999051318,295.7594388000434,uk5,295.7594388000434,None,293.1693357999902,295.1839144999394,True,3.0,['p'],True,0.375,0.5,0.25,1.0,2.0,0.9850568223215076,0.0855498346369919,unsucc_cost,0.0,1.0,295.1839144999394,None,uk5,1,2022-04-08_15h17.55.971,threat_forest,2021.2.3,60.134532979497365,True,59.0,0.3611111111111111,0.34305555555555556,-1.1404320987654322,-1.247403549382716,1,1,1,0.1175816819684295,0.0855498346369919,0.375,0.375,0.5,0.75,-0.75,-0.75,2.25,2.25,1.0,2.0,-1.0,3.0,0,1,1
7.0,0.0,7.0,0.0,2.0,0.0,2.0,0.0,,,,left,0.7085676999995485,300.91784110001754,uk5,300.91784110001754,None,293.1693357999902,295.1839144999394,True,1.0,['p'],True,0.375,0.5,0.25,1.0,2.0,0.9850568223215076,0.1390093416583739,succ_gain,0.0,3.0,298.9303109999746,None,uk5,1,2022-04-08_15h17.55.971,threat_forest,2021.2.3,60.134532979497365,True,59.0,0.3611111111111111,0.34305555555555556,-1.1404320987654322,-1.247403549382716,1,1,1,-0.34450967042973346,0.1390093416583739,1.0,0.375,0.5,0.75,-0.75,-0.75,0.25,0.25,1.0,2.0,-1.0,1.0,1,1,1
7.0,0.0,7.0,0.0,3.0,0.0,3.0,0.0,,,,right,2.290270800003782,306.0629237999674,uk5,306.0629237999674,None,293.1693357999902,295.1839144999394,False,3.0,['p'],True,0.375,0.5,0.25,1.0,2.0,0.9850568223215076,0.0924634024249083,wait_cost,0.0,2.0,303.64254979998805,None,uk5,1,2022-04-08_15h17.55.971,threat_forest,2021.2.3,60.134532979497365,False,59.0,0.3611111111111111,0.34305555555555556,-1.1404320987654322,-1.247403549382716,1,1,0,0.8286700638515414,0.0924634024249083,0.375,0.375,0.5,0.75,-0.75,-0.75,2.25,2.25,1.0,2.0,1.0,3.0,0,1,1
7.0,0.0,7.0,0.0,4.0,0.0,4.0,0.0,,,,right,2.0921582999872044,311.57252040004823,uk5,311.57252040004823,None,293.1693357999902,295.1839144999394,False,2.0,['p'],True,0.375,0.5,0.25,1.0,2.0,0.9850568223215076,0.1010802469135803,wait_cost,0.0,1.0,310.38638509996235,None,uk5,1,2022-04-08_15h17.55.971,threat_forest,2021.2.3,60.134532979497365,False,59.0,0.3611111111111111,0.34305555555555556,-1.1404320987654322,-1.247403549382716,1,1,0,0.7381962125498509,0.1010802469135803,0.375,0.375,0.5,0.75,-0.75,-0.75,1.25,1.25,1.0,2.0,-1.0,2.0,0,1,1
7.0,0.0,7.0,0.0,5.0,0.0,5.0,0.0,,,,right,2.0640728999860585,317.29308430000674,uk5,313.6845558000496,315.6978410000447,317.29308430000674,None,True,1.0,['p'],False,0.1728395061728395,0.2222222222222222,0.2222222222222222,2.0,2.0,0.8571721972794328,0.1728395061728395,unsucc_cost,1.0,0.0,315.6978410000447,None,uk5,1,2022-04-08_15h17.55.971,threat_forest,2021.2.3,60.134532979497365,True,59.0,0.3611111111111111,0.34305555555555556,-1.1404320987654322,-1.247403549382716,0,0,1,0.7246811667562755,0.1728395061728395,1.0,0.1728395061728395,0.2222222222222222,0.7777777777777778,-1.7777777777777777,-1.5308641975308643,-0.5308641975308643,0.0,0.0,2.0,-1.0,1.0,1,0,0
8.0,0.0,8.0,0.0,0.0,0.0,0.0,0.0,322.4729726000224,325.97152939997613,None,left,2.694907500059344,328.82835149997845,uk5,322.4729726000224,325.97152939997613,328.82835149997845,None,False,5.0,['r'],False,0.5,0.5,0.0,0.0,2.0,0.6309297535714574,0.0630973775,wait_cost,1.0,4.0,,,uk5,1,2022-04-08_15h17.55.971,threat_forest,2021.2.3,60.134532979497365,False,67.0,0.55,0.4555555555555556,-0.4800000000000001,-0.8102160493827162,1,1,0,0.9913638809739026,0.0630973775,0.5,0.5,0.5,1.0,0.0,0.0,5.0,5.0,0.0,2.0,-1.0,5.0,0,1,1
8.0,0.0,8.0,0.0,1.0,0.0,1.0,0.0,,,,right,2.2029972000746056,337.2133429000387,uk5,322.4729726000224,325.97152939997613,337.2133429000387,None,True,4.0,['r'],False,0.5,0.5,0.0,0.0,2.0,0.6309297535714574,0.126394,succ_gain,1.0,6.0,333.564747299999,None,uk5,1,2022-04-08_15h17.55.971,threat_forest,2021.2.3,60.134532979497365,True,67.0,0.55,0.4555555555555556,-0.4800000000000001,-0.8102160493827162,1,1,1,0.7898187968591649,0.126394,0.5,0.5,0.5,1.0,0.0,0.0,4.0,4.0,0.0,2.0,-1.0,4.0,0,1,1
8.0,0.0,8.0,0.0,2.0,0.0,2.0,0.0,,,,right,1.8985496000386772,343.551552799996,uk5,343.551552799996,None,339.4425691999495,341.45736640004907,False,6.0,['r'],True,0.36,0.6,0.4,2.0,2.0,0.9801625908629508,-0.004455,wait_cost,0.0,5.0,341.45736640004907,None,uk5,1,2022-04-08_15h17.55.971,threat_forest,2021.2.3,60.134532979497365,False,67.0,0.55,0.4555555555555556,-0.4800000000000001,-0.8102160493827162,0,0,0,0.6410902262576765,-0.004455,0.36,0.36,0.6,0.6,-0.8000000000000003,-0.9600000000000002,5.04,5.04,1.0,2.0,1.0,6.0,0,0,0
8.0,0.0,8.0,0.0,3.0,0.0,3.0,0.0,,,,None,,350.5732658000197,uk5,345.47052029997576,347.46829009999055,350.5732658000197,None,False,5.0,['r'],False,0.5,0.5,0.0,0.0,2.0,0.6309297535714574,0.1069499999999999,wait_cost,1.0,4.0,347.4682900999905,None,uk5,1,2022-04-08_15h17.55.971,threat_forest,2021.2.3,60.134532979497365,None,67.0,0.55,0.4555555555555556,-0.4800000000000001,-0.8102160493827162,1,1,0,,0.1069499999999999,0.5,0.5,0.5,1.0,0.0,0.0,5.0,5.0,0.0,2.0,-1.0,5.0,0,1,1
8.0,0.0,8.0,0.0,4.0,0.0,4.0,0.0,,,,right,1.89989959995728,359.02195880003273,uk5,359.02195880003273,None,353.57903090002947,355.59403549996205,False,4.0,['r'],True,0.36,0.6,0.4,2.0,2.0,0.9801625908629508,0.0536,wait_cost,0.0,3.0,355.59403549996205,None,uk5,1,2022-04-08_15h17.55.971,threat_forest,2021.2.3,60.134532979497365,False,67.0,0.55,0.4555555555555556,-0.4800000000000001,-0.8102160493827162,0,0,0,0.6418010426484531,0.0536,0.36,0.36,0.6,0.6,-0.8000000000000003,-0.9600000000000002,3.04,3.04,1.0,2.0,-1.0,4.0,0,0,0
8.0,0.0,8.0,0.0,5.0,0.0,5.0,0.0,,,,right,1.112260999972932,363.6945310999872,uk5,360.941226099967,362.9538736999966,363.6945310999872,None,True,3.0,['r'],False,0.5,0.5,0.0,0.0,2.0,0.6309297535714574,0.25,unsucc_cost,1.0,1.0,362.9538736999966,None,uk5,1,2022-04-08_15h17.55.971,threat_forest,2021.2.3,60.134532979497365,True,67.0,0.55,0.4555555555555556,-0.4800000000000001,-0.8102160493827162,1,1,1,0.1063948804936643,0.25,0.5,0.5,0.5,1.0,0.0,0.0,3.0,3.0,0.0,2.0,-1.0,3.0,0,1,1
8.0,0.0,8.0,0.0,6.0,0.0,6.0,0.0,,,,left,1.444084900082089,369.2911985999672,uk5,369.2911985999672,None,364.8355640999507,366.85038910002913,True,1.0,['r'],True,0.36,0.6,0.4,2.0,2.0,0.9801625908629508,0.36,figh_cost,0.0,0.0,366.85038910002913,None,uk5,1,2022-04-08_15h17.55.971,threat_forest,2021.2.3,60.134532979497365,True,67.0,0.55,0.4555555555555556,-0.4800000000000001,-0.8102160493827162,0,0,1,0.36747583381297083,0.36,1.0,0.36,0.6,0.6,-0.8000000000000003,-0.9600000000000002,0.039999999999999813,0.039999999999999813,1.0,2.0,-1.0,1.0,1,0,0
9.0,0.0,9.0,0.0,0.0,0.0,0.0,0.0,376.08773270004895,379.59028550004587,None,left,1.970197599963285,382.44240189995617,uk5,382.44240189995617,None,376.08773270004895,379.59028550004587,True,4.0,['r'],True,0.3333333333333333,0.3333333333333333,0.0,0.0,2.0,0.5793801642856949,0.0326749431231451,succ_gain,0.0,6.0,,,uk5,1,2022-04-08_15h17.55.971,threat_forest,2021.2.3,60.134532979497365,True,40.0,0.35416666666666663,0.45208333333333334,-0.8958333333333335,-0.6879166666666667,1,0,1,0.678133842269623,0.0326749431231451,0.3333333333333333,0.3333333333333333,0.3333333333333333,1.0,-0.6666666666666669,-0.6666666666666669,3.333333333333333,3.333333333333333,1.0,2.0,-1.0,4.0,0,0,1
9.0,0.0,9.0,0.0,1.0,0.0,1.0,0.0,,,,left,1.4426869999151677,387.1216812999919,uk5,384.4337889000308,386.4486246999586,387.1216812999919,None,False,6.0,['r'],False,0.28125,0.375,0.25,2.0,2.0,0.9634951148421658,-0.1073108765070514,wait_cost,1.0,5.0,386.4486246999586,None,uk5,1,2022-04-08_15h17.55.971,threat_forest,2021.2.3,60.134532979497365,False,40.0,0.35416666666666663,0.45208333333333334,-0.8958333333333335,-0.6879166666666667,0,0,0,0.3665073469878164,-0.1073108765070514,0.28125,0.28125,0.375,0.75,-1.25,-1.125,4.875,4.875,0.0,2.0,1.0,6.0,0,0,0
9.0,0.0,9.0,0.0,2.0,0.0,2.0,0.0,,,,left,1.254926300025545,394.34984229994006,uk5,384.4337889000308,386.4486246999586,394.34984229994006,None,False,5.0,['r'],False,0.28125,0.375,0.25,2.0,2.0,0.9634951148421658,-0.0090943703910818,wait_cost,1.0,4.0,390.61117589997593,None,uk5,1,2022-04-08_15h17.55.971,threat_forest,2021.2.3,60.134532979497365,False,40.0,0.35416666666666663,0.45208333333333334,-0.8958333333333335,-0.6879166666666667,0,0,0,0.22707684578011528,-0.0090943703910818,0.28125,0.28125,0.375,0.75,-1.25,-1.125,3.875,3.875,0.0,2.0,-1.0,5.0,0,0,0
9.0,0.0,9.0,0.0,3.0,0.0,3.0,0.0,,,,left,1.579255299991928,398.1937720000278,uk5,384.4337889000308,386.4486246999586,398.1937720000278,None,False,4.0,['r'],False,0.28125,0.375,0.25,2.0,2.0,0.9634951148421658,-0.0133382655956126,wait_cost,1.0,3.0,397.638081699959,None,uk5,1,2022-04-08_15h17.55.971,threat_forest,2021.2.3,60.134532979497365,False,40.0,0.35416666666666663,0.45208333333333334,-0.8958333333333335,-0.6879166666666667,0,0,0,0.45695340680935886,-0.0133382655956126,0.28125,0.28125,0.375,0.75,-1.25,-1.125,2.875,2.875,0.0,2.0,-1.0,4.0,0,0,0
9.0,0.0,9.0,0.0,4.0,0.0,4.0,0.0,,,,left,2.4606102000689134,404.6070681000128,uk5,404.6070681000128,None,399.80318940000143,401.8173709999537,True,3.0,['r'],True,0.3333333333333333,0.3333333333333333,0.0,0.0,2.0,0.5793801642856949,0.2178819444444443,succ_gain,0.0,5.0,401.8173709999537,None,uk5,1,2022-04-08_15h17.55.971,threat_forest,2021.2.3,60.134532979497365,True,40.0,0.35416666666666663,0.45208333333333334,-0.8958333333333335,-0.6879166666666667,1,0,1,0.9004093679937535,0.2178819444444443,0.3333333333333333,0.3333333333333333,0.3333333333333333,1.0,-0.6666666666666669,-0.6666666666666669,2.333333333333333,2.333333333333333,1.0,2.0,-1.0,3.0,0,0,1
9.0,0.0,9.0,0.0,5.0,0.0,5.0,0.0,,,,left,1.0254473000532016,410.69424199999776,uk5,407.1271876000101,409.1269820999587,410.69424199999776,None,False,5.0,['r'],False,0.28125,0.375,0.25,2.0,2.0,0.9634951148421658,-0.169921875,wait_cost,1.0,4.0,409.1269820999587,None,uk5,1,2022-04-08_15h17.55.971,threat_forest,2021.2.3,60.134532979497365,False,40.0,0.35416666666666663,0.45208333333333334,-0.8958333333333335,-0.6879166666666667,0,0,0,0.0251289076956253,-0.169921875,0.0,0.28125,0.375,0.75,-1.25,-1.125,3.875,3.875,0.0,2.0,1.0,5.0,0,0,0
9.0,0.0,9.0,0.0,6.0,0.0,6.0,0.0,,,,left,1.1682599000632763,416.8938112000469,uk5,407.1271876000101,409.1269820999587,416.8938112000469,None,False,4.0,['r'],False,0.28125,0.375,0.25,2.0,2.0,0.9634951148421658,-0.1731770833333333,wait_cost,1.0,3.0,413.7562410000246,None,uk5,1,2022-04-08_15h17.55.971,threat_forest,2021.2.3,60.134532979497365,False,40.0,0.35416666666666663,0.45208333333333334,-0.8958333333333335,-0.6879166666666667,0,0,0,0.1555153768302227,-0.1731770833333333,0.0,0.28125,0.375,0.75,-1.25,-1.125,2.875,2.875,0.0,2.0,-1.0,4.0,0,0,0
9.0,0.0,9.0,0.0,7.0,0.0,7.0,0.0,,,,left,1.5567744000582024,422.6733323000372,uk5,407.1271876000101,409.1269820999587,422.6733323000372,None,False,3.0,['r'],False,0.28125,0.375,0.25,2.0,2.0,0.9634951148421658,-0.25,wait_cost,1.0,2.0,420.1000476999907,None,uk5,1,2022-04-08_15h17.55.971,threat_forest,2021.2.3,60.134532979497365,False,40.0,0.35416666666666663,0.45208333333333334,-0.8958333333333335,-0.6879166666666667,0,0,0,0.44261598836411925,-0.25,0.0,0.28125,0.375,0.75,-1.25,-1.125,1.875,1.875,0.0,2.0,-1.0,3.0,0,0,0
10.0,0.0,10.0,0.0,0.0,0.0,0.0,0.0,429.04672949993983,432.5441050999798,None,left,1.9539586999453604,435.155037199962,uk5,429.04672949993983,432.5441050999798,435.155037199962,None,False,5.0,['p'],False,0.4166666666666667,0.5,0.1666666666666666,1.0,2.0,0.9358932809493992,0.0277169847623575,wait_cost,1.0,4.0,,,uk5,1,2022-04-08_15h17.55.971,threat_forest,2021.2.3,60.134532979497365,False,22.0,0.41666666666666663,0.38541666666666663,-0.7129629629629629,-0.8043981481481481,1,1,0,0.669857417238243,0.0277169847623575,0.4166666666666667,0.4166666666666667,0.5,0.8333333333333334,-0.4999999999999998,-0.4999999999999998,4.5,4.5,0.0,2.0,-1.0,5.0,0,1,1
10.0,0.0,10.0,0.0,1.0,0.0,1.0,0.0,,,,right,1.7937747000250963,441.3284247999545,uk5,441.3284247999545,None,437.13488599995617,439.14933020004537,False,4.0,['p'],True,0.2962962962962963,0.3333333333333333,0.1111111111111111,1.0,2.0,0.8325252476189534,0.0174761721107346,wait_cost,0.0,3.0,439.14933020004537,None,uk5,1,2022-04-08_15h17.55.971,threat_forest,2021.2.3,60.134532979497365,False,22.0,0.41666666666666663,0.38541666666666663,-0.7129629629629629,-0.8043981481481481,0,0,0,0.5843221704798222,0.0174761721107346,0.2962962962962963,0.2962962962962963,0.3333333333333333,0.8888888888888888,-1.0000000000000002,-0.925925925925926,3.074074074074074,3.074074074074074,1.0,2.0,-1.0,4.0,0,0,0
10.0,0.0,10.0,0.0,2.0,0.0,2.0,0.0,,,,right,1.6813469999469817,447.6036976999603,uk5,443.149057499948,445.16036229999736,447.6036976999603,None,True,3.0,['p'],False,0.4166666666666667,0.5,0.1666666666666666,1.0,2.0,0.9358932809493992,0.1425273693510899,figh_cost,1.0,0.0,445.16036229999736,None,uk5,1,2022-04-08_15h17.55.971,threat_forest,2021.2.3,60.134532979497365,True,22.0,0.41666666666666663,0.38541666666666663,-0.7129629629629629,-0.8043981481481481,1,1,1,0.519595257839463,0.1425273693510899,0.4166666666666667,0.4166666666666667,0.5,0.8333333333333334,-0.4999999999999998,-0.4999999999999998,2.5,2.5,0.0,2.0,-1.0,3.0,0,1,1
11.0,0.0,11.0,0.0,0.0,0.0,0.0,0.0,454.1399920999538,457.6346023000078,None,right,1.9132539000129327,458.37687689997256,uk5,458.37687689997256,None,454.1399920999538,457.6346023000078,False,5.0,['p'],True,0.4444444444444445,0.6666666666666666,0.3333333333333333,1.0,1.0,0.9656336071428248,0.0492535467687539,wait_cost,0.0,4.0,,,uk5,1,2022-04-08_15h17.55.971,threat_forest,2021.2.3,60.134532979497365,False,39.0,0.43333333333333335,0.425,-1.2000000000000002,-0.9564814814814815,0,1,0,0.6488054051288827,0.0492535467687539,0.4444444444444445,0.4444444444444445,0.6666666666666666,0.6666666666666667,-1.0,-1.0,4.0,4.0,1.0,1.0,-1.0,5.0,0,1,0
11.0,0.0,11.0,0.0,1.0,0.0,1.0,0.0,,,,left,2.12559389998205,464.1722333000507,uk5,460.3133646999486,462.3277899000095,464.1722333000507,None,False,4.0,['p'],False,0.2,0.2,0.0,0.0,1.0,0.4554859150035951,-0.0236723026638894,wait_cost,1.0,3.0,462.3277899000095,None,uk5,1,2022-04-08_15h17.55.971,threat_forest,2021.2.3,60.134532979497365,False,39.0,0.43333333333333335,0.425,-1.2000000000000002,-0.9564814814814815,0,0,0,0.7540512456729591,-0.0236723026638894,0.2,0.2,0.2,1.0,-1.4000000000000001,-1.4000000000000001,2.5999999999999996,2.5999999999999996,0.0,1.0,-1.0,4.0,0,0,0
11.0,0.0,11.0,0.0,2.0,0.0,2.0,0.0,,,,left,1.9799342999467624,469.04495070001576,uk5,460.3133646999486,462.3277899000095,469.04495070001576,None,False,3.0,['p'],False,0.2,0.2,0.0,0.0,1.0,0.4554859150035951,-0.0178719250114312,wait_cost,1.0,2.0,468.3389439999592,None,uk5,1,2022-04-08_15h17.55.971,threat_forest,2021.2.3,60.134532979497365,False,39.0,0.43333333333333335,0.425,-1.2000000000000002,-0.9564814814814815,0,0,0,0.6830636623108448,-0.0178719250114312,0.2,0.2,0.2,1.0,-1.4000000000000001,-1.4000000000000001,1.5999999999999999,1.5999999999999999,0.0,1.0,-1.0,3.0,0,0,0
11.0,0.0,11.0,0.0,3.0,0.0,3.0,0.0,,,,left,2.93013490003068,474.1578931999393,uk5,460.3133646999486,462.3277899000095,474.1578931999393,None,False,2.0,['p'],False,0.2,0.2,0.0,0.0,1.0,0.4554859150035951,-0.0379958847736625,wait_cost,1.0,1.0,473.0696802999592,None,uk5,1,2022-04-08_15h17.55.971,threat_forest,2021.2.3,60.134532979497365,False,39.0,0.43333333333333335,0.425,-1.2000000000000002,-0.9564814814814815,0,0,0,1.0750484629352255,-0.0379958847736625,0.2,0.2,0.2,1.0,-1.4000000000000001,-1.4000000000000001,0.5999999999999999,0.5999999999999999,0.0,1.0,-1.0,2.0,0,0,0
11.0,0.0,11.0,0.0,4.0,0.0,4.0,0.0,,,,left,1.4707529000006616,480.2705445999745,uk5,480.2705445999745,None,477.1163330000127,479.1287159000058,True,1.0,['p'],True,0.4444444444444445,0.6666666666666666,0.3333333333333333,1.0,1.0,0.9656336071428248,0.1703703703703702,succ_gain,0.0,2.0,479.1287159000058,None,uk5,1,2022-04-08_15h17.55.971,threat_forest,2021.2.3,60.134532979497365,True,39.0,0.43333333333333335,0.425,-1.2000000000000002,-0.9564814814814815,0,1,1,0.38577444654403803,0.1703703703703702,1.0,0.4444444444444445,0.6666666666666666,0.6666666666666667,-1.0,-1.0,0.0,0.0,1.0,1.0,-1.0,1.0,1,1,0
11.0,0.0,11.0,0.0,5.0,0.0,5.0,0.0,,,,left,2.2414523999905214,484.98320160002913,uk5,481.7643296000315,483.7742865999462,484.98320160002913,None,False,2.0,['p'],False,0.2,0.2,0.0,0.0,1.0,0.4554859150035951,-0.1222222222222222,wait_cost,1.0,1.0,483.7742865999462,None,uk5,1,2022-04-08_15h17.55.971,threat_forest,2021.2.3,60.134532979497365,False,39.0,0.43333333333333335,0.425,-1.2000000000000002,-0.9564814814814815,0,0,0,0.8071240486040341,-0.1222222222222222,0.2,0.2,0.2,1.0,-1.4000000000000001,-1.4000000000000001,0.5999999999999999,0.5999999999999999,0.0,1.0,1.0,2.0,0,0,0
11.0,0.0,11.0,0.0,6.0,0.0,6.0,0.0,,,,right,0.9963991999393328,490.4074161000317,uk5,481.7643296000315,483.7742865999462,490.4074161000317,None,True,1.0,['p'],False,0.2,0.2,0.0,0.0,1.0,0.4554859150035951,0.1999999999999999,unsucc_cost,1.0,0.0,489.2689281000057,None,uk5,1,2022-04-08_15h17.55.971,threat_forest,2021.2.3,60.134532979497365,True,39.0,0.43333333333333335,0.425,-1.2000000000000002,-0.9564814814814815,0,0,1,-0.003607298545725921,0.1999999999999999,1.0,0.2,0.2,1.0,-1.4000000000000001,-1.4000000000000001,-0.40000000000000013,0.0,0.0,1.0,-1.0,1.0,1,0,0
12.0,0.0,12.0,0.0,0.0,0.0,0.0,0.0,494.1028190000216,497.607175800018,None,left,2.43271119997371,499.66553480003495,uk5,494.1028190000216,497.607175800018,499.66553480003495,None,False,4.0,['p'],False,0.4444444444444445,0.6666666666666666,0.3333333333333333,1.0,2.0,0.9656336071428248,0.064046602155505,wait_cost,1.0,3.0,,,uk5,1,2022-04-08_15h17.55.971,threat_forest,2021.2.3,60.134532979497365,False,1.0,0.4833333333333333,0.4583333333333333,-0.7877777777777778,-0.993888888888889,1,0,0,0.8890063555530905,0.064046602155505,0.4444444444444445,0.4444444444444445,0.6666666666666666,0.6666666666666667,-0.3333333333333335,-0.5555555555555556,3.4444444444444446,3.4444444444444446,0.0,2.0,-1.0,4.0,0,0,1
12.0,0.0,12.0,0.0,1.0,0.0,1.0,0.0,,,,left,2.585043499944732,507.8355926000513,uk5,507.8355926000513,None,502.12425939994864,504.1383919999935,True,3.0,['p'],True,0.27,0.3,0.1,1.0,2.0,0.7963326591781347,0.0431681748711396,unsucc_cost,0.0,1.0,504.1383919999935,None,uk5,1,2022-04-08_15h17.55.971,threat_forest,2021.2.3,60.134532979497365,True,1.0,0.4833333333333333,0.4583333333333333,-0.7877777777777778,-0.993888888888889,0,0,1,0.9497423356504239,0.0431681748711396,0.27,0.27,0.3,0.9,-1.1,-1.02,1.98,1.98,1.0,2.0,-1.0,3.0,0,0,0
12.0,0.0,12.0,0.0,2.0,0.0,2.0,0.0,,,,left,1.723080400028266,514.0369959999807,uk5,514.0369959999807,None,502.12425939994864,504.1383919999935,True,1.0,['p'],True,0.27,0.3,0.1,1.0,2.0,0.7963326591781347,0.1195719834516461,succ_gain,0.0,3.0,512.4640407999977,None,uk5,1,2022-04-08_15h17.55.971,threat_forest,2021.2.3,60.134532979497365,True,1.0,0.4833333333333333,0.4583333333333333,-0.7877777777777778,-0.993888888888889,0,0,1,0.5441136192709688,0.1195719834516461,1.0,0.27,0.3,0.9,-1.1,-1.02,-0.020000000000000018,0.0,1.0,2.0,-1.0,1.0,1,0,0
12.0,0.0,12.0,0.0,3.0,0.0,3.0,0.0,,,,right,1.6398393999552354,519.8841146000195,uk5,519.8841146000195,None,502.12425939994864,504.1383919999935,False,3.0,['p'],True,0.27,0.3,0.1,1.0,2.0,0.7963326591781347,-0.0161841808487654,wait_cost,0.0,2.0,517.7921879000496,None,uk5,1,2022-04-08_15h17.55.971,threat_forest,2021.2.3,60.134532979497365,False,1.0,0.4833333333333333,0.4583333333333333,-0.7877777777777778,-0.993888888888889,0,0,0,0.4945983101843956,-0.0161841808487654,0.27,0.27,0.3,0.9,-1.1,-1.02,1.98,1.98,1.0,2.0,1.0,3.0,0,0,0
12.0,0.0,12.0,0.0,4.0,0.0,4.0,0.0,,,,left,2.359948000055738,527.211620099959,uk5,521.5558338999981,523.5702879000455,527.211620099959,None,False,2.0,['p'],False,0.4444444444444445,0.6666666666666666,0.3333333333333333,1.0,2.0,0.9656336071428248,0.0872222222222222,wait_cost,1.0,1.0,523.5702879000455,None,uk5,1,2022-04-08_15h17.55.971,threat_forest,2021.2.3,60.134532979497365,False,1.0,0.4833333333333333,0.4583333333333333,-0.7877777777777778,-0.993888888888889,1,0,0,0.858639584920082,0.0872222222222222,0.4444444444444445,0.4444444444444445,0.6666666666666666,0.6666666666666667,-0.3333333333333335,-0.5555555555555556,1.4444444444444444,1.4444444444444444,0.0,2.0,-1.0,2.0,0,0,1
12.0,0.0,12.0,0.0,5.0,0.0,5.0,0.0,,,,left,1.6483166000107303,534.0763294999488,uk5,534.0763294999488,None,529.5978221000405,531.6124459999846,True,1.0,['p'],True,0.27,0.3,0.1,1.0,2.0,0.7963326591781347,0.27,unsucc_cost,0.0,0.0,531.6124459999846,None,uk5,1,2022-04-08_15h17.55.971,threat_forest,2021.2.3,60.134532979497365,True,1.0,0.4833333333333333,0.4583333333333333,-0.7877777777777778,-0.993888888888889,0,0,1,0.4997545246931952,0.27,1.0,0.27,0.3,0.9,-1.1,-1.02,-0.020000000000000018,0.0,1.0,2.0,-1.0,1.0,1,0,0
13.0,0.0,13.0,0.0,0.0,0.0,0.0,0.0,541.3103304000106,544.8085945999483,None,right,1.12652359995991,547.3473978999536,uk5,541.3103304000106,544.8085945999483,547.3473978999536,None,True,5.0,['r'],False,0.5714285714285714,0.5714285714285714,0.0,0.0,2.0,0.6216097450797566,0.0534306849458431,succ_gain,1.0,6.0,,,uk5,1,2022-04-08_15h17.55.971,threat_forest,2021.2.3,60.134532979497365,True,19.0,0.5982142857142857,0.5407738095238095,-0.044642857142857206,-0.4162103174603175,1,1,1,0.11913643047978129,0.0534306849458431,0.5714285714285714,0.5714285714285714,0.5714285714285714,1.0,0.2857142857142856,0.2857142857142856,5.285714285714286,5.285714285714286,0.0,2.0,-1.0,5.0,0,1,1
13.0,0.0,13.0,0.0,1.0,0.0,1.0,0.0,,,,right,1.70838399999775,552.090900399955,uk5,552.090900399955,None,548.4974697999423,550.4946407000534,False,6.0,['r'],True,0.46875,0.625,0.25,2.0,2.0,0.9634951148421658,-0.055384245573103,wait_cost,0.0,5.0,550.4946407000534,None,uk5,1,2022-04-08_15h17.55.971,threat_forest,2021.2.3,60.134532979497365,False,19.0,0.5982142857142857,0.5407738095238095,-0.044642857142857206,-0.4162103174603175,1,0,0,0.5355478944518248,-0.055384245573103,0.46875,0.46875,0.625,0.75,-0.25,-0.375,5.625,5.625,1.0,2.0,1.0,6.0,0,0,1
13.0,0.0,13.0,0.0,2.0,0.0,2.0,0.0,,,,left,2.519510700018145,559.2470307999756,uk5,559.2470307999756,None,548.4974697999423,550.4946407000534,True,5.0,['r'],True,0.46875,0.625,0.25,2.0,2.0,0.9634951148421658,-0.0065486695065082,succ_gain,0.0,6.0,555.8238303000107,None,uk5,1,2022-04-08_15h17.55.971,threat_forest,2021.2.3,60.134532979497365,True,19.0,0.5982142857142857,0.5407738095238095,-0.044642857142857206,-0.4162103174603175,1,0,1,0.9240647160110794,-0.0065486695065082,0.46875,0.46875,0.625,0.75,-0.25,-0.375,4.625,4.625,1.0,2.0,-1.0,5.0,0,0,1
13.0,0.0,13.0,0.0,3.0,0.0,3.0,0.0,,,,left,1.6883499999530611,565.1290402000304,uk5,561.7890950000146,563.7828867000062,565.1290402000304,None,False,6.0,['r'],False,0.5714285714285714,0.5714285714285714,0.0,0.0,2.0,0.6216097450797566,-0.0948016553161443,wait_cost,1.0,5.0,563.7828867000062,None,uk5,1,2022-04-08_15h17.55.971,threat_forest,2021.2.3,60.134532979497365,False,19.0,0.5982142857142857,0.5407738095238095,-0.044642857142857206,-0.4162103174603175,1,1,0,0.5237517206243227,-0.0948016553161443,0.0,0.5714285714285714,0.5714285714285714,1.0,0.2857142857142856,0.2857142857142856,6.285714285714286,6.0,0.0,2.0,1.0,6.0,0,1,1
13.0,0.0,13.0,0.0,4.0,0.0,4.0,0.0,,,,left,1.811622399953194,570.8495307000121,uk5,561.7890950000146,563.7828867000062,570.8495307000121,None,False,5.0,['r'],False,0.5714285714285714,0.5714285714285714,0.0,0.0,2.0,0.6216097450797566,-0.1265680518859329,wait_cost,1.0,4.0,568.8612132000271,None,uk5,1,2022-04-08_15h17.55.971,threat_forest,2021.2.3,60.134532979497365,False,19.0,0.5982142857142857,0.5407738095238095,-0.044642857142857206,-0.4162103174603175,1,1,0,0.5942227973580749,-0.1265680518859329,0.0,0.5714285714285714,0.5714285714285714,1.0,0.2857142857142856,0.2857142857142856,5.285714285714286,5.285714285714286,0.0,2.0,-1.0,5.0,0,1,1
13.0,0.0,13.0,0.0,5.0,0.0,5.0,0.0,,,,right,1.0885845999000594,578.5232014999492,uk5,578.5232014999492,None,572.6915873000398,574.7058672000421,False,4.0,['r'],True,0.46875,0.625,0.25,2.0,2.0,0.9634951148421658,-0.2477329799107143,wait_cost,0.0,3.0,574.7058672000421,None,uk5,1,2022-04-08_15h17.55.971,threat_forest,2021.2.3,60.134532979497365,False,19.0,0.5982142857142857,0.5407738095238095,-0.044642857142857206,-0.4162103174603175,1,0,0,0.08487832021576534,-0.2477329799107143,0.0,0.46875,0.625,0.75,-0.25,-0.375,3.625,3.625,1.0,2.0,-1.0,4.0,0,0,1
13.0,0.0,13.0,0.0,6.0,0.0,6.0,0.0,,,,right,2.286082500009797,584.8707018999849,uk5,584.8707018999849,None,572.6915873000398,574.7058672000421,False,3.0,['r'],True,0.46875,0.625,0.25,2.0,2.0,0.9634951148421658,-0.3849748883928571,wait_cost,0.0,2.0,581.6495937999571,None,uk5,1,2022-04-08_15h17.55.971,threat_forest,2021.2.3,60.134532979497365,False,19.0,0.5982142857142857,0.5407738095238095,-0.044642857142857206,-0.4162103174603175,1,0,0,0.8268396539645487,-0.3849748883928571,0.0,0.46875,0.625,0.75,-0.25,-0.375,2.625,2.625,1.0,2.0,-1.0,3.0,0,0,1
13.0,0.0,13.0,0.0,7.0,0.0,7.0,0.0,,,,right,1.4711445000721142,591.6988978999434,uk5,591.6988978999434,None,572.6915873000398,574.7058672000421,False,2.0,['r'],True,0.46875,0.625,0.25,2.0,2.0,0.9634951148421658,-0.53125,wait_cost,0.0,1.0,589.1923569999635,None,uk5,1,2022-04-08_15h17.55.971,threat_forest,2021.2.3,60.134532979497365,False,19.0,0.5982142857142857,0.5407738095238095,-0.044642857142857206,-0.4162103174603175,1,0,0,0.3860406693387254,-0.53125,0.0,0.46875,0.625,0.75,-0.25,-0.375,1.625,1.625,1.0,2.0,-1.0,2.0,0,0,1
14.0,0.0,14.0,0.0,0.0,0.0,0.0,0.0,597.5639337999746,601.0643265999388,None,right,2.1255487999878824,603.7733307000017,uk5,603.7733307000017,None,597.5639337999746,601.0643265999388,False,5.0,['p'],True,0.2448979591836734,0.2857142857142857,0.1428571428571428,1.0,2.0,0.8400769154957735,-0.0256214500174809,wait_cost,0.0,4.0,,,uk5,1,2022-04-08_15h17.55.971,threat_forest,2021.2.3,60.134532979497365,False,29.0,0.47619047619047616,0.5372023809523809,-0.8594104308390023,-0.45202664399092973,0,0,0,0.7540300278511393,-0.0256214500174809,0.2448979591836734,0.2448979591836734,0.2857142857142857,0.8571428571428572,-1.2857142857142856,-1.163265306122449,3.836734693877551,3.836734693877551,1.0,2.0,-1.0,5.0,0,0,0
14.0,0.0,14.0,0.0,1.0,0.0,1.0,0.0,,,,right,1.9176618000492451,611.6664521000348,uk5,611.6664521000348,None,597.5639337999746,601.0643265999388,False,4.0,['p'],True,0.2448979591836734,0.2857142857142857,0.1428571428571428,1.0,2.0,0.8400769154957735,0.0222867135326239,wait_cost,0.0,3.0,607.9419409999391,None,uk5,1,2022-04-08_15h17.55.971,threat_forest,2021.2.3,60.134532979497365,False,29.0,0.47619047619047616,0.5372023809523809,-0.8594104308390023,-0.45202664399092973,0,0,0,0.6511066314291444,0.0222867135326239,0.2448979591836734,0.2448979591836734,0.2857142857142857,0.8571428571428572,-1.2857142857142856,-1.163265306122449,2.836734693877551,2.836734693877551,1.0,2.0,-1.0,4.0,0,0,0
14.0,0.0,14.0,0.0,2.0,0.0,2.0,0.0,,,,None,,617.1442869999446,uk5,613.6035239000339,615.6176523000468,617.1442869999446,None,False,3.0,['p'],False,0.4444444444444445,0.6666666666666666,0.3333333333333333,1.0,2.0,0.9656336071428248,0.1073405870574206,wait_cost,1.0,2.0,615.6176523000468,None,uk5,1,2022-04-08_15h17.55.971,threat_forest,2021.2.3,60.134532979497365,None,29.0,0.47619047619047616,0.5372023809523809,-0.8594104308390023,-0.45202664399092973,0,0,0,,0.1073405870574206,0.4444444444444445,0.4444444444444445,0.6666666666666666,0.6666666666666667,-0.3333333333333335,-0.5555555555555556,2.4444444444444446,2.4444444444444446,0.0,2.0,-1.0,3.0,0,0,0
14.0,0.0,14.0,0.0,3.0,0.0,3.0,0.0,,,,right,1.6628943999530748,623.56741899997,uk5,623.56741899997,None,620.1472549999598,622.1617675999878,False,2.0,['p'],True,0.2448979591836734,0.2857142857142857,0.1428571428571428,1.0,2.0,0.8400769154957735,-0.0235423495484888,wait_cost,0.0,1.0,622.1617675999878,None,uk5,1,2022-04-08_15h17.55.971,threat_forest,2021.2.3,60.134532979497365,False,29.0,0.47619047619047616,0.5372023809523809,-0.8594104308390023,-0.45202664399092973,0,0,0,0.5085596984670419,-0.0235423495484888,0.2448979591836734,0.2448979591836734,0.2857142857142857,0.8571428571428572,-1.2857142857142856,-1.163265306122449,0.8367346938775511,0.8367346938775511,1.0,2.0,-1.0,2.0,0,0,0
14.0,0.0,14.0,0.0,4.0,0.0,4.0,0.0,,,,left,0.9884437998989596,628.7607051000232,uk5,628.7607051000232,None,620.1472549999598,622.1617675999878,True,1.0,['p'],True,0.2448979591836734,0.2857142857142857,0.1428571428571428,1.0,2.0,0.8400769154957735,0.1196276557733094,unsucc_cost,0.0,0.0,627.2563357000472,None,uk5,1,2022-04-08_15h17.55.971,threat_forest,2021.2.3,60.134532979497365,True,29.0,0.47619047619047616,0.5372023809523809,-0.8594104308390023,-0.45202664399092973,0,0,1,-0.011623491908844335,0.1196276557733094,1.0,0.2448979591836734,0.2857142857142857,0.8571428571428572,-1.2857142857142856,-1.163265306122449,-0.16326530612244894,0.0,1.0,2.0,-1.0,1.0,1,0,0
15.0,0.0,15.0,0.0,0.0,0.0,0.0,0.0,634.014540300006,637.5043496999424,None,right,2.091650899965316,639.198748899973,uk5,639.198748899973,None,634.014540300006,637.5043496999424,False,4.0,['p'],True,0.24,0.3,0.2,2.0,1.0,0.9003120349047065,0.0028177647265513,wait_cost,0.0,3.0,,,uk5,1,2022-04-08_15h17.55.971,threat_forest,2021.2.3,60.134532979497365,False,9.0,0.4,0.4380952380952381,-1.3025,-1.0809552154195012,0,0,0,0.7379536584561405,0.0028177647265513,0.24,0.24,0.3,0.8,-1.7,-1.48,2.52,2.52,1.0,1.0,-1.0,4.0,0,0,0
15.0,0.0,15.0,0.0,1.0,0.0,1.0,0.0,,,,right,1.6926220000023022,644.6331070000306,uk5,644.6331070000306,None,634.014540300006,637.5043496999424,False,3.0,['p'],True,0.24,0.3,0.2,2.0,1.0,0.9003120349047065,0.0143436775355859,wait_cost,0.0,2.0,643.3082793999929,None,uk5,1,2022-04-08_15h17.55.971,threat_forest,2021.2.3,60.134532979497365,False,9.0,0.4,0.4380952380952381,-1.3025,-1.0809552154195012,0,0,0,0.5262788059256919,0.0143436775355859,0.24,0.24,0.3,0.8,-1.7,-1.48,1.52,1.52,1.0,1.0,-1.0,3.0,0,0,0
15.0,0.0,15.0,0.0,2.0,0.0,2.0,0.0,,,,right,1.7972825999604538,652.0785529999994,uk5,646.3560574000003,648.3706337000476,652.0785529999994,None,True,2.0,['p'],False,0.375,0.5,0.25,1.0,1.0,0.9850568223215076,0.0323046653466796,succ_gain,1.0,3.0,648.3706337000476,None,uk5,1,2022-04-08_15h17.55.971,threat_forest,2021.2.3,60.134532979497365,True,9.0,0.4,0.4380952380952381,-1.3025,-1.0809552154195012,0,0,1,0.5862758575185362,0.0323046653466796,0.375,0.375,0.5,0.75,-1.25,-1.125,0.875,0.875,0.0,1.0,-1.0,2.0,0,0,0
15.0,0.0,15.0,0.0,3.0,0.0,3.0,0.0,,,,right,2.1015589999733493,657.1888324000174,uk5,657.1888324000174,None,653.8989120000042,655.9130961999763,False,3.0,['p'],True,0.24,0.3,0.2,2.0,1.0,0.9003120349047065,0.037756659375,wait_cost,0.0,2.0,655.9130961999763,None,uk5,1,2022-04-08_15h17.55.971,threat_forest,2021.2.3,60.134532979497365,False,9.0,0.4,0.4380952380952381,-1.3025,-1.0809552154195012,0,0,0,0.7426794502406444,0.037756659375,0.24,0.24,0.3,0.8,-1.7,-1.48,1.52,1.52,1.0,1.0,1.0,3.0,0,0,0
15.0,0.0,15.0,0.0,4.0,0.0,4.0,0.0,,,,right,1.3189368000021204,663.5657110000029,uk5,659.3106571000535,661.3249790000264,663.5657110000029,None,True,2.0,['p'],False,0.375,0.5,0.25,1.0,1.0,0.9850568223215076,0.06428671875,unsucc_cost,1.0,0.0,661.3249790000264,None,uk5,1,2022-04-08_15h17.55.971,threat_forest,2021.2.3,60.134532979497365,True,9.0,0.4,0.4380952380952381,-1.3025,-1.0809552154195012,0,0,1,0.2768259575016335,0.06428671875,0.375,0.375,0.5,0.75,-1.25,-1.125,0.875,0.875,0.0,1.0,-1.0,2.0,0,0,0
16.0,0.0,16.0,0.0,0.0,0.0,0.0,0.0,669.8017117000418,673.2936634999933,None,left,2.066677700029686,676.0761918999488,uk5,669.8017117000418,673.2936634999933,676.0761918999488,None,False,4.0,['p'],False,0.375,0.5,0.25,1.0,1.0,0.9850568223215076,0.033201148802433,wait_cost,1.0,3.0,,,uk5,1,2022-04-08_15h17.55.971,threat_forest,2021.2.3,60.134532979497365,False,11.0,0.35,0.375,-1.3425000000000002,-1.3225000000000002,1,0,0,0.7259423420927269,0.033201148802433,0.375,0.375,0.5,0.75,-1.25,-1.125,2.875,2.875,0.0,1.0,-1.0,4.0,0,0,1
16.0,0.0,16.0,0.0,1.0,0.0,1.0,0.0,,,,right,1.387997700017877,681.1426662999438,uk5,669.8017117000418,673.2936634999933,681.1426662999438,None,True,3.0,['p'],False,0.375,0.5,0.25,1.0,1.0,0.9850568223215076,0.0399199646186828,unsucc_cost,1.0,1.0,680.1741250000196,None,uk5,1,2022-04-08_15h17.55.971,threat_forest,2021.2.3,60.134532979497365,True,11.0,0.35,0.375,-1.3425000000000002,-1.3225000000000002,1,0,1,0.32786220503560076,0.0399199646186828,0.375,0.375,0.5,0.75,-1.25,-1.125,1.875,1.875,0.0,1.0,-1.0,3.0,0,0,1
16.0,0.0,16.0,0.0,2.0,0.0,2.0,0.0,,,,left,2.0047563000116497,685.7165024999995,uk5,685.7165024999995,None,682.5555238999659,684.5698775999481,True,1.0,['p'],True,0.18,0.2,0.1,1.0,1.0,0.7058405977926203,0.0205546003417969,unsucc_cost,0.0,0.0,684.5698775999481,None,uk5,1,2022-04-08_15h17.55.971,threat_forest,2021.2.3,60.134532979497365,True,11.0,0.35,0.375,-1.3425000000000002,-1.3225000000000002,0,0,1,0.6955225072423502,0.0205546003417969,1.0,0.18,0.2,0.9,-1.7000000000000002,-1.5600000000000003,-0.5600000000000003,0.0,1.0,1.0,-1.0,1.0,1,0,0
17.0,0.0,17.0,0.0,0.0,0.0,0.0,0.0,691.4501297000097,694.9481417000061,None,left,1.4383796999463812,696.4258320999797,uk5,691.4501297000097,694.9481417000061,696.4258320999797,None,False,5.0,['p'],False,0.4166666666666667,0.5,0.1666666666666666,1.0,1.0,0.9358932809493992,0.0479638815409865,wait_cost,1.0,4.0,,,uk5,1,2022-04-08_15h17.55.971,threat_forest,2021.2.3,60.134532979497365,False,16.0,0.4,0.375,-1.1033333333333333,-1.2229166666666669,1,1,0,0.36351727169512776,0.0479638815409865,0.4166666666666667,0.4166666666666667,0.5,0.8333333333333334,-0.9999999999999998,-0.9166666666666665,4.083333333333334,4.083333333333334,0.0,1.0,-1.0,5.0,0,1,1
17.0,0.0,17.0,0.0,1.0,0.0,1.0,0.0,,,,right,2.016445999965072,701.0025411000242,uk5,701.0025411000242,None,697.8914135999512,699.9053358000237,False,4.0,['p'],True,0.27,0.3,0.1,1.0,1.0,0.7963326591781347,0.0059453945132201,wait_cost,0.0,3.0,699.9053358000237,None,uk5,1,2022-04-08_15h17.55.971,threat_forest,2021.2.3,60.134532979497365,False,16.0,0.4,0.375,-1.1033333333333333,-1.2229166666666669,0,0,0,0.7013365558827479,0.0059453945132201,0.27,0.27,0.3,0.9,-1.4,-1.29,2.71,2.71,1.0,1.0,-1.0,4.0,0,0,0
17.0,0.0,17.0,0.0,2.0,0.0,2.0,0.0,,,,right,2.609275799943134,706.5975437000161,uk5,703.0456327999709,705.051163099939,706.5975437000161,None,True,3.0,['p'],False,0.4166666666666667,0.5,0.1666666666666666,1.0,1.0,0.9358932809493992,0.0673778190072015,unsucc_cost,1.0,1.0,705.051163099939,None,uk5,1,2022-04-08_15h17.55.971,threat_forest,2021.2.3,60.134532979497365,True,16.0,0.4,0.375,-1.1033333333333333,-1.2229166666666669,1,1,1,0.9590727115461669,0.0673778190072015,0.4166666666666667,0.4166666666666667,0.5,0.8333333333333334,-0.9999999999999998,-0.9166666666666665,2.0833333333333335,2.0833333333333335,0.0,1.0,-1.0,3.0,0,1,1
17.0,0.0,17.0,0.0,3.0,0.0,3.0,0.0,,,,right,0.8088733999757096,712.9817762000021,uk5,703.0456327999709,705.051163099939,712.9817762000021,None,True,1.0,['p'],False,0.4166666666666667,0.5,0.1666666666666666,1.0,1.0,0.9358932809493992,0.0748196450617284,unsucc_cost,1.0,0.0,711.2450404999545,None,uk5,1,2022-04-08_15h17.55.971,threat_forest,2021.2.3,60.134532979497365,True,16.0,0.4,0.375,-1.1033333333333333,-1.2229166666666669,1,1,1,-0.21211286369263505,0.0748196450617284,1.0,0.4166666666666667,0.5,0.8333333333333334,-0.9999999999999998,-0.9166666666666665,0.08333333333333348,0.08333333333333348,0.0,1.0,-1.0,1.0,1,1,1
0.0,0.0,0.0,0.0,0.0,0.0,0.0,0.0,17.710009700036608,21.224465499981303,None,left,2.2250193000072613,23.845250400016084,uk5,17.710009700036608,21.224465499981306,23.845250400016084,None,False,4.0,['r'],False,0.25,0.25,0.0,0.0,2.0,0.5118595071429148,0.0318177712615933,wait_cost,1.0,3.0,,,uk5,2,2022-04-08_15h29.53.439,threat_forest,2021.2.3,60.04960099857641,False,34.0,0.4583333333333333,0.4291666666666667,-1.3888888888888888,-1.246111111111111,1,0,0,0.7997655897411501,0.0318177712615933,0.25,0.25,0.25,1.0,-1.0,-1.0,3.0,3.0,0.0,2.0,-1.0,4.0,0,0,1
0.0,0.0,0.0,0.0,1.0,0.0,1.0,0.0,,,,right,1.9522165999514984,30.520848599961028,uk5,17.710009700036608,21.224465499981306,30.520848599961028,None,True,3.0,['r'],False,0.25,0.25,0.0,0.0,2.0,0.5118595071429148,0.0633364704901298,unsucc_cost,1.0,1.0,28.1015651000198,None,uk5,2,2022-04-08_15h29.53.439,threat_forest,2021.2.3,60.04960099857641,True,34.0,0.4583333333333333,0.4291666666666667,-1.3888888888888888,-1.246111111111111,1,0,1,0.6689654449248594,0.0633364704901298,0.25,0.25,0.25,1.0,-1.0,-1.0,2.0,2.0,0.0,2.0,-1.0,3.0,0,0,1
0.0,0.0,0.0,0.0,2.0,0.0,2.0,0.0,,,,left,1.7182588999858126,36.7480461000232,uk5,36.7480461000232,None,32.49760140001308,34.51226330001373,True,1.0,['r'],True,0.2222222222222222,0.6666666666666666,0.6666666666666666,2.0,2.0,0.77250688571426,0.0614298893318472,fight_cost,0.0,0.0,34.51226330001373,None,uk5,2,2022-04-08_15h29.53.439,threat_forest,2021.2.3,60.04960099857641,True,34.0,0.4583333333333333,0.4291666666666667,-1.3888888888888888,-1.246111111111111,0,0,1,0.5413115106865428,0.0614298893318472,1.0,0.2222222222222222,0.6666666666666666,0.33333333333333337,-1.3333333333333335,-1.777777777777778,-0.7777777777777779,0.0,1.0,2.0,-1.0,1.0,1,0,0
1.0,0.0,1.0,0.0,0.0,0.0,0.0,0.0,41.759727900032885,45.25463800004218,None,None,,47.87811289995443,uk5,41.759727900032885,45.25463800004218,47.87811289995443,None,False,4.0,['p'],False,0.25,0.25,0.0,0.0,2.0,0.5118595071429148,0.0217710183950354,wait_cost,1.0,3.0,,,uk5,2,2022-04-08_15h29.53.439,threat_forest,2021.2.3,60.04960099857641,None,17.0,0.26785714285714285,0.3630952380952381,-1.2346938775510203,-1.3117913832199546,1,0,0,,0.0217710183950354,0.25,0.25,0.25,1.0,-1.0,-1.0,3.0,3.0,0.0,2.0,-1.0,4.0,0,0,1
1.0,0.0,1.0,0.0,1.0,0.0,1.0,0.0,,,,left,2.789548500091769,54.58056249993388,uk5,41.759727900032885,45.25463800004218,54.58056249993388,None,False,3.0,['p'],False,0.25,0.25,0.0,0.0,2.0,0.5118595071429148,0.0631612346701049,wait_cost,1.0,2.0,52.89505669998471,None,uk5,2,2022-04-08_15h29.53.439,threat_forest,2021.2.3,60.04960099857641,False,17.0,0.26785714285714285,0.3630952380952381,-1.2346938775510203,-1.3117913832199546,1,0,0,1.0258797548136258,0.0631612346701049,0.25,0.25,0.25,1.0,-1.0,-1.0,2.0,2.0,0.0,2.0,-1.0,3.0,0,0,1
1.0,0.0,1.0,0.0,2.0,0.0,2.0,0.0,,,,right,2.617098099901341,61.199126999941655,uk5,61.199126999941655,None,57.39102360000834,59.40549569996074,False,2.0,['p'],True,0.2040816326530612,0.2857142857142857,0.2857142857142857,2.0,2.0,0.9335459102197724,-0.00249814530404,wait_cost,0.0,1.0,59.40549569996074,None,uk5,2,2022-04-08_15h29.53.439,threat_forest,2021.2.3,60.04960099857641,False,17.0,0.26785714285714285,0.3630952380952381,-1.2346938775510203,-1.3117913832199546,0,0,0,0.9620661084783559,-0.00249814530404,0.2040816326530612,0.2040816326530612,0.2857142857142857,0.7142857142857143,-1.7142857142857144,-1.4693877551020407,0.5306122448979593,0.5306122448979593,1.0,2.0,-1.0,2.0,0,0,0
1.0,0.0,1.0,0.0,3.0,0.0,3.0,0.0,,,,left,1.5357537999516353,68.13824130001012,uk5,68.13824130001012,None,57.39102360000834,59.40549569996074,True,1.0,['p'],True,0.2040816326530612,0.2857142857142857,0.2857142857142857,2.0,2.0,0.9335459102197724,0.0755305506209147,unsucc_cost,0.0,0.0,65.84956220001914,None,uk5,2,2022-04-08_15h29.53.439,threat_forest,2021.2.3,60.04960099857641,True,17.0,0.26785714285714285,0.3630952380952381,-1.2346938775510203,-1.3117913832199546,0,0,1,0.4290213353884074,0.0755305506209147,1.0,0.2040816326530612,0.2857142857142857,0.7142857142857143,-1.7142857142857144,-1.4693877551020407,-0.46938775510204067,0.0,1.0,2.0,-1.0,1.0,1,0,0
2.0,0.0,2.0,0.0,0.0,0.0,0.0,0.0,74.72750010003801,78.22998549998738,None,right,2.077828099951148,79.64678209996782,uk5,74.72750010003801,78.22998549998738,79.64678209996782,None,True,4.0,['r'],False,0.4444444444444445,0.6666666666666666,0.3333333333333333,1.0,2.0,0.9656336071428248,0.0718624927804219,succ_gain,1.0,6.0,,,uk5,2,2022-04-08_15h29.53.439,threat_forest,2021.2.3,60.04960099857641,True,53.0,0.5,0.3839285714285714,-0.8703703703703706,-1.0525321239606955,1,1,1,0.731323165458866,0.0718624927804219,0.4444444444444445,0.4444444444444445,0.6666666666666666,0.6666666666666667,-0.3333333333333335,-0.5555555555555556,3.4444444444444446,3.4444444444444446,0.0,2.0,-1.0,4.0,0,1,1
2.0,0.0,2.0,0.0,1.0,0.0,1.0,0.0,,,,right,1.317798100062646,86.18055299995467,uk5,86.18055299995467,None,81.75168390001636,83.76617419999093,False,6.0,['r'],True,0.2592592592592592,0.3333333333333333,0.2222222222222222,2.0,2.0,0.9327883776363324,-0.0845131125086158,wait_cost,0.0,5.0,83.76617419999093,None,uk5,2,2022-04-08_15h29.53.439,threat_forest,2021.2.3,60.04960099857641,False,53.0,0.5,0.3839285714285714,-0.8703703703703706,-1.0525321239606955,0,0,0,0.2759622377471472,-0.0845131125086158,0.2592592592592592,0.2592592592592592,0.3333333333333333,0.7777777777777778,-1.3333333333333335,-1.1851851851851856,4.814814814814815,4.814814814814815,1.0,2.0,1.0,6.0,0,0,0
2.0,0.0,2.0,0.0,2.0,0.0,2.0,0.0,,,,None,,91.87179430003744,uk5,87.52956920000724,89.52722960000392,91.87179430003744,None,False,5.0,['r'],False,0.4444444444444445,0.6666666666666666,0.3333333333333333,1.0,2.0,0.9656336071428248,0.0683164578319449,wait_cost,1.0,4.0,89.52722960000392,None,uk5,2,2022-04-08_15h29.53.439,threat_forest,2021.2.3,60.04960099857641,None,53.0,0.5,0.3839285714285714,-0.8703703703703706,-1.0525321239606955,1,1,0,,0.0683164578319449,0.4444444444444445,0.4444444444444445,0.6666666666666666,0.6666666666666667,-0.3333333333333335,-0.5555555555555556,4.444444444444445,4.444444444444445,0.0,2.0,-1.0,5.0,0,1,1
2.0,0.0,2.0,0.0,3.0,0.0,3.0,0.0,,,,right,1.7119216999271885,98.05221909994724,uk5,98.05221909994724,None,94.8725619999459,96.88742119993549,False,4.0,['r'],True,0.2592592592592592,0.3333333333333333,0.2222222222222222,2.0,2.0,0.9327883776363324,0.0212394226264063,wait_cost,0.0,3.0,96.88742119993547,None,uk5,2,2022-04-08_15h29.53.439,threat_forest,2021.2.3,60.04960099857641,False,53.0,0.5,0.3839285714285714,-0.8703703703703706,-1.0525321239606955,0,0,0,0.537616540649788,0.0212394226264063,0.2592592592592592,0.2592592592592592,0.3333333333333333,0.7777777777777778,-1.3333333333333335,-1.1851851851851856,2.8148148148148144,2.8148148148148144,1.0,2.0,-1.0,4.0,0,0,0
2.0,0.0,2.0,0.0,4.0,0.0,4.0,0.0,,,,right,2.049668599967845,103.8277689999668,uk5,103.8277689999668,None,94.8725619999459,96.88742119993549,False,3.0,['r'],True,0.2592592592592592,0.3333333333333333,0.2222222222222222,2.0,2.0,0.9327883776363324,0.0435528120713304,wait_cost,0.0,2.0,101.79938240000048,None,uk5,2,2022-04-08_15h29.53.439,threat_forest,2021.2.3,60.04960099857641,False,53.0,0.5,0.3839285714285714,-0.8703703703703706,-1.0525321239606955,0,0,0,0.7176781215298939,0.0435528120713304,0.2592592592592592,0.2592592592592592,0.3333333333333333,0.7777777777777778,-1.3333333333333335,-1.1851851851851856,1.8148148148148144,1.8148148148148144,1.0,2.0,-1.0,3.0,0,0,0
2.0,0.0,2.0,0.0,5.0,0.0,5.0,0.0,,,,left,2.5441147999372333,109.1277626999654,uk5,105.89598689996636,107.89351049996912,109.1277626999654,None,False,2.0,['r'],False,0.4444444444444445,0.6666666666666666,0.3333333333333333,1.0,2.0,0.9656336071428248,0.0925925925925925,wait_cost,1.0,1.0,107.89351049996912,None,uk5,2,2022-04-08_15h29.53.439,threat_forest,2021.2.3,60.04960099857641,False,53.0,0.5,0.3839285714285714,-0.8703703703703706,-1.0525321239606955,1,1,0,0.9337827702212302,0.0925925925925925,0.4444444444444445,0.4444444444444445,0.6666666666666666,0.6666666666666667,-0.3333333333333335,-0.5555555555555556,1.4444444444444444,1.4444444444444444,0.0,2.0,-1.0,2.0,0,1,1
2.0,0.0,2.0,0.0,6.0,0.0,6.0,0.0,,,,right,1.2609865999547765,115.67521949997172,uk5,105.89598689996636,107.89351049996912,115.67521949997172,None,True,1.0,['r'],False,0.4444444444444445,0.6666666666666666,0.3333333333333333,1.0,2.0,0.9656336071428248,0.4444444444444444,succ_gain,1.0,3.0,113.70453390001784,None,uk5,2,2022-04-08_15h29.53.439,threat_forest,2021.2.3,60.04960099857641,True,53.0,0.5,0.3839285714285714,-0.8703703703703706,-1.0525321239606955,1,1,1,0.23189443040354224,0.4444444444444444,1.0,0.4444444444444445,0.6666666666666666,0.6666666666666667,-0.3333333333333335,-0.5555555555555556,0.4444444444444444,0.4444444444444444,0.0,2.0,-1.0,1.0,1,1,1
2.0,0.0,2.0,0.0,7.0,0.0,7.0,0.0,,,,left,1.9756195999216288,121.89696439995896,uk5,105.89598689996636,107.89351049996912,121.89696439995896,None,False,3.0,['r'],False,0.4444444444444445,0.6666666666666666,0.3333333333333333,1.0,2.0,0.9656336071428248,-0.3333333333333333,wait_cost,1.0,2.0,118.98296289995778,None,uk5,2,2022-04-08_15h29.53.439,threat_forest,2021.2.3,60.04960099857641,False,53.0,0.5,0.3839285714285714,-0.8703703703703706,-1.0525321239606955,1,1,0,0.6808820706320975,-0.3333333333333333,0.0,0.4444444444444445,0.6666666666666666,0.6666666666666667,-0.3333333333333335,-0.5555555555555556,2.4444444444444446,2.4444444444444446,0.0,2.0,1.0,3.0,0,1,1
3.0,0.0,3.0,0.0,0.0,0.0,0.0,0.0,127.67996650002895,131.17948009993415,None,left,2.1806589999469,133.13069359993096,uk5,127.67996650002895,131.17948009993415,133.13069359993096,None,False,5.0,['p'],False,0.4444444444444445,0.6666666666666666,0.3333333333333333,1.0,2.0,0.9656336071428248,0.0253949986159629,wait_cost,1.0,4.0,,,uk5,2,2022-04-08_15h29.53.439,threat_forest,2021.2.3,60.04960099857641,False,15.0,0.4833333333333333,0.49166666666666664,-0.8977777777777778,-0.8840740740740742,1,0,0,0.7796271246731312,0.0253949986159629,0.4444444444444445,0.4444444444444445,0.6666666666666666,0.6666666666666667,-0.3333333333333335,-0.5555555555555556,4.444444444444445,4.444444444444445,0.0,2.0,-1.0,5.0,0,0,1
3.0,0.0,3.0,0.0,1.0,0.0,1.0,0.0,,,,left,2.060831999988295,137.95113890001085,uk5,127.67996650002895,131.17948009993415,137.95113890001085,None,False,4.0,['p'],False,0.4444444444444445,0.6666666666666666,0.3333333333333333,1.0,2.0,0.9656336071428248,0.112530937087955,wait_cost,1.0,3.0,137.3493578999769,None,uk5,2,2022-04-08_15h29.53.439,threat_forest,2021.2.3,60.04960099857641,False,15.0,0.4833333333333333,0.49166666666666664,-0.8977777777777778,-0.8840740740740742,1,0,0,0.723109784751971,0.112530937087955,0.4444444444444445,0.4444444444444445,0.6666666666666666,0.6666666666666667,-0.3333333333333335,-0.5555555555555556,3.4444444444444446,3.4444444444444446,0.0,2.0,-1.0,4.0,0,0,1
3.0,0.0,3.0,0.0,2.0,0.0,2.0,0.0,,,,left,1.8083899000193924,145.3939348999411,uk5,127.67996650002895,131.17948009993415,145.3939348999411,None,False,3.0,['p'],False,0.4444444444444445,0.6666666666666666,0.3333333333333333,1.0,2.0,0.9656336071428248,0.1061548666361835,wait_cost,1.0,2.0,142.0448069999693,None,uk5,2,2022-04-08_15h29.53.439,threat_forest,2021.2.3,60.04960099857641,False,15.0,0.4833333333333333,0.49166666666666664,-0.8977777777777778,-0.8840740740740742,1,0,0,0.5924368913858843,0.1061548666361835,0.4444444444444445,0.4444444444444445,0.6666666666666666,0.6666666666666667,-0.3333333333333335,-0.5555555555555556,2.4444444444444446,2.4444444444444446,0.0,2.0,-1.0,3.0,0,0,1
3.0,0.0,3.0,0.0,3.0,0.0,3.0,0.0,,,,right,1.8360329999122769,152.59019190003164,uk5,152.59019190003164,None,147.22362810000777,149.23792179999873,False,2.0,['p'],True,0.24,0.3,0.2,2.0,2.0,0.9003120349047065,-0.0219649931412894,wait_cost,0.0,1.0,149.23792179999873,None,uk5,2,2022-04-08_15h29.53.439,threat_forest,2021.2.3,60.04960099857641,False,15.0,0.4833333333333333,0.49166666666666664,-0.8977777777777778,-0.8840740740740742,0,0,0,0.6076072658452014,-0.0219649931412894,0.24,0.24,0.3,0.8,-1.4,-1.24,0.76,0.76,1.0,2.0,-1.0,2.0,0,0,0
3.0,0.0,3.0,0.0,4.0,0.0,4.0,0.0,,,,left,1.9398890000302345,157.6535687999567,uk5,157.6535687999567,None,147.22362810000777,149.23792179999873,True,1.0,['p'],True,0.24,0.3,0.2,2.0,2.0,0.9003120349047065,0.1142565925925925,unsucc_cost,0.0,0.0,156.4647783000255,None,uk5,2,2022-04-08_15h29.53.439,threat_forest,2021.2.3,60.04960099857641,True,15.0,0.4833333333333333,0.49166666666666664,-0.8977777777777778,-0.8840740740740742,0,0,1,0.662630754959051,0.1142565925925925,1.0,0.24,0.3,0.8,-1.4,-1.24,-0.24,0.0,1.0,2.0,-1.0,1.0,1,0,0
4.0,0.0,4.0,0.0,0.0,0.0,0.0,0.0,165.42707820003852,168.9355125000002,None,right,1.8859590999782083,170.14711569994688,uk5,170.14711569994688,None,165.42707820003852,168.9355125000002,False,5.0,['r'],True,0.25,0.5,0.5,1.0,1.0,0.9463946303571862,0.0122551342604393,wait_cost,0.0,4.0,,,uk5,2,2022-04-08_15h29.53.439,threat_forest,2021.2.3,60.04960099857641,False,71.0,0.35,0.41666666666666663,-1.7350000000000003,-1.316388888888889,0,0,0,0.6344364978563986,0.0122551342604393,0.25,0.25,0.5,0.5,-2.0,-1.75,3.25,3.25,1.0,1.0,-1.0,5.0,0,0,0
4.0,0.0,4.0,0.0,1.0,0.0,1.0,0.0,,,,left,2.237169099971652,175.62869079993106,uk5,172.05045380000956,174.06505909992848,175.62869079993106,None,False,4.0,['r'],False,0.16,0.2,0.2,2.0,1.0,0.8198746470064713,-0.0029947769503126,wait_cost,1.0,3.0,174.06505909992848,None,uk5,2,2022-04-08_15h29.53.439,threat_forest,2021.2.3,60.04960099857641,False,71.0,0.35,0.41666666666666663,-1.7350000000000003,-1.316388888888889,0,0,0,0.8052112719494974,-0.0029947769503126,0.16,0.16,0.2,0.8,-2.0,-1.7200000000000004,2.2799999999999994,2.2799999999999994,0.0,1.0,-1.0,4.0,0,0,0
4.0,0.0,4.0,0.0,2.0,0.0,2.0,0.0,,,,left,1.5729648999404162,183.63242349994837,uk5,172.05045380000956,174.06505909992848,183.63242349994837,None,False,3.0,['r'],False,0.16,0.2,0.2,2.0,1.0,0.8198746470064713,-0.0032775458375002,wait_cost,1.0,2.0,179.9096189000411,None,uk5,2,2022-04-08_15h29.53.439,threat_forest,2021.2.3,60.04960099857641,False,71.0,0.35,0.41666666666666663,-1.7350000000000003,-1.316388888888889,0,0,0,0.45296230973971197,-0.0032775458375002,0.16,0.16,0.2,0.8,-2.0,-1.7200000000000004,1.2799999999999996,1.2799999999999996,0.0,1.0,-1.0,3.0,0,0,0
4.0,0.0,4.0,0.0,3.0,0.0,3.0,0.0,,,,right,2.3036393000511453,189.60826749994885,uk5,189.60826749994885,None,185.2434083999833,187.25244850001764,False,2.0,['r'],True,0.25,0.5,0.5,1.0,1.0,0.9463946303571862,0.0145074218749999,wait_cost,0.0,1.0,187.25244850001764,None,uk5,2,2022-04-08_15h29.53.439,threat_forest,2021.2.3,60.04960099857641,False,71.0,0.35,0.41666666666666663,-1.7350000000000003,-1.316388888888889,0,0,0,0.8344901767805739,0.0145074218749999,0.25,0.25,0.5,0.5,-2.0,-1.75,0.25,0.25,1.0,1.0,-1.0,2.0,0,0,0
4.0,0.0,4.0,0.0,4.0,0.0,4.0,0.0,,,,right,1.136900799931027,196.54359929997008,uk5,191.9318405999802,193.9463646999793,196.54359929997008,None,True,1.0,['r'],False,0.16,0.2,0.2,2.0,1.0,0.8198746470064713,0.0363999999999999,unsucc_cost,1.0,0.0,193.9463646999793,None,uk5,2,2022-04-08_15h29.53.439,threat_forest,2021.2.3,60.04960099857641,True,71.0,0.35,0.41666666666666663,-1.7350000000000003,-1.316388888888889,0,0,1,0.12830596375987746,0.0363999999999999,1.0,0.16,0.2,0.8,-2.0,-1.7200000000000004,-0.7200000000000004,0.0,0.0,1.0,-1.0,1.0,1,0,0
5.0,0.0,5.0,0.0,0.0,0.0,0.0,0.0,203.33925159997307,206.84031789994333,None,left,1.8035485000582407,208.4518077999819,uk5,203.33925159997307,206.84031789994333,208.4518077999819,None,False,5.0,['r'],False,0.2,0.2,0.0,0.0,2.0,0.4554859150035951,0.0163295597102297,wait_cost,1.0,4.0,,,uk5,2,2022-04-08_15h29.53.439,threat_forest,2021.2.3,60.04960099857641,False,26.0,0.2111111111111111,0.28055555555555556,-1.3654320987654323,-1.5502160493827164,1,0,0,0.5897561131863062,0.0163295597102297,0.2,0.2,0.2,1.0,-1.2000000000000002,-1.2000000000000002,3.8,3.8,0.0,2.0,-1.0,5.0,0,0,1
5.0,0.0,5.0,0.0,1.0,0.0,1.0,0.0,,,,right,1.862461299984716,213.44390770001337,uk5,213.44390770001337,None,210.2817474999465,212.29597860004287,False,4.0,['r'],True,0.1728395061728395,0.2222222222222222,0.2222222222222222,2.0,2.0,0.8571721972794328,0.003531029138176,wait_cost,0.0,3.0,212.29597860004287,None,uk5,2,2022-04-08_15h29.53.439,threat_forest,2021.2.3,60.04960099857641,False,26.0,0.2111111111111111,0.28055555555555556,-1.3654320987654323,-1.5502160493827164,1,0,0,0.6218988925240048,0.003531029138176,0.1728395061728395,0.1728395061728395,0.2222222222222222,0.7777777777777778,-1.7777777777777777,-1.5308641975308643,2.4691358024691357,2.4691358024691357,1.0,2.0,-1.0,4.0,0,0,1
5.0,0.0,5.0,0.0,2.0,0.0,2.0,0.0,,,,right,2.7300446999724954,219.66146870004013,uk5,215.33765949995723,217.34139850002248,219.66146870004013,None,True,3.0,['r'],False,0.2,0.2,0.0,0.0,2.0,0.4554859150035951,0.0695830579499888,succ_gain,1.0,5.0,217.34139850002248,None,uk5,2,2022-04-08_15h29.53.439,threat_forest,2021.2.3,60.04960099857641,True,26.0,0.2111111111111111,0.28055555555555556,-1.3654320987654323,-1.5502160493827164,1,0,1,1.0043179826791209,0.0695830579499888,0.2,0.2,0.2,1.0,-1.2000000000000002,-1.2000000000000002,1.7999999999999998,1.7999999999999998,0.0,2.0,-1.0,3.0,0,0,1
5.0,0.0,5.0,0.0,3.0,0.0,3.0,0.0,,,,right,1.2599406000226736,227.7629259999376,uk5,227.7629259999376,None,222.42204700002912,224.43476880004164,False,5.0,['r'],True,0.1728395061728395,0.2222222222222222,0.2222222222222222,2.0,2.0,0.8571721972794328,0.0649096042646315,wait_cost,0.0,4.0,224.43476880004164,None,uk5,2,2022-04-08_15h29.53.439,threat_forest,2021.2.3,60.04960099857641,False,26.0,0.2111111111111111,0.28055555555555556,-1.3654320987654323,-1.5502160493827164,1,0,0,0.23106457701298014,0.0649096042646315,0.1728395061728395,0.1728395061728395,0.2222222222222222,0.7777777777777778,-1.7777777777777777,-1.5308641975308643,3.4691358024691357,3.4691358024691357,1.0,2.0,1.0,5.0,0,0,1
5.0,0.0,5.0,0.0,4.0,0.0,4.0,0.0,,,,right,1.3992124000797048,234.63403690001,uk5,234.63403690001,None,222.42204700002912,224.43476880004164,False,4.0,['r'],True,0.1728395061728395,0.2222222222222222,0.2222222222222222,2.0,2.0,0.8571721972794328,0.0137722908093278,wait_cost,0.0,3.0,231.06189030001408,None,uk5,2,2022-04-08_15h29.53.439,threat_forest,2021.2.3,60.04960099857641,False,26.0,0.2111111111111111,0.28055555555555556,-1.3654320987654323,-1.5502160493827164,1,0,0,0.3359095069469256,0.0137722908093278,0.1728395061728395,0.1728395061728395,0.2222222222222222,0.7777777777777778,-1.7777777777777777,-1.5308641975308643,2.4691358024691357,2.4691358024691357,1.0,2.0,-1.0,4.0,0,0,1
5.0,0.0,5.0,0.0,5.0,0.0,5.0,0.0,,,,left,2.3142349999397998,241.5429373999359,uk5,236.06548099999785,238.07167320000008,241.5429373999359,None,False,3.0,['r'],False,0.2,0.2,0.0,0.0,2.0,0.4554859150035951,0.1559259259259259,wait_cost,1.0,2.0,238.07167320000008,None,uk5,2,2022-04-08_15h29.53.439,threat_forest,2021.2.3,60.04960099857641,False,26.0,0.2111111111111111,0.28055555555555556,-1.3654320987654323,-1.5502160493827164,1,0,0,0.8390791793366591,0.1559259259259259,0.2,0.2,0.2,1.0,-1.2000000000000002,-1.2000000000000002,1.7999999999999998,1.7999999999999998,0.0,2.0,-1.0,3.0,0,0,1
5.0,0.0,5.0,0.0,6.0,0.0,6.0,0.0,,,,right,1.264708900009282,246.55133089993612,uk5,246.55133089993612,None,243.88356089999436,245.89807380002458,False,2.0,['r'],True,0.1728395061728395,0.2222222222222222,0.2222222222222222,2.0,2.0,0.8571721972794328,-0.0135802469135802,wait_cost,0.0,1.0,245.89807380002455,None,uk5,2,2022-04-08_15h29.53.439,threat_forest,2021.2.3,60.04960099857641,False,26.0,0.2111111111111111,0.28055555555555556,-1.3654320987654323,-1.5502160493827164,1,0,0,0.23484197712840524,-0.0135802469135802,0.1728395061728395,0.1728395061728395,0.2222222222222222,0.7777777777777778,-1.7777777777777777,-1.5308641975308643,0.46913580246913567,0.46913580246913567,1.0,2.0,-1.0,2.0,0,0,1
5.0,0.0,5.0,0.0,7.0,0.0,7.0,0.0,,,,right,1.3426507000112906,253.24862269998997,uk5,247.84634409996212,249.86069819994736,253.24862269998997,None,True,1.0,['r'],False,0.2,0.2,0.0,0.0,2.0,0.4554859150035951,0.1999999999999999,unsucc_cost,1.0,0.0,249.86069819994736,None,uk5,2,2022-04-08_15h29.53.439,threat_forest,2021.2.3,60.04960099857641,True,26.0,0.2111111111111111,0.28055555555555556,-1.3654320987654323,-1.5502160493827164,1,0,1,0.2946457943682117,0.1999999999999999,1.0,0.2,0.2,1.0,-1.2000000000000002,-1.2000000000000002,-0.20000000000000018,0.0,0.0,2.0,-1.0,1.0,1,0,1
6.0,0.0,6.0,0.0,0.0,0.0,0.0,0.0,258.6726487999549,262.1696847999701,None,right,1.9991345999296757,263.89166910003405,uk5,263.89166910003405,None,258.6726487999549,262.1696847999701,False,5.0,['r'],True,0.375,0.5,0.25,1.0,2.0,0.9850568223215076,0.0256486737394332,wait_cost,0.0,4.0,,,uk5,2,2022-04-08_15h29.53.439,threat_forest,2021.2.3,60.04960099857641,False,45.0,0.35,0.28055555555555556,-0.9750000000000001,-1.170216049382716,1,1,0,0.6927143868831095,0.0256486737394332,0.375,0.375,0.5,0.75,-0.75,-0.75,4.25,4.25,1.0,2.0,-1.0,5.0,0,1,1
6.0,0.0,6.0,0.0,1.0,0.0,1.0,0.0,,,,None,,270.1224060000386,uk5,265.91284330002964,267.92720749997534,270.1224060000386,None,False,4.0,['r'],False,0.2,0.2,0.0,0.0,2.0,0.4554859150035951,0.0040414587402344,wait_cost,1.0,3.0,267.92720749997534,None,uk5,2,2022-04-08_15h29.53.439,threat_forest,2021.2.3,60.04960099857641,None,45.0,0.35,0.28055555555555556,-0.9750000000000001,-1.170216049382716,0,0,0,,0.0040414587402344,0.2,0.2,0.2,1.0,-1.2000000000000002,-1.2000000000000002,2.8,2.8,0.0,2.0,-1.0,4.0,0,0,0
6.0,0.0,6.0,0.0,2.0,0.0,2.0,0.0,,,,right,2.0685904999263585,277.77733970002737,uk5,265.91284330002964,267.92720749997534,277.77733970002737,None,True,3.0,['r'],False,0.2,0.2,0.0,0.0,2.0,0.4554859150035951,0.0616402343749999,unsucc_cost,1.0,1.0,275.1373344999738,None,uk5,2,2022-04-08_15h29.53.439,threat_forest,2021.2.3,60.04960099857641,True,45.0,0.35,0.28055555555555556,-0.9750000000000001,-1.170216049382716,0,0,1,0.7268674574374164,0.0616402343749999,0.2,0.2,0.2,1.0,-1.2000000000000002,-1.2000000000000002,1.7999999999999998,1.7999999999999998,0.0,2.0,-1.0,3.0,0,0,0
6.0,0.0,6.0,0.0,3.0,0.0,3.0,0.0,,,,right,1.2064092999789864,284.08446239994373,uk5,265.91284330002964,267.92720749997534,284.08446239994373,None,True,1.0,['r'],False,0.2,0.2,0.0,0.0,2.0,0.4554859150035951,0.0912812499999998,unsucc_cost,1.0,0.0,281.8810184999602,None,uk5,2,2022-04-08_15h29.53.439,threat_forest,2021.2.3,60.04960099857641,True,45.0,0.35,0.28055555555555556,-0.9750000000000001,-1.170216049382716,0,0,1,0.18764842711036459,0.0912812499999998,1.0,0.2,0.2,1.0,-1.2000000000000002,-1.2000000000000002,-0.20000000000000018,0.0,0.0,2.0,-1.0,1.0,1,0,0
7.0,0.0,7.0,0.0,0.0,0.0,0.0,0.0,288.10663179995026,291.60481379996054,None,left,1.5918338999617845,292.9883117999416,uk5,292.9883117999416,None,288.10663179995026,291.60481379996054,True,5.0,['r'],True,0.4081632653061224,0.5714285714285714,0.2857142857142857,2.0,2.0,0.9885754083994552,-0.0170150236195817,succ_gain,0.0,6.0,,,uk5,2,2022-04-08_15h29.53.439,threat_forest,2021.2.3,60.04960099857641,True,58.0,0.5357142857142857,0.44285714285714284,-0.326530612244898,-0.650765306122449,0,0,1,0.4648867477841416,-0.0170150236195817,0.4081632653061224,0.4081632653061224,0.5714285714285714,0.7142857142857143,-0.5714285714285715,-0.653061224489796,4.346938775510204,4.346938775510204,1.0,2.0,-1.0,5.0,0,0,0
7.0,0.0,7.0,0.0,1.0,0.0,1.0,0.0,,,,right,1.9138851999305189,299.2078751999652,uk5,299.2078751999652,None,288.10663179995026,291.60481379996054,False,6.0,['r'],True,0.4081632653061224,0.5714285714285714,0.2857142857142857,2.0,2.0,0.9885754083994552,-0.0789184913550894,wait_cost,0.0,5.0,296.6170075000264,None,uk5,2,2022-04-08_15h29.53.439,threat_forest,2021.2.3,60.04960099857641,False,58.0,0.5357142857142857,0.44285714285714284,-0.326530612244898,-0.650765306122449,0,0,0,0.6491353120942822,-0.0789184913550894,0.4081632653061224,0.4081632653061224,0.5714285714285714,0.7142857142857143,-0.5714285714285715,-0.653061224489796,5.346938775510204,5.346938775510204,1.0,2.0,1.0,6.0,0,0,0
7.0,0.0,7.0,0.0,2.0,0.0,2.0,0.0,,,,right,1.4343072000192478,306.2159931999631,uk5,301.1562895999523,303.16097470000386,306.2159931999631,None,True,5.0,['r'],False,0.5,0.5,0.0,0.0,2.0,0.6309297535714574,0.0975307235914345,unsucc_cost,1.0,3.0,303.16097470000386,None,uk5,2,2022-04-08_15h29.53.439,threat_forest,2021.2.3,60.04960099857641,True,58.0,0.5357142857142857,0.44285714285714284,-0.326530612244898,-0.650765306122449,1,1,1,0.36068194518917046,0.0975307235914345,0.5,0.5,0.5,1.0,0.0,0.0,5.0,5.0,0.0,2.0,-1.0,5.0,0,1,1
7.0,0.0,7.0,0.0,3.0,0.0,3.0,0.0,,,,right,1.3520376000087708,310.20583190000616,uk5,301.1562895999523,303.16097470000386,310.20583190000616,None,True,3.0,['r'],False,0.5,0.5,0.0,0.0,2.0,0.6309297535714574,0.1676078711888753,succ_gain,1.0,5.0,309.68838649999816,None,uk5,2,2022-04-08_15h29.53.439,threat_forest,2021.2.3,60.04960099857641,True,58.0,0.5357142857142857,0.44285714285714284,-0.326530612244898,-0.650765306122449,1,1,1,0.3016127878914381,0.1676078711888753,0.5,0.5,0.5,1.0,0.0,0.0,3.0,3.0,0.0,2.0,-1.0,3.0,0,1,1
7.0,0.0,7.0,0.0,4.0,0.0,4.0,0.0,,,,right,1.649807499954477,315.26820409996435,uk5,315.26820409996435,None,311.5866275000153,313.60134219995234,False,5.0,['r'],True,0.4081632653061224,0.5714285714285714,0.2857142857142857,2.0,2.0,0.9885754083994552,-0.2605074203775637,wait_cost,0.0,4.0,313.60134219995234,None,uk5,2,2022-04-08_15h29.53.439,threat_forest,2021.2.3,60.04960099857641,False,58.0,0.5357142857142857,0.44285714285714284,-0.326530612244898,-0.650765306122449,0,0,0,0.5006586144121447,-0.2605074203775637,0.0,0.4081632653061224,0.5714285714285714,0.7142857142857143,-0.5714285714285715,-0.653061224489796,4.346938775510204,4.346938775510204,1.0,2.0,1.0,5.0,0,0,0
7.0,0.0,7.0,0.0,5.0,0.0,5.0,0.0,,,,left,1.809577399981208,320.01974839996547,uk5,316.95161500002723,318.9628845000407,320.01974839996547,None,False,4.0,['r'],False,0.5,0.5,0.0,0.0,2.0,0.6309297535714574,-0.2614795918367347,wait_cost,1.0,3.0,318.9628845000407,None,uk5,2,2022-04-08_15h29.53.439,threat_forest,2021.2.3,60.04960099857641,False,58.0,0.5357142857142857,0.44285714285714284,-0.326530612244898,-0.650765306122449,1,1,0,0.5930933373435129,-0.2614795918367347,0.0,0.5,0.5,1.0,0.0,0.0,4.0,4.0,0.0,2.0,-1.0,4.0,0,1,1
7.0,0.0,7.0,0.0,6.0,0.0,6.0,0.0,,,,left,2.234844999969937,327.1585425999947,uk5,316.95161500002723,318.9628845000407,327.1585425999947,None,False,3.0,['r'],False,0.5,0.5,0.0,0.0,2.0,0.6309297535714574,-0.2729591836734694,wait_cost,1.0,2.0,323.8749828999862,None,uk5,2,2022-04-08_15h29.53.439,threat_forest,2021.2.3,60.04960099857641,False,58.0,0.5357142857142857,0.44285714285714284,-0.326530612244898,-0.650765306122449,1,1,0,0.8041718744167473,-0.2729591836734694,0.0,0.5,0.5,1.0,0.0,0.0,3.0,3.0,0.0,2.0,-1.0,3.0,0,1,1
7.0,0.0,7.0,0.0,7.0,0.0,7.0,0.0,,,,right,1.0166997000342235,334.52569269994274,uk5,334.52569269994274,None,329.41975150001235,331.43455140001606,False,2.0,['r'],True,0.4081632653061224,0.5714285714285714,0.2857142857142857,2.0,2.0,0.9885754083994552,-0.5918367346938775,wait_cost,0.0,1.0,331.43455140001606,None,uk5,2,2022-04-08_15h29.53.439,threat_forest,2021.2.3,60.04960099857641,False,58.0,0.5357142857142857,0.44285714285714284,-0.326530612244898,-0.650765306122449,0,0,0,0.01656179326030341,-0.5918367346938775,0.0,0.4081632653061224,0.5714285714285714,0.7142857142857143,-0.5714285714285715,-0.653061224489796,1.346938775510204,1.346938775510204,1.0,2.0,-1.0,2.0,0,0,0
8.0,0.0,8.0,0.0,0.0,0.0,0.0,0.0,340.8032079000259,344.30554249999113,None,right,2.223117700079456,345.7680715000024,uk5,345.7680715000024,None,340.8032079000259,344.30554249999113,False,5.0,['p'],True,0.2222222222222222,0.6666666666666666,0.6666666666666666,2.0,1.0,0.77250688571426,-0.0238664193203007,wait_cost,0.0,4.0,,,uk5,2,2022-04-08_15h29.53.439,threat_forest,2021.2.3,60.04960099857641,False,66.0,0.5,0.5178571428571428,-1.5,-0.9132653061224489,0,0,0,0.7989105800849214,-0.0238664193203007,0.2222222222222222,0.2222222222222222,0.6666666666666666,0.33333333333333337,-2.0,-2.0,3.0,3.0,1.0,1.0,-1.0,5.0,0,0,0
8.0,0.0,8.0,0.0,1.0,0.0,1.0,0.0,,,,None,,350.9160957999993,uk5,348.0192478999961,350.0337462000316,350.9160957999993,None,False,4.0,['p'],False,0.3333333333333333,0.3333333333333333,0.0,0.0,1.0,0.5793801642856949,0.0435972666768277,wait_cost,1.0,3.0,350.0337462000316,None,uk5,2,2022-04-08_15h29.53.439,threat_forest,2021.2.3,60.04960099857641,None,66.0,0.5,0.5178571428571428,-1.5,-0.9132653061224489,0,0,0,,0.0435972666768277,0.3333333333333333,0.3333333333333333,0.3333333333333333,1.0,-1.0000000000000002,-1.0000000000000002,3.0,3.0,0.0,1.0,-1.0,4.0,0,0,0
8.0,0.0,8.0,0.0,2.0,0.0,2.0,0.0,,,,right,1.8324619999621063,359.5019182999385,uk5,359.5019182999385,None,353.9305592000019,355.94524199992884,False,3.0,['p'],True,0.2222222222222222,0.6666666666666666,0.6666666666666666,2.0,1.0,0.77250688571426,-0.0127092541787329,wait_cost,0.0,2.0,355.94524199992884,None,uk5,2,2022-04-08_15h29.53.439,threat_forest,2021.2.3,60.04960099857641,False,66.0,0.5,0.5178571428571428,-1.5,-0.9132653061224489,0,0,0,0.6056604178444828,-0.0127092541787329,0.2222222222222222,0.2222222222222222,0.6666666666666666,0.33333333333333337,-2.0,-2.0,1.0,1.0,1.0,1.0,-1.0,3.0,0,0,0
8.0,0.0,8.0,0.0,3.0,0.0,3.0,0.0,,,,left,2.240362700074911,364.4402292999439,uk5,364.4402292999439,None,353.9305592000019,355.94524199992884,True,2.0,['p'],True,0.2222222222222222,0.6666666666666666,0.6666666666666666,2.0,1.0,0.77250688571426,-0.0076017375400092,fight_cost,0.0,0.0,363.37145580002107,None,uk5,2,2022-04-08_15h29.53.439,threat_forest,2021.2.3,60.04960099857641,True,66.0,0.5,0.5178571428571428,-1.5,-0.9132653061224489,0,0,1,0.8066377724356723,-0.0076017375400092,0.2222222222222222,0.2222222222222222,0.6666666666666666,0.33333333333333337,-2.0,-2.0,0.0,0.0,1.0,1.0,-1.0,2.0,0,0,0
9.0,0.0,9.0,0.0,0.0,0.0,0.0,0.0,371.68291139998473,375.1937964999816,None,right,1.376614199951291,376.0376533999806,uk5,371.68291139998473,375.19379649998154,376.0376533999806,None,True,5.0,['p'],False,0.5,0.5,0.0,0.0,1.0,0.6309297535714574,0.07495910506875,succ_gain,1.0,6.0,,,uk5,2,2022-04-08_15h29.53.439,threat_forest,2021.2.3,60.04960099857641,True,24.0,0.55,0.525,-0.9100000000000001,-1.205,1,0,1,0.3196270061630462,0.07495910506875,0.5,0.5,0.5,1.0,-0.5,-0.5,4.5,4.5,0.0,1.0,-1.0,5.0,0,0,1
9.0,0.0,9.0,0.0,1.0,0.0,1.0,0.0,,,,right,2.4349418999627237,380.28618399996776,uk5,380.28618399996776,None,377.4418977999594,379.4565321999835,False,6.0,['p'],True,0.36,0.6,0.4,2.0,1.0,0.9801625908629508,-0.1431121019999999,wait_cost,0.0,5.0,379.4565321999835,None,uk5,2,2022-04-08_15h29.53.439,threat_forest,2021.2.3,60.04960099857641,False,24.0,0.55,0.525,-0.9100000000000001,-1.205,0,0,0,0.8899228958649712,-0.1431121019999999,0.36,0.36,0.6,0.6,-1.4000000000000004,-1.3200000000000003,4.68,4.68,1.0,1.0,1.0,6.0,0,0,0
9.0,0.0,9.0,0.0,2.0,0.0,2.0,0.0,,,,left,2.533338400069624,388.3393825000385,uk5,382.7538126000436,384.76803080004174,388.3393825000385,None,False,5.0,['p'],False,0.5,0.5,0.0,0.0,1.0,0.6309297535714574,0.09949075,wait_cost,1.0,4.0,384.76803080004174,None,uk5,2,2022-04-08_15h29.53.439,threat_forest,2021.2.3,60.04960099857641,False,24.0,0.55,0.525,-0.9100000000000001,-1.205,1,0,0,0.9295379586496589,0.09949075,0.5,0.5,0.5,1.0,-0.5,-0.5,4.5,4.5,0.0,1.0,-1.0,5.0,0,0,1
9.0,0.0,9.0,0.0,3.0,0.0,3.0,0.0,,,,right,2.2644677999196574,395.922427100013,uk5,395.922427100013,None,390.8961516999407,392.9105969000375,False,4.0,['p'],True,0.36,0.6,0.4,2.0,1.0,0.9801625908629508,-0.0316195,wait_cost,0.0,3.0,392.9105969000375,None,uk5,2,2022-04-08_15h29.53.439,threat_forest,2021.2.3,60.04960099857641,False,24.0,0.55,0.525,-0.9100000000000001,-1.205,0,0,0,0.8173397644030564,-0.0316195,0.36,0.36,0.6,0.6,-1.4000000000000004,-1.3200000000000003,2.6799999999999997,2.6799999999999997,1.0,1.0,-1.0,4.0,0,0,0
9.0,0.0,9.0,0.0,4.0,0.0,4.0,0.0,,,,right,2.5005322999786586,402.3474786999868,uk5,398.2058590999805,400.22010839998256,402.3474786999868,None,True,3.0,['p'],False,0.5,0.5,0.0,0.0,1.0,0.6309297535714574,0.134975,succ_gain,1.0,4.0,400.22010839998256,None,uk5,2,2022-04-08_15h29.53.439,threat_forest,2021.2.3,60.04960099857641,True,24.0,0.55,0.525,-0.9100000000000001,-1.205,1,0,1,0.9165036292013742,0.134975,0.5,0.5,0.5,1.0,-0.5,-0.5,2.5,2.5,0.0,1.0,-1.0,3.0,0,0,1
9.0,0.0,9.0,0.0,5.0,0.0,5.0,0.0,,,,right,1.0751930999103934,408.1100630000001,uk5,408.1100630000001,None,404.8664663999807,406.8805759999668,False,4.0,['p'],True,0.36,0.6,0.4,2.0,1.0,0.9801625908629508,-0.3564,wait_cost,0.0,3.0,406.8805759999668,None,uk5,2,2022-04-08_15h29.53.439,threat_forest,2021.2.3,60.04960099857641,False,24.0,0.55,0.525,-0.9100000000000001,-1.205,0,0,0,0.07250027327210204,-0.3564,0.0,0.36,0.6,0.6,-1.4000000000000004,-1.3200000000000003,2.6799999999999997,2.6799999999999997,1.0,1.0,1.0,4.0,0,0,0
9.0,0.0,9.0,0.0,6.0,0.0,6.0,0.0,,,,left,1.346177599974908,413.6329131999519,uk5,409.2117494000122,411.2270241000224,413.6329131999519,None,False,3.0,['p'],False,0.5,0.5,0.0,0.0,1.0,0.6309297535714574,-0.285,wait_cost,1.0,2.0,411.2270241000224,None,uk5,2,2022-04-08_15h29.53.439,threat_forest,2021.2.3,60.04960099857641,False,24.0,0.55,0.525,-0.9100000000000001,-1.205,1,0,0,0.2972691690078941,-0.285,0.0,0.5,0.5,1.0,-0.5,-0.5,2.5,2.5,0.0,1.0,-1.0,3.0,0,0,1
9.0,0.0,9.0,0.0,7.0,0.0,7.0,0.0,,,,left,0.7640528000192717,418.971757399966,uk5,409.2117494000122,411.2270241000224,418.971757399966,None,False,2.0,['p'],False,0.5,0.5,0.0,0.0,1.0,0.6309297535714574,-0.5,wait_cost,1.0,1.0,417.021523399977,None,uk5,2,2022-04-08_15h29.53.439,threat_forest,2021.2.3,60.04960099857641,False,24.0,0.55,0.525,-0.9100000000000001,-1.205,1,0,0,-0.26911838223073203,-0.5,0.0,0.5,0.5,1.0,-0.5,-0.5,1.5,1.5,0.0,1.0,-1.0,2.0,0,0,1
10.0,0.0,10.0,0.0,0.0,0.0,0.0,0.0,424.18339489994105,427.6775154999923,None,left,1.7784432000480592,430.71152589994017,uk5,424.18339489994105,427.6775154999923,430.71152589994017,None,False,5.0,['r'],False,0.16,0.2,0.2,2.0,2.0,0.8198746470064713,-0.013191945967,wait_cost,1.0,4.0,,,uk5,2,2022-04-08_15h29.53.439,threat_forest,2021.2.3,60.04960099857641,False,8.0,0.35,0.45,-1.5300000000000002,-1.2200000000000002,0,0,0,0.575738374897815,-0.013191945967,0.16,0.16,0.2,0.8,-1.8000000000000003,-1.5600000000000003,3.4399999999999995,3.4399999999999995,0.0,2.0,-1.0,5.0,0,0,0
10.0,0.0,10.0,0.0,1.0,0.0,1.0,0.0,,,,left,0.5468055999372154,437.3081091999775,uk5,437.3081091999775,None,432.5159668000415,434.52122889994644,True,4.0,['r'],True,0.25,0.5,0.5,1.0,2.0,0.9463946303571862,0.039918694078125,unsucc_cost,0.0,2.0,434.5212288999464,None,uk5,2,2022-04-08_15h29.53.439,threat_forest,2021.2.3,60.04960099857641,True,8.0,0.35,0.45,-1.5300000000000002,-1.2200000000000002,0,0,1,-0.6036619328950705,0.039918694078125,0.25,0.25,0.5,0.5,-1.5,-1.5,2.5,2.5,1.0,2.0,-1.0,4.0,0,0,0
10.0,0.0,10.0,0.0,2.0,0.0,2.0,0.0,,,,None,,443.5636605999898,uk5,437.8853587999474,439.8998503999319,443.5636605999898,None,False,2.0,['r'],False,0.16,0.2,0.2,2.0,2.0,0.8198746470064713,-0.008327462,wait_cost,1.0,1.0,439.8998503999319,None,uk5,2,2022-04-08_15h29.53.439,threat_forest,2021.2.3,60.04960099857641,None,8.0,0.35,0.45,-1.5300000000000002,-1.2200000000000002,0,0,0,,-0.008327462,0.16,0.16,0.2,0.8,-1.8000000000000003,-1.5600000000000003,0.4399999999999997,0.4399999999999997,0.0,2.0,-1.0,2.0,0,0,0
10.0,0.0,10.0,0.0,3.0,0.0,3.0,0.0,,,,left,1.608095100033097,450.6283842000412,uk5,450.6283842000412,None,446.5776803999906,448.5917801000178,True,1.0,['r'],True,0.25,0.5,0.5,1.0,2.0,0.9463946303571862,0.0740562499999999,fight_cost,0.0,0.0,448.5917801000178,None,uk5,2,2022-04-08_15h29.53.439,threat_forest,2021.2.3,60.04960099857641,True,8.0,0.35,0.45,-1.5300000000000002,-1.2200000000000002,0,0,1,0.4750503108195941,0.0740562499999999,1.0,0.25,0.5,0.5,-1.5,-1.5,-0.5,0.0,1.0,2.0,-1.0,1.0,1,0,0
11.0,0.0,11.0,0.0,0.0,0.0,0.0,0.0,457.4213153999299,460.9207999999635,None,left,2.336674500023946,463.2355004999554,uk5,457.4213153999299,460.9207999999635,463.2355004999554,None,False,5.0,['r'],False,0.4444444444444445,0.6666666666666666,0.3333333333333333,1.0,1.0,0.9656336071428248,0.0480533547078672,wait_cost,1.0,4.0,,,uk5,2,2022-04-08_15h29.53.439,threat_forest,2021.2.3,60.04960099857641,False,5.0,0.4444444444444444,0.3972222222222222,-1.259259259259259,-1.3946296296296297,1,1,0,0.8487287647367981,0.0480533547078672,0.4444444444444445,0.4444444444444445,0.6666666666666666,0.6666666666666667,-1.0,-1.0,4.0,4.0,0.0,1.0,-1.0,5.0,0,1,1
11.0,0.0,11.0,0.0,1.0,0.0,1.0,0.0,,,,right,2.038517199922353,469.5660787000088,uk5,469.5660787000088,None,465.59306059998926,467.60744039993733,False,4.0,['r'],True,0.1975308641975308,0.2222222222222222,0.1111111111111111,1.0,1.0,0.7461067557824965,-0.0303802278310122,wait_cost,0.0,3.0,467.6074403999373,None,uk5,2,2022-04-08_15h29.53.439,threat_forest,2021.2.3,60.04960099857641,False,5.0,0.4444444444444444,0.3972222222222222,-1.259259259259259,-1.3946296296296297,0,0,0,0.7122226807801345,-0.0303802278310122,0.1975308641975308,0.1975308641975308,0.2222222222222222,0.8888888888888888,-1.6666666666666667,-1.5185185185185184,2.481481481481482,2.481481481481482,1.0,1.0,-1.0,4.0,0,0,0
11.0,0.0,11.0,0.0,2.0,0.0,2.0,0.0,,,,right,1.7912680000299588,474.4263849999989,uk5,474.4263849999989,None,465.59306059998926,467.60744039993733,False,3.0,['r'],True,0.1975308641975308,0.2222222222222222,0.1111111111111111,1.0,1.0,0.7461067557824965,-0.025907886353424,wait_cost,0.0,2.0,473.6518901999807,None,uk5,2,2022-04-08_15h29.53.439,threat_forest,2021.2.3,60.04960099857641,False,5.0,0.4444444444444444,0.3972222222222222,-1.259259259259259,-1.3946296296296297,0,0,0,0.5829237489750495,-0.025907886353424,0.1975308641975308,0.1975308641975308,0.2222222222222222,0.8888888888888888,-1.6666666666666667,-1.5185185185185184,1.4814814814814816,1.4814814814814816,1.0,1.0,-1.0,3.0,0,0,0
11.0,0.0,11.0,0.0,3.0,0.0,3.0,0.0,,,,left,1.6899238000623882,480.7543230999727,uk5,476.2493076999672,478.2641235999763,480.7543230999727,None,False,2.0,['r'],False,0.4444444444444445,0.6666666666666666,0.3333333333333333,1.0,1.0,0.9656336071428248,0.0670328408986132,wait_cost,1.0,1.0,478.2641235999763,None,uk5,2,2022-04-08_15h29.53.439,threat_forest,2021.2.3,60.04960099857641,False,5.0,0.4444444444444444,0.3972222222222222,-1.259259259259259,-1.3946296296296297,1,1,0,0.5246834391979748,0.0670328408986132,0.4444444444444445,0.4444444444444445,0.6666666666666666,0.6666666666666667,-1.0,-1.0,1.0,1.0,0.0,1.0,-1.0,2.0,0,1,1
11.0,0.0,11.0,0.0,4.0,0.0,4.0,0.0,,,,right,1.0893827000400051,486.22622760001104,uk5,476.2493076999672,478.2641235999763,486.22622760001104,None,True,1.0,['r'],False,0.4444444444444445,0.6666666666666666,0.3333333333333333,1.0,1.0,0.9656336071428248,0.1700960219478737,unsucc_cost,1.0,0.0,484.491733300034,None,uk5,2,2022-04-08_15h29.53.439,threat_forest,2021.2.3,60.04960099857641,True,5.0,0.4444444444444444,0.3972222222222222,-1.259259259259259,-1.3946296296296297,1,1,1,0.08561120557698333,0.1700960219478737,1.0,0.4444444444444445,0.6666666666666666,0.6666666666666667,-1.0,-1.0,0.0,0.0,0.0,1.0,-1.0,1.0,1,1,1
12.0,0.0,12.0,0.0,0.0,0.0,0.0,0.0,490.9335710000014,494.4354798999848,None,right,1.3252662000013515,497.9068044000305,uk5,490.9335710000014,494.4354798999848,497.9068044000305,None,True,4.0,['p'],False,0.5,0.5,0.0,0.0,1.0,0.6309297535714574,0.0773127614393294,unsucc_cost,1.0,2.0,,,uk5,2,2022-04-08_15h29.53.439,threat_forest,2021.2.3,60.04960099857641,True,35.0,0.5357142857142857,0.49007936507936506,-0.7806122448979592,-1.0199357520786092,1,1,1,0.2816133449207432,0.0773127614393294,0.5,0.5,0.5,1.0,-0.5,-0.5,3.5,3.5,0.0,1.0,-1.0,4.0,0,1,1
12.0,0.0,12.0,0.0,1.0,0.0,1.0,0.0,,,,left,1.3449933999218049,503.0081823000219,uk5,490.9335710000014,494.4354798999848,503.0081823000219,None,False,2.0,['p'],False,0.5,0.5,0.0,0.0,1.0,0.6309297535714574,0.0511747652003325,wait_cost,1.0,1.0,501.275766100036,None,uk5,2,2022-04-08_15h29.53.439,threat_forest,2021.2.3,60.04960099857641,False,35.0,0.5357142857142857,0.49007936507936506,-0.7806122448979592,-1.0199357520786092,1,1,0,0.29638910592042783,0.0511747652003325,0.5,0.5,0.5,1.0,-0.5,-0.5,1.5,1.5,0.0,1.0,-1.0,2.0,0,1,1
12.0,0.0,12.0,0.0,2.0,0.0,2.0,0.0,,,,right,1.22914120007772,508.4541416999418,uk5,490.9335710000014,494.4354798999848,508.4541416999418,None,True,1.0,['p'],False,0.5,0.5,0.0,0.0,1.0,0.6309297535714574,0.1232092107003671,unsucc_cost,1.0,0.0,506.3878059999552,None,uk5,2,2022-04-08_15h29.53.439,threat_forest,2021.2.3,60.04960099857641,True,35.0,0.5357142857142857,0.49007936507936506,-0.7806122448979592,-1.0199357520786092,1,1,1,0.20631571420235778,0.1232092107003671,1.0,0.5,0.5,1.0,-0.5,-0.5,0.5,0.5,0.0,1.0,-1.0,1.0,1,1,1
13.0,0.0,13.0,0.0,0.0,0.0,0.0,0.0,515.4320827999618,518.9291082000127,None,right,1.9308257000520823,521.7233022999717,uk5,521.7233022999717,None,515.4320827999618,518.9291082000127,False,4.0,['r'],True,0.2222222222222222,0.2222222222222222,0.0,0.0,1.0,0.4821593609696809,0.003270588833003,wait_cost,0.0,3.0,,,uk5,2,2022-04-08_15h29.53.439,threat_forest,2021.2.3,60.04960099857641,False,56.0,0.4444444444444444,0.49007936507936506,-1.1666666666666667,-0.9736394557823129,0,0,0,0.6579477352874422,0.003270588833003,0.2222222222222222,0.2222222222222222,0.2222222222222222,1.0,-1.3333333333333335,-1.3333333333333335,2.6666666666666665,2.6666666666666665,1.0,1.0,-1.0,4.0,0,0,0
13.0,0.0,13.0,0.0,1.0,0.0,1.0,0.0,,,,right,2.5299239000305533,527.6258245999925,uk5,527.6258245999925,None,515.4320827999618,518.9291082000127,False,3.0,['r'],True,0.2222222222222222,0.2222222222222222,0.0,0.0,1.0,0.4821593609696809,0.0200659621670138,wait_cost,0.0,2.0,525.6864653000375,None,uk5,2,2022-04-08_15h29.53.439,threat_forest,2021.2.3,60.04960099857641,False,56.0,0.4444444444444444,0.49007936507936506,-1.1666666666666667,-0.9736394557823129,0,0,0,0.9281892232477386,0.0200659621670138,0.2222222222222222,0.2222222222222222,0.2222222222222222,1.0,-1.3333333333333335,-1.3333333333333335,1.6666666666666665,1.6666666666666665,1.0,1.0,-1.0,3.0,0,0,0
13.0,0.0,13.0,0.0,2.0,0.0,2.0,0.0,,,,right,2.876080899965018,533.2040227999678,uk5,533.2040227999678,None,515.4320827999618,518.9291082000127,False,2.0,['r'],True,0.2222222222222222,0.2222222222222222,0.0,0.0,1.0,0.4821593609696809,-0.0035436671239141,wait_cost,0.0,1.0,532.1967994000297,None,uk5,2,2022-04-08_15h29.53.439,threat_forest,2021.2.3,60.04960099857641,False,56.0,0.4444444444444444,0.49007936507936506,-1.1666666666666667,-0.9736394557823129,0,0,0,1.056428568797329,-0.0035436671239141,0.2222222222222222,0.2222222222222222,0.2222222222222222,1.0,-1.3333333333333335,-1.3333333333333335,0.6666666666666665,0.6666666666666665,1.0,1.0,-1.0,2.0,0,0,0
13.0,0.0,13.0,0.0,3.0,0.0,3.0,0.0,,,,right,2.0921160000143573,538.6989741999423,uk5,536.1103648999706,538.1248443999793,538.6989741999423,None,True,1.0,['r'],False,0.4444444444444445,0.6666666666666666,0.3333333333333333,1.0,1.0,0.9656336071428248,0.0781893004115226,unsucc_cost,1.0,0.0,538.1248443999793,None,uk5,2,2022-04-08_15h29.53.439,threat_forest,2021.2.3,60.04960099857641,True,56.0,0.4444444444444444,0.49007936507936506,-1.1666666666666667,-0.9736394557823129,0,0,1,0.7381759940030657,0.0781893004115226,1.0,0.4444444444444445,0.6666666666666666,0.6666666666666667,-1.0,-1.0,0.0,0.0,0.0,1.0,-1.0,1.0,1,0,0
14.0,0.0,14.0,0.0,0.0,0.0,0.0,0.0,544.305782499956,547.8006114999298,None,left,1.619004600099288,549.4094557999633,uk5,544.305782499956,547.8006114999298,549.4094557999633,None,False,5.0,['r'],False,0.4444444444444445,0.6666666666666666,0.3333333333333333,1.0,2.0,0.9656336071428248,0.0253010211857948,wait_cost,1.0,4.0,,,uk5,2,2022-04-08_15h29.53.439,threat_forest,2021.2.3,60.04960099857641,False,25.0,0.4444444444444444,0.4444444444444444,-0.8333333333333334,-1.0,1,1,0,0.4818115160128253,0.0253010211857948,0.4444444444444445,0.4444444444444445,0.6666666666666666,0.6666666666666667,-0.3333333333333335,-0.5555555555555556,4.444444444444445,4.444444444444445,0.0,2.0,-1.0,5.0,0,1,1
14.0,0.0,14.0,0.0,1.0,0.0,1.0,0.0,,,,right,1.7772414999781176,555.2546248999424,uk5,555.2546248999424,None,551.046045999974,553.0608325999929,False,4.0,['r'],True,0.2222222222222222,0.2222222222222222,0.0,0.0,2.0,0.4821593609696809,0.0133744855967077,wait_cost,0.0,3.0,553.0608325999929,None,uk5,2,2022-04-08_15h29.53.439,threat_forest,2021.2.3,60.04960099857641,False,25.0,0.4444444444444444,0.4444444444444444,-0.8333333333333334,-1.0,0,0,0,0.5750624431338508,0.0133744855967077,0.2222222222222222,0.2222222222222222,0.2222222222222222,1.0,-1.1111111111111112,-1.1111111111111112,2.888888888888889,2.888888888888889,1.0,2.0,-1.0,4.0,0,0,0
14.0,0.0,14.0,0.0,2.0,0.0,2.0,0.0,,,,right,2.072053899988532,560.3954000000376,uk5,557.0582538000308,559.0719424999552,560.3954000000376,None,True,3.0,['r'],False,0.4444444444444445,0.6666666666666666,0.3333333333333333,1.0,2.0,0.9656336071428248,0.1121399176954732,unsucc_cost,1.0,1.0,559.0719424999552,None,uk5,2,2022-04-08_15h29.53.439,threat_forest,2021.2.3,60.04960099857641,True,25.0,0.4444444444444444,0.4444444444444444,-0.8333333333333334,-1.0,1,1,1,0.72854033756687,0.1121399176954732,0.4444444444444445,0.4444444444444445,0.6666666666666666,0.6666666666666667,-0.3333333333333335,-0.5555555555555556,2.4444444444444446,2.4444444444444446,0.0,2.0,-1.0,3.0,0,1,1
14.0,0.0,14.0,0.0,3.0,0.0,3.0,0.0,,,,right,1.2629447999643162,565.5511671999702,uk5,557.0582538000308,559.0719424999552,565.5511671999702,None,True,1.0,['r'],False,0.4444444444444445,0.6666666666666666,0.3333333333333333,1.0,2.0,0.9656336071428248,0.2222222222222222,fight_cost,1.0,0.0,564.4999850000022,None,uk5,2,2022-04-08_15h29.53.439,threat_forest,2021.2.3,60.04960099857641,True,25.0,0.4444444444444444,0.4444444444444444,-0.8333333333333334,-1.0,1,1,1,0.23344613692180513,0.2222222222222222,1.0,0.4444444444444445,0.6666666666666666,0.6666666666666667,-0.3333333333333335,-0.5555555555555556,0.4444444444444444,0.4444444444444444,0.0,2.0,-1.0,1.0,1,1,1
