miniblock.thisRepN,miniblock.thisTrialN,miniblock.thisN,miniblock.thisIndex,day.thisRepN,day.thisTrialN,day.thisN,day.thisIndex,forest.started,fixation_forest.started,fixation_forest.stopped,key_resp.keys,key_resp.rt,key_resp.started,Subject_ID,weather_left.started,weather_left.stopped,weather_right.started,weather_right.stopped,foraging T/F,in_LP,p/r heuristic,good_weather.T/F,p_succ_correct,p_succ_uncorrected,r_threat,n_oponents,gain_if_succ,weather_entropy,OP_value_difference,action_outcome,forest_side_L=0_R=1,out_LP,fixation_day.started,fixation_day.stopped,participant,session,date,expName,psychopyVersion,frameRate,foraging T/F NaNs,fora_NR,forest_mean_p,mvt_cutoff_p,forest_mean_ev,mvt_cutoff_ev,mvt_policy_eg,mvt_policy_p,fora_response,logRT,optimal policy,$\mathit{p}$ success cor + cap,$\mathit{p}$ success cor,$\mathit{p}$ success,risk threat encounter,expected gain naive,expected gain correct,expected state no bounds,expected state with bounds,weather type,gain magnitude,win stay lose shift,continuous energy state,binary energy state,$\mathit{p}$ success based MVT,expected gain based MVT
0.0,0.0,0.0,0.0,0.0,0.0,0.0,0.0,13.50716649973765,17.011053999885917,None,left,1.5038385996595025,19.75945739960298,qh13,13.50716649973765,17.011053999885917,19.75945739960298,None,False,4.0,['p'],False,0.2592592592592592,0.3333333333333333,0.2222222222222222,2.0,2.0,0.9327883776363324,0.0060894858457368,wait_cost,1.0,3.0,,,qh13,1,2023-02-28_10h21.05.610,threat_forest,2021.2.3,60.06507456375704,False,31.0,0.41666666666666663,0.41666666666666663,-0.9675925925925928,-0.9675925925925928,0,0,0,0.40802090571290095,0.0060894858457368,0.2592592592592592,0.2592592592592592,0.3333333333333333,0.7777777777777778,-1.3333333333333335,-1.1851851851851856,2.8148148148148144,2.8148148148148144,0.0,2.0,,4.0,0,0,0
0.0,0.0,0.0,0.0,1.0,0.0,1.0,0.0,,,,None,,26.851020799949765,qh13,13.50716649973765,17.011053999885917,26.851020799949765,None,False,3.0,['p'],False,0.2592592592592592,0.3333333333333333,0.2222222222222222,2.0,2.0,0.9327883776363324,0.0348746299545656,wait_cost,1.0,2.0,23.308889499865472,None,qh13,1,2023-02-28_10h21.05.610,threat_forest,2021.2.3,60.06507456375704,None,31.0,0.41666666666666663,0.41666666666666663,-0.9675925925925928,-0.9675925925925928,0,0,0,,0.0348746299545656,0.2592592592592592,0.2592592592592592,0.3333333333333333,0.7777777777777778,-1.3333333333333335,-1.1851851851851856,1.8148148148148144,1.8148148148148144,0.0,2.0,-1.0,3.0,0,0,0
0.0,0.0,0.0,0.0,2.0,0.0,2.0,0.0,,,,left,1.5142399999313056,33.13932409975678,qh13,13.50716649973765,17.011053999885917,33.13932409975678,None,False,2.0,['p'],False,0.2592592592592592,0.3333333333333333,0.2222222222222222,2.0,2.0,0.9327883776363324,-0.0142932796568574,wait_cost,1.0,1.0,31.867434399668127,None,qh13,1,2023-02-28_10h21.05.610,threat_forest,2021.2.3,60.06507456375704,False,31.0,0.41666666666666663,0.41666666666666663,-0.9675925925925928,-0.9675925925925928,0,0,0,0.41491366288240994,-0.0142932796568574,0.2592592592592592,0.2592592592592592,0.3333333333333333,0.7777777777777778,-1.3333333333333335,-1.1851851851851856,0.8148148148148144,0.8148148148148144,0.0,2.0,-1.0,2.0,0,0,0
0.0,0.0,0.0,0.0,3.0,0.0,3.0,0.0,,,,right,1.213789400178939,37.48413759982213,qh13,13.50716649973765,17.011053999885917,37.48413759982213,None,True,1.0,['p'],False,0.2592592592592592,0.3333333333333333,0.2222222222222222,2.0,2.0,0.9327883776363324,0.118950799865366,succ_gain,1.0,3.0,36.6964225997217,None,qh13,1,2023-02-28_10h21.05.610,threat_forest,2021.2.3,60.06507456375704,True,31.0,0.41666666666666663,0.41666666666666663,-0.9675925925925928,-0.9675925925925928,0,0,1,0.19374720162398087,0.118950799865366,1.0,0.2592592592592592,0.3333333333333333,0.7777777777777778,-1.3333333333333335,-1.1851851851851856,-0.18518518518518556,0.0,0.0,2.0,-1.0,1.0,1,0,0
0.0,0.0,0.0,0.0,4.0,0.0,4.0,0.0,,,,left,1.513109799940139,41.78278899984434,qh13,13.50716649973765,17.011053999885917,41.78278899984434,None,False,3.0,['p'],False,0.2592592592592592,0.3333333333333333,0.2222222222222222,2.0,2.0,0.9327883776363324,0.0776320301783265,wait_cost,1.0,2.0,40.74245899962261,None,qh13,1,2023-02-28_10h21.05.610,threat_forest,2021.2.3,60.06507456375704,False,31.0,0.41666666666666663,0.41666666666666663,-0.9675925925925928,-0.9675925925925928,0,0,0,0.41416700318439825,0.0776320301783265,0.2592592592592592,0.2592592592592592,0.3333333333333333,0.7777777777777778,-1.3333333333333335,-1.1851851851851856,1.8148148148148144,1.8148148148148144,0.0,2.0,1.0,3.0,0,0,0
0.0,0.0,0.0,0.0,5.0,0.0,5.0,0.0,,,,left,2.3166094003245234,48.47998789977282,qh13,13.50716649973765,17.011053999885917,48.47998789977282,None,False,2.0,['p'],False,0.2592592592592592,0.3333333333333333,0.2222222222222222,2.0,2.0,0.9327883776363324,-0.0578703703703703,wait_cost,1.0,1.0,45.338195899967104,None,qh13,1,2023-02-28_10h21.05.610,threat_forest,2021.2.3,60.06507456375704,False,31.0,0.41666666666666663,0.41666666666666663,-0.9675925925925928,-0.9675925925925928,0,0,0,0.8401046513186862,-0.0578703703703703,0.2592592592592592,0.2592592592592592,0.3333333333333333,0.7777777777777778,-1.3333333333333335,-1.1851851851851856,0.8148148148148144,0.8148148148148144,0.0,2.0,-1.0,2.0,0,0,0
0.0,0.0,0.0,0.0,6.0,0.0,6.0,0.0,,,,left,1.877822699956596,53.92102460004389,qh13,53.92102460004389,None,50.81679039960727,52.83116719964892,True,1.0,['p'],True,0.375,0.5,0.25,1.0,2.0,0.9850568223215076,0.375,unsucc_cost,0.0,0.0,52.83116719964892,None,qh13,1,2023-02-28_10h21.05.610,threat_forest,2021.2.3,60.06507456375704,True,31.0,0.41666666666666663,0.41666666666666663,-0.9675925925925928,-0.9675925925925928,1,0,1,0.6301129673604652,0.375,1.0,0.375,0.5,0.75,-0.75,-0.75,0.25,0.25,1.0,2.0,-1.0,1.0,1,0,1
1.0,0.0,1.0,0.0,0.0,0.0,0.0,0.0,59.99087619967759,63.49630289990455,None,left,1.1515937000513077,65.61397029971704,qh13,65.61397029971704,None,59.99087619967759,63.49630289990455,True,4.0,['r'],True,0.5714285714285714,0.5714285714285714,0.0,0.0,2.0,0.6216097450797566,0.0806960090466623,unsucc_cost,0.0,2.0,,,qh13,1,2023-02-28_10h21.05.610,threat_forest,2021.2.3,60.06507456375704,True,19.0,0.5982142857142857,0.5074404761904762,-0.044642857142857206,-0.506117724867725,1,1,1,0.14114680913594224,0.0806960090466623,0.5714285714285714,0.5714285714285714,0.5714285714285714,1.0,0.2857142857142856,0.2857142857142856,4.285714285714286,4.285714285714286,1.0,2.0,-1.0,4.0,0,1,1
1.0,0.0,1.0,0.0,1.0,0.0,1.0,0.0,,,,left,1.5995346000418067,70.65182889997959,qh13,70.65182889997959,None,59.99087619967759,63.49630289990455,True,2.0,['r'],True,0.5714285714285714,0.5714285714285714,0.0,0.0,2.0,0.6216097450797566,0.0675204179955718,succ_gain,0.0,4.0,68.79955369979143,None,qh13,1,2023-02-28_10h21.05.610,threat_forest,2021.2.3,60.06507456375704,True,19.0,0.5982142857142857,0.5074404761904762,-0.044642857142857206,-0.506117724867725,1,1,1,0.4697127119595343,0.0675204179955718,0.5714285714285714,0.5714285714285714,0.5714285714285714,1.0,0.2857142857142856,0.2857142857142856,2.2857142857142856,2.2857142857142856,1.0,2.0,-1.0,2.0,0,1,1
1.0,0.0,1.0,0.0,2.0,0.0,2.0,0.0,,,,left,1.4749972000718117,77.5539670996368,qh13,72.28295989986509,74.2942883996293,77.5539670996368,None,False,4.0,['r'],False,0.46875,0.625,0.25,2.0,2.0,0.9634951148421658,0.0243316068097185,wait_cost,1.0,3.0,74.2942883996293,None,qh13,1,2023-02-28_10h21.05.610,threat_forest,2021.2.3,60.06507456375704,False,19.0,0.5982142857142857,0.5074404761904762,-0.044642857142857206,-0.506117724867725,1,0,0,0.3886560915335826,0.0243316068097185,0.46875,0.46875,0.625,0.75,-0.25,-0.375,3.625,3.625,0.0,2.0,1.0,4.0,0,0,1
1.0,0.0,1.0,0.0,3.0,0.0,3.0,0.0,,,,left,0.7839470002800226,82.77844799961895,qh13,82.77844799961895,None,79.06295139994472,81.0712125999853,True,3.0,['r'],True,0.5714285714285714,0.5714285714285714,0.0,0.0,2.0,0.6216097450797566,0.1827383633208046,unsucc_cost,0.0,1.0,81.0712125999853,None,qh13,1,2023-02-28_10h21.05.610,threat_forest,2021.2.3,60.06507456375704,True,19.0,0.5982142857142857,0.5074404761904762,-0.044642857142857206,-0.506117724867725,1,1,1,-0.24341386260047063,0.1827383633208046,0.5714285714285714,0.5714285714285714,0.5714285714285714,1.0,0.2857142857142856,0.2857142857142856,3.2857142857142856,3.2857142857142856,1.0,2.0,-1.0,3.0,0,1,1
1.0,0.0,1.0,0.0,4.0,0.0,4.0,0.0,,,,right,1.3979831002652643,86.99201419996098,qh13,83.58583119977266,85.60030629998073,86.99201419996098,None,True,1.0,['r'],False,0.46875,0.625,0.25,2.0,2.0,0.9634951148421658,0.3303161932497608,figh_cost,1.0,0.0,85.60030629998073,None,qh13,1,2023-02-28_10h21.05.610,threat_forest,2021.2.3,60.06507456375704,True,19.0,0.5982142857142857,0.5074404761904762,-0.044642857142857206,-0.506117724867725,1,0,1,0.3350305552301573,0.3303161932497608,1.0,0.46875,0.625,0.75,-0.25,-0.375,0.625,0.625,0.0,2.0,-1.0,1.0,1,0,1
2.0,0.0,2.0,0.0,0.0,0.0,0.0,0.0,92.4984977999702,96.00765359960496,None,left,2.3195274001918733,99.18164689978585,qh13,92.4984977999702,96.00765359960496,99.18164689978585,None,False,5.0,['p'],False,0.1728395061728395,0.2222222222222222,0.2222222222222222,2.0,2.0,0.8571721972794328,-0.0270759260606772,wait_cost,1.0,4.0,,,qh13,1,2023-02-28_10h21.05.610,threat_forest,2021.2.3,60.06507456375704,False,59.0,0.3611111111111111,0.4796626984126984,-1.1404320987654322,-0.5925374779541447,0,0,0,0.8413634581133197,-0.0270759260606772,0.1728395061728395,0.1728395061728395,0.2222222222222222,0.7777777777777778,-1.7777777777777777,-1.5308641975308643,3.4691358024691357,3.4691358024691357,0.0,2.0,-1.0,5.0,0,0,0
2.0,0.0,2.0,0.0,1.0,0.0,1.0,0.0,,,,left,2.141581700183451,104.4867112999782,qh13,92.4984977999702,96.00765359960496,104.4867112999782,None,False,4.0,['p'],False,0.1728395061728395,0.2222222222222222,0.2222222222222222,2.0,2.0,0.8571721972794328,0.0062757750896342,wait_cost,1.0,3.0,103.53347979998216,None,qh13,1,2023-02-28_10h21.05.610,threat_forest,2021.2.3,60.06507456375704,False,59.0,0.3611111111111111,0.4796626984126984,-1.1404320987654322,-0.5925374779541447,0,0,0,0.761544668260084,0.0062757750896342,0.1728395061728395,0.1728395061728395,0.2222222222222222,0.7777777777777778,-1.7777777777777777,-1.5308641975308643,2.4691358024691357,2.4691358024691357,0.0,2.0,-1.0,4.0,0,0,0
2.0,0.0,2.0,0.0,2.0,0.0,2.0,0.0,,,,left,1.813370999880135,109.21895339991896,qh13,109.21895339991896,None,106.64780699973926,108.66215109964833,True,3.0,['p'],True,0.375,0.5,0.25,1.0,2.0,0.9850568223215076,0.1002439100782927,succ_gain,0.0,5.0,108.66215109964833,None,qh13,1,2023-02-28_10h21.05.610,threat_forest,2021.2.3,60.06507456375704,True,59.0,0.3611111111111111,0.4796626984126984,-1.1404320987654322,-0.5925374779541447,0,0,1,0.5951875439767282,0.1002439100782927,0.375,0.375,0.5,0.75,-0.75,-0.75,2.25,2.25,1.0,2.0,-1.0,3.0,0,0,0
2.0,0.0,2.0,0.0,3.0,0.0,3.0,0.0,,,,left,1.5910923997871578,115.25169649999587,qh13,111.0601600999944,113.07463819999248,115.25169649999587,None,False,5.0,['p'],False,0.1728395061728395,0.2222222222222222,0.2222222222222222,2.0,2.0,0.8571721972794328,-0.0057342214669643,wait_cost,1.0,4.0,113.07463819999248,None,qh13,1,2023-02-28_10h21.05.610,threat_forest,2021.2.3,60.06507456375704,False,59.0,0.3611111111111111,0.4796626984126984,-1.1404320987654322,-0.5925374779541447,0,0,0,0.464420824216826,-0.0057342214669643,0.1728395061728395,0.1728395061728395,0.2222222222222222,0.7777777777777778,-1.7777777777777777,-1.5308641975308643,3.4691358024691357,3.4691358024691357,0.0,2.0,1.0,5.0,0,0,0
2.0,0.0,2.0,0.0,4.0,0.0,4.0,0.0,,,,right,1.6078196000307798,120.59648259961978,qh13,120.59648259961978,None,116.87155719986184,118.88595949998125,False,4.0,['p'],True,0.375,0.5,0.25,1.0,2.0,0.9850568223215076,0.15702041418991,wait_cost,0.0,3.0,118.88595949998124,None,qh13,1,2023-02-28_10h21.05.610,threat_forest,2021.2.3,60.06507456375704,False,59.0,0.3611111111111111,0.4796626984126984,-1.1404320987654322,-0.5925374779541447,0,0,0,0.4748789754275294,0.15702041418991,0.375,0.375,0.5,0.75,-0.75,-0.75,3.25,3.25,1.0,2.0,-1.0,4.0,0,0,0
2.0,0.0,2.0,0.0,5.0,0.0,5.0,0.0,,,,left,1.3962324000895023,127.60093860002236,qh13,122.2330285999924,124.24748629983515,127.60093860002236,None,False,3.0,['p'],False,0.1728395061728395,0.2222222222222222,0.2222222222222222,2.0,2.0,0.8571721972794328,0.0140841716201798,wait_cost,1.0,2.0,124.24748629983516,None,qh13,1,2023-02-28_10h21.05.610,threat_forest,2021.2.3,60.06507456375704,False,59.0,0.3611111111111111,0.4796626984126984,-1.1404320987654322,-0.5925374779541447,0,0,0,0.3337774661934502,0.0140841716201798,0.1728395061728395,0.1728395061728395,0.2222222222222222,0.7777777777777778,-1.7777777777777777,-1.5308641975308643,1.4691358024691357,1.4691358024691357,0.0,2.0,-1.0,3.0,0,0,0
2.0,0.0,2.0,0.0,6.0,0.0,6.0,0.0,,,,left,1.5170121002011,132.8119165999815,qh13,122.2330285999924,124.24748629983515,132.8119165999815,None,False,2.0,['p'],False,0.1728395061728395,0.2222222222222222,0.2222222222222222,2.0,2.0,0.8571721972794328,-0.1010802469135802,wait_cost,1.0,1.0,131.04115829989314,None,qh13,1,2023-02-28_10h21.05.610,threat_forest,2021.2.3,60.06507456375704,False,59.0,0.3611111111111111,0.4796626984126984,-1.1404320987654322,-0.5925374779541447,0,0,0,0.4167426767361001,-0.1010802469135802,0.1728395061728395,0.1728395061728395,0.2222222222222222,0.7777777777777778,-1.7777777777777777,-1.5308641975308643,0.46913580246913567,0.46913580246913567,0.0,2.0,-1.0,2.0,0,0,0
2.0,0.0,2.0,0.0,7.0,0.0,7.0,0.0,,,,left,1.7550943000242114,137.05751849990338,qh13,137.05751849990338,None,134.3551302999258,136.36949689965695,True,1.0,['p'],True,0.375,0.5,0.25,1.0,2.0,0.9850568223215076,0.375,succ_gain,0.0,3.0,136.36949689965695,None,qh13,1,2023-02-28_10h21.05.610,threat_forest,2021.2.3,60.06507456375704,True,59.0,0.3611111111111111,0.4796626984126984,-1.1404320987654322,-0.5925374779541447,0,0,1,0.5625225876818336,0.375,1.0,0.375,0.5,0.75,-0.75,-0.75,0.25,0.25,1.0,2.0,-1.0,1.0,1,0,0
3.0,0.0,3.0,0.0,0.0,0.0,0.0,0.0,141.66750209964812,145.16861619986594,None,left,1.1859638998284936,146.88866299996153,qh13,146.88866299996153,None,141.66750209964812,145.16861619986594,True,4.0,['p'],True,0.4444444444444445,0.6666666666666666,0.3333333333333333,1.0,1.0,0.9656336071428248,0.0476968551938484,figh_cost,0.0,1.0,,,qh13,1,2023-02-28_10h21.05.610,threat_forest,2021.2.3,60.06507456375704,True,5.0,0.4444444444444444,0.4027777777777778,-1.259259259259259,-1.1998456790123457,1,1,1,0.1705558615190946,0.0476968551938484,0.4444444444444445,0.4444444444444445,0.6666666666666666,0.6666666666666667,-1.0,-1.0,3.0,3.0,1.0,1.0,1.0,4.0,0,1,1
3.0,0.0,3.0,0.0,1.0,0.0,1.0,0.0,,,,left,1.6189577002078297,153.27402699971572,qh13,153.27402699971572,None,141.66750209964812,145.16861619986594,True,1.0,['p'],True,0.4444444444444445,0.6666666666666666,0.3333333333333333,1.0,1.0,0.9656336071428248,0.0339196825493655,unsucc_cost,0.0,0.0,150.10687209991738,None,qh13,1,2023-02-28_10h21.05.610,threat_forest,2021.2.3,60.06507456375704,True,5.0,0.4444444444444444,0.4027777777777778,-1.259259259259259,-1.1998456790123457,1,1,1,0.48178254724351194,0.0339196825493655,1.0,0.4444444444444445,0.6666666666666666,0.6666666666666667,-1.0,-1.0,0.0,0.0,1.0,1.0,-1.0,1.0,1,1,1
4.0,0.0,4.0,0.0,0.0,0.0,0.0,0.0,158.41400799993426,161.91145979985595,None,right,1.255156600382179,164.78509779972956,qh13,158.41400799993426,161.91145979985595,164.78509779972956,None,True,5.0,['r'],False,0.4,0.4,0.0,0.0,1.0,0.6126016192893442,0.0454165613168723,unsucc_cost,1.0,3.0,,,qh13,1,2023-02-28_10h21.05.610,threat_forest,2021.2.3,60.06507456375704,True,7.0,0.45,0.4472222222222222,-1.0666666666666667,-1.162962962962963,1,0,1,0.22726034598024236,0.0454165613168723,0.4,0.4,0.4,1.0,-0.7999999999999999,-0.7999999999999999,4.2,4.2,0.0,1.0,-1.0,5.0,0,0,1
4.0,0.0,4.0,0.0,1.0,0.0,1.0,0.0,,,,right,1.1102511999197304,169.80776839982718,qh13,158.41400799993426,161.91145979985595,169.80776839982718,None,True,3.0,['r'],False,0.4,0.4,0.0,0.0,1.0,0.6126016192893442,0.0581987366255143,unsucc_cost,1.0,1.0,168.0732967997901,None,qh13,1,2023-02-28_10h21.05.610,threat_forest,2021.2.3,60.06507456375704,True,7.0,0.45,0.4472222222222222,-1.0666666666666667,-1.162962962962963,1,0,1,0.1045862959548411,0.0581987366255143,0.4,0.4,0.4,1.0,-0.7999999999999999,-0.7999999999999999,2.2,2.2,0.0,1.0,-1.0,3.0,0,0,1
4.0,0.0,4.0,0.0,2.0,0.0,2.0,0.0,,,,right,1.4792062998749316,175.73342659976333,qh13,158.41400799993426,161.91145979985595,175.73342659976333,None,True,1.0,['r'],False,0.4,0.4,0.0,0.0,1.0,0.6126016192893442,0.0636288888888888,succ_gain,1.0,2.0,172.95206459984183,None,qh13,1,2023-02-28_10h21.05.610,threat_forest,2021.2.3,60.06507456375704,True,7.0,0.45,0.4472222222222222,-1.0666666666666667,-1.162962962962963,1,0,1,0.39150566005610804,0.0636288888888888,1.0,0.4,0.4,1.0,-0.7999999999999999,-0.7999999999999999,0.20000000000000007,0.20000000000000007,0.0,1.0,-1.0,1.0,1,0,1
4.0,0.0,4.0,0.0,3.0,0.0,3.0,0.0,,,,right,2.725699200294912,180.27118429960683,qh13,180.27118429960683,None,177.23181159980595,179.24621669994667,False,2.0,['r'],True,0.3333333333333333,0.5,0.3333333333333333,2.0,1.0,1.0,0.0040555555555554,wait_cost,0.0,1.0,179.24621669994667,None,qh13,1,2023-02-28_10h21.05.610,threat_forest,2021.2.3,60.06507456375704,False,7.0,0.45,0.4472222222222222,-1.0666666666666667,-1.162962962962963,0,0,0,1.002724982466513,0.0040555555555554,0.3333333333333333,0.3333333333333333,0.5,0.6666666666666667,-1.5,-1.3333333333333335,0.6666666666666665,0.6666666666666665,1.0,1.0,1.0,2.0,0,0,0
4.0,0.0,4.0,0.0,4.0,0.0,4.0,0.0,,,,right,2.025931300129741,188.37495039962232,qh13,183.0154321999289,185.0241731000133,188.37495039962232,None,True,1.0,['r'],False,0.4,0.4,0.0,0.0,1.0,0.6126016192893442,0.1533333333333333,succ_gain,1.0,2.0,185.0241731000133,None,qh13,1,2023-02-28_10h21.05.610,threat_forest,2021.2.3,60.06507456375704,True,7.0,0.45,0.4472222222222222,-1.0666666666666667,-1.162962962962963,1,0,1,0.706029496134951,0.1533333333333333,1.0,0.4,0.4,1.0,-0.7999999999999999,-0.7999999999999999,0.20000000000000007,0.20000000000000007,0.0,1.0,-1.0,1.0,1,0,1
4.0,0.0,4.0,0.0,5.0,0.0,5.0,0.0,,,,right,2.232770400121808,193.39521199977025,qh13,193.39521199977025,None,190.4194534998387,192.4339752998203,False,2.0,['r'],True,0.3333333333333333,0.5,0.3333333333333333,2.0,1.0,1.0,-0.0333333333333334,wait_cost,0.0,1.0,192.4339752998203,None,qh13,1,2023-02-28_10h21.05.610,threat_forest,2021.2.3,60.06507456375704,False,7.0,0.45,0.4472222222222222,-1.0666666666666667,-1.162962962962963,0,0,0,0.8032431463094871,-0.0333333333333334,0.3333333333333333,0.3333333333333333,0.5,0.6666666666666667,-1.5,-1.3333333333333335,0.6666666666666665,0.6666666666666665,1.0,1.0,1.0,2.0,0,0,0
4.0,0.0,4.0,0.0,6.0,0.0,6.0,0.0,,,,left,2.0112370997667317,199.63728589983657,qh13,199.63728589983657,None,190.4194534998387,192.4339752998203,True,1.0,['r'],True,0.3333333333333333,0.5,0.3333333333333333,2.0,1.0,1.0,0.3333333333333332,unsucc_cost,0.0,0.0,197.6624171999283,None,qh13,1,2023-02-28_10h21.05.610,threat_forest,2021.2.3,60.06507456375704,True,7.0,0.45,0.4472222222222222,-1.0666666666666667,-1.162962962962963,0,0,1,0.6987500052662137,0.3333333333333332,1.0,0.3333333333333333,0.5,0.6666666666666667,-1.5,-1.3333333333333335,-0.3333333333333335,0.0,1.0,1.0,-1.0,1.0,1,0,0
5.0,0.0,5.0,0.0,0.0,0.0,0.0,0.0,205.15173809975383,208.6550317998044,None,right,1.4397460999898612,210.79335169959813,qh13,205.15173809975383,208.65503179980442,210.79335169959813,None,True,4.0,['r'],False,0.6,0.6,0.0,0.0,2.0,0.6126016192893442,0.0913331728581944,unsucc_cost,1.0,2.0,,,qh13,1,2023-02-28_10h21.05.610,threat_forest,2021.2.3,60.06507456375704,True,62.0,0.6125,0.53125,0.012499999999999956,-0.5270833333333333,1,1,1,0.3644667785903221,0.0913331728581944,0.6,0.6,0.6,1.0,0.3999999999999999,0.3999999999999999,4.4,4.4,0.0,2.0,-1.0,4.0,0,1,1
5.0,0.0,5.0,0.0,1.0,0.0,1.0,0.0,,,,right,2.750104600097984,214.9750827997923,qh13,214.9750827997923,None,212.26542499987409,214.27993429964408,False,2.0,['r'],True,0.46875,0.625,0.25,2.0,2.0,0.9634951148421658,-0.0137064703989028,wait_cost,0.0,1.0,214.27993429964408,None,qh13,1,2023-02-28_10h21.05.610,threat_forest,2021.2.3,60.06507456375704,False,62.0,0.6125,0.53125,0.012499999999999956,-0.5270833333333333,1,0,0,1.0116389473543814,-0.0137064703989028,0.46875,0.46875,0.625,0.75,-0.25,-0.375,1.625,1.625,1.0,2.0,-1.0,2.0,0,0,1
5.0,0.0,5.0,0.0,2.0,0.0,2.0,0.0,,,,left,1.7923169997520745,223.16019179997969,qh13,223.16019179997969,None,212.26542499987409,214.27993429964408,True,1.0,['r'],True,0.46875,0.625,0.25,2.0,2.0,0.9634951148421658,0.3116130710095167,unsucc_cost,0.0,0.0,219.7581603997387,None,qh13,1,2023-02-28_10h21.05.610,threat_forest,2021.2.3,60.06507456375704,True,62.0,0.6125,0.53125,0.012499999999999956,-0.5270833333333333,1,0,1,0.5835091960913542,0.3116130710095167,1.0,0.46875,0.625,0.75,-0.25,-0.375,0.625,0.625,1.0,2.0,-1.0,1.0,1,0,1
6.0,0.0,6.0,0.0,0.0,0.0,0.0,0.0,229.65299709979445,233.14729660004377,None,left,1.948574900161475,233.85806699981916,qh13,233.85806699981916,None,229.65299709979445,233.14729660004377,True,4.0,['r'],True,0.3061224489795918,0.4285714285714285,0.2857142857142857,2.0,2.0,0.9885754083994552,-0.0033191472701769,figh_cost,0.0,1.0,,,qh13,1,2023-02-28_10h21.05.610,threat_forest,2021.2.3,60.06507456375704,True,33.0,0.41428571428571426,0.5133928571428572,-0.7306122448979593,-0.35905612244897966,0,0,1,0.6670982849662107,-0.0033191472701769,0.3061224489795918,0.3061224489795918,0.4285714285714285,0.7142857142857143,-1.1428571428571432,-1.0612244897959187,2.9387755102040813,2.9387755102040813,1.0,2.0,-1.0,4.0,0,0,0
6.0,0.0,6.0,0.0,1.0,0.0,1.0,0.0,,,,right,1.807616800069809,239.34604940004647,qh13,235.82668579975143,237.84111379971728,239.34604940004647,None,True,1.0,['r'],False,0.4,0.4,0.0,0.0,2.0,0.6126016192893442,0.133064422601925,unsucc_cost,1.0,0.0,237.84111379971728,None,qh13,1,2023-02-28_10h21.05.610,threat_forest,2021.2.3,60.06507456375704,True,33.0,0.41428571428571426,0.5133928571428572,-0.7306122448979593,-0.35905612244897966,0,0,1,0.5920092926420303,0.133064422601925,1.0,0.4,0.4,1.0,-0.3999999999999999,-0.3999999999999999,0.6000000000000001,0.6000000000000001,0.0,2.0,-1.0,1.0,1,0,0
7.0,0.0,7.0,0.0,0.0,0.0,0.0,0.0,245.8205564999953,249.31592019973323,None,left,1.5372533001936972,251.9072925997898,qh13,251.9072925997898,None,245.8205564999953,249.31592019973323,True,4.0,['r'],True,0.6,0.6,0.0,0.0,1.0,0.6126016192893442,0.106823090374617,succ_gain,0.0,5.0,,,qh13,1,2023-02-28_10h21.05.610,threat_forest,2021.2.3,60.06507456375704,True,38.0,0.6125,0.5133928571428572,-0.5218750000000001,-0.6262436224489797,1,1,1,0.4299972526656588,0.106823090374617,0.6,0.6,0.6,1.0,-0.20000000000000007,-0.20000000000000007,3.8,3.8,1.0,1.0,-1.0,4.0,0,1,1
7.0,0.0,7.0,0.0,1.0,0.0,1.0,0.0,,,,left,2.4539502998813987,257.41863540001214,qh13,253.4771044999361,255.49152299994603,257.41863540001214,None,False,5.0,['r'],False,0.46875,0.625,0.25,2.0,1.0,0.9634951148421658,0.0131611684406362,wait_cost,1.0,4.0,255.49152299994603,None,qh13,1,2023-02-28_10h21.05.610,threat_forest,2021.2.3,60.06507456375704,False,38.0,0.6125,0.5133928571428572,-0.5218750000000001,-0.6262436224489797,0,0,0,0.8976990933865645,0.0131611684406362,0.46875,0.46875,0.625,0.75,-0.875,-0.84375,4.15625,4.15625,0.0,1.0,1.0,5.0,0,0,0
7.0,0.0,7.0,0.0,2.0,0.0,2.0,0.0,,,,left,2.3429287001490597,265.36974459979683,qh13,253.4771044999361,255.49152299994603,265.36974459979683,None,False,4.0,['r'],False,0.46875,0.625,0.25,2.0,1.0,0.9634951148421658,0.014409303832054,wait_cost,1.0,3.0,261.919137599878,None,qh13,1,2023-02-28_10h21.05.610,threat_forest,2021.2.3,60.06507456375704,False,38.0,0.6125,0.5133928571428572,-0.5218750000000001,-0.6262436224489797,0,0,0,0.8514017280549692,0.014409303832054,0.46875,0.46875,0.625,0.75,-0.875,-0.84375,3.15625,3.15625,0.0,1.0,-1.0,4.0,0,0,0
7.0,0.0,7.0,0.0,3.0,0.0,3.0,0.0,,,,left,1.2232825001701713,270.3848321996629,qh13,270.3848321996629,None,267.7304075998254,269.74465399980545,True,3.0,['r'],True,0.6,0.6,0.0,0.0,1.0,0.6126016192893442,0.2013934020996093,succ_gain,0.0,4.0,269.74465399980545,None,qh13,1,2023-02-28_10h21.05.610,threat_forest,2021.2.3,60.06507456375704,True,38.0,0.6125,0.5133928571428572,-0.5218750000000001,-0.6262436224489797,1,1,1,0.2015378195406092,0.2013934020996093,0.6,0.6,0.6,1.0,-0.20000000000000007,-0.20000000000000007,2.8,2.8,1.0,1.0,-1.0,3.0,0,1,1
7.0,0.0,7.0,0.0,4.0,0.0,4.0,0.0,,,,left,1.5724574998021126,276.1698100999929,qh13,271.62655469961464,273.64104350004345,276.1698100999929,None,False,4.0,['r'],False,0.46875,0.625,0.25,2.0,1.0,0.9634951148421658,-0.012352294921875,wait_cost,1.0,3.0,273.64104350004345,None,qh13,1,2023-02-28_10h21.05.610,threat_forest,2021.2.3,60.06507456375704,False,38.0,0.6125,0.5133928571428572,-0.5218750000000001,-0.6262436224489797,0,0,0,0.4526396820743489,-0.012352294921875,0.46875,0.46875,0.625,0.75,-0.875,-0.84375,3.15625,3.15625,0.0,1.0,1.0,4.0,0,0,0
7.0,0.0,7.0,0.0,5.0,0.0,5.0,0.0,,,,left,1.2369438000023365,283.5223967996426,qh13,283.5223967996426,None,277.7710108999163,279.78539289999753,True,3.0,['r'],True,0.6,0.6,0.0,0.0,1.0,0.6126016192893442,0.2465625,succ_gain,0.0,4.0,279.78539289999753,None,qh13,1,2023-02-28_10h21.05.610,threat_forest,2021.2.3,60.06507456375704,True,38.0,0.6125,0.5133928571428572,-0.5218750000000001,-0.6262436224489797,1,1,1,0.2126436598821736,0.2465625,0.6,0.6,0.6,1.0,-0.20000000000000007,-0.20000000000000007,2.8,2.8,1.0,1.0,-1.0,3.0,0,1,1
7.0,0.0,7.0,0.0,6.0,0.0,6.0,0.0,,,,left,1.1996696996502578,289.1956125996076,qh13,289.1956125996076,None,277.7710108999163,279.78539289999753,True,4.0,['r'],True,0.6,0.6,0.0,0.0,1.0,0.6126016192893442,0.0,succ_gain,0.0,5.0,286.7954037999734,None,qh13,1,2023-02-28_10h21.05.610,threat_forest,2021.2.3,60.06507456375704,True,38.0,0.6125,0.5133928571428572,-0.5218750000000001,-0.6262436224489797,1,1,1,0.18204626861418868,0.0,0.0,0.6,0.6,1.0,-0.20000000000000007,-0.20000000000000007,3.8,3.8,1.0,1.0,1.0,4.0,0,1,1
7.0,0.0,7.0,0.0,7.0,0.0,7.0,0.0,,,,left,1.055250800214708,295.21003929991275,qh13,295.21003929991275,None,277.7710108999163,279.78539289999753,True,5.0,['r'],True,0.6,0.6,0.0,0.0,1.0,0.6126016192893442,0.0,succ_gain,0.0,6.0,292.4400760000572,None,qh13,1,2023-02-28_10h21.05.610,threat_forest,2021.2.3,60.06507456375704,True,38.0,0.6125,0.5133928571428572,-0.5218750000000001,-0.6262436224489797,1,1,1,0.05377846399784105,0.0,0.0,0.6,0.6,1.0,-0.20000000000000007,-0.20000000000000007,4.8,4.8,1.0,1.0,1.0,5.0,0,1,1
8.0,0.0,8.0,0.0,0.0,0.0,0.0,0.0,301.53711819974706,305.0450919000432,None,left,1.2820913000032306,308.4190152999945,qh13,308.4190152999945,None,301.53711819974706,305.0450919000432,True,4.0,['r'],True,0.25,0.25,0.0,0.0,2.0,0.5118595071429148,0.0217710183950354,unsucc_cost,0.0,2.0,,,qh13,1,2023-02-28_10h21.05.610,threat_forest,2021.2.3,60.06507456375704,True,17.0,0.26785714285714285,0.4401785714285714,-1.2346938775510203,-0.8782844387755102,0,0,1,0.24849257281387263,0.0217710183950354,0.25,0.25,0.25,1.0,-1.0,-1.0,3.0,3.0,1.0,2.0,1.0,4.0,0,0,0
8.0,0.0,8.0,0.0,1.0,0.0,1.0,0.0,,,,right,2.380381300114095,315.23574330005795,qh13,315.23574330005795,None,301.53711819974706,305.0450919000432,False,2.0,['r'],True,0.25,0.25,0.0,0.0,2.0,0.5118595071429148,0.0114206737974505,wait_cost,0.0,1.0,311.7386457999237,None,qh13,1,2023-02-28_10h21.05.610,threat_forest,2021.2.3,60.06507456375704,False,17.0,0.26785714285714285,0.4401785714285714,-1.2346938775510203,-0.8782844387755102,0,0,0,0.8672606849830835,0.0114206737974505,0.25,0.25,0.25,1.0,-1.0,-1.0,1.0,1.0,1.0,2.0,-1.0,2.0,0,0,0
8.0,0.0,8.0,0.0,2.0,0.0,2.0,0.0,,,,right,1.242821500170976,322.3729610997252,qh13,317.6336286999285,319.64800519961864,322.3729610997252,None,True,1.0,['r'],False,0.2040816326530612,0.2857142857142857,0.2857142857142857,2.0,2.0,0.9335459102197724,0.0571401765820203,unsucc_cost,1.0,0.0,319.64800519961864,None,qh13,1,2023-02-28_10h21.05.610,threat_forest,2021.2.3,60.06507456375704,True,17.0,0.26785714285714285,0.4401785714285714,-1.2346938775510203,-0.8782844387755102,0,0,1,0.21738419817064966,0.0571401765820203,1.0,0.2040816326530612,0.2857142857142857,0.7142857142857143,-1.7142857142857144,-1.4693877551020407,-0.46938775510204067,0.0,0.0,2.0,-1.0,1.0,1,0,0
9.0,0.0,9.0,0.0,0.0,0.0,0.0,0.0,326.54128269990906,330.04281539982185,None,right,2.0672048004344106,333.3434416996315,qh13,326.54128269990906,330.04281539982185,333.3434416996315,None,True,5.0,['p'],False,0.4444444444444445,0.6666666666666666,0.3333333333333333,1.0,2.0,0.9656336071428248,0.0381387997233528,succ_gain,1.0,6.0,,,qh13,1,2023-02-28_10h21.05.610,threat_forest,2021.2.3,60.06507456375704,True,41.0,0.43333333333333335,0.35059523809523807,-0.9677777777777778,-1.1012358276643992,1,1,1,0.726197356795018,0.0381387997233528,0.4444444444444445,0.4444444444444445,0.6666666666666666,0.6666666666666667,-0.3333333333333335,-0.5555555555555556,4.444444444444445,4.444444444444445,0.0,2.0,-1.0,5.0,0,1,1
9.0,0.0,9.0,0.0,1.0,0.0,1.0,0.0,,,,right,2.209077099803835,338.42826689966023,qh13,338.42826689966023,None,335.433566799853,337.44815699988976,False,6.0,['p'],True,0.18,0.2,0.1,1.0,2.0,0.7058405977926203,-0.0717833742024759,wait_cost,0.0,5.0,337.44815699988976,None,qh13,1,2023-02-28_10h21.05.610,threat_forest,2021.2.3,60.06507456375704,False,41.0,0.43333333333333335,0.35059523809523807,-0.9677777777777778,-1.1012358276643992,0,0,0,0.7925748264109884,-0.0717833742024759,0.18,0.18,0.2,0.9,-1.5000000000000002,-1.3800000000000001,4.62,4.62,1.0,2.0,1.0,6.0,0,0,0
9.0,0.0,9.0,0.0,2.0,0.0,2.0,0.0,,,,right,1.6705706003122032,344.8467469997704,qh13,344.8467469997704,None,335.433566799853,337.44815699988976,False,5.0,['p'],True,0.18,0.2,0.1,1.0,2.0,0.7058405977926203,-0.0142855576771834,wait_cost,0.0,4.0,342.6767189996317,None,qh13,1,2023-02-28_10h21.05.610,threat_forest,2021.2.3,60.06507456375704,False,41.0,0.43333333333333335,0.35059523809523807,-0.9677777777777778,-1.1012358276643992,0,0,0,0.5131652449040818,-0.0142855576771834,0.18,0.18,0.2,0.9,-1.5000000000000002,-1.3800000000000001,3.62,3.62,1.0,2.0,-1.0,5.0,0,0,0
9.0,0.0,9.0,0.0,3.0,0.0,3.0,0.0,,,,right,1.1508097001351416,351.42584449984133,qh13,346.54012639960274,348.55454989988357,351.42584449984133,None,True,4.0,['p'],False,0.4444444444444445,0.6666666666666666,0.3333333333333333,1.0,2.0,0.9656336071428248,0.1170075738454504,unsucc_cost,1.0,2.0,348.5545498998836,None,qh13,1,2023-02-28_10h21.05.610,threat_forest,2021.2.3,60.06507456375704,True,41.0,0.43333333333333335,0.35059523809523807,-0.9677777777777778,-1.1012358276643992,1,1,1,0.14046578169617727,0.1170075738454504,0.4444444444444445,0.4444444444444445,0.6666666666666666,0.6666666666666667,-0.3333333333333335,-0.5555555555555556,3.4444444444444446,3.4444444444444446,0.0,2.0,-1.0,4.0,0,1,1
9.0,0.0,9.0,0.0,4.0,0.0,4.0,0.0,,,,right,2.2936375001445413,355.5843916996382,qh13,346.54012639960274,348.55454989988357,355.5843916996382,None,True,2.0,['p'],False,0.4444444444444445,0.6666666666666666,0.3333333333333333,1.0,2.0,0.9656336071428248,0.1322222222222222,unsucc_cost,1.0,0.0,354.6154238996096,None,qh13,1,2023-02-28_10h21.05.610,threat_forest,2021.2.3,60.06507456375704,True,41.0,0.43333333333333335,0.35059523809523807,-0.9677777777777778,-1.1012358276643992,1,1,1,0.8301389853594257,0.1322222222222222,0.4444444444444445,0.4444444444444445,0.6666666666666666,0.6666666666666667,-0.3333333333333335,-0.5555555555555556,1.4444444444444444,1.4444444444444444,0.0,2.0,-1.0,2.0,0,1,1
10.0,0.0,10.0,0.0,0.0,0.0,0.0,0.0,363.5842017997056,367.07877129968256,None,left,1.6395525000989437,368.99579569976777,qh13,363.5842017997056,367.07877129968256,368.99579569976777,None,False,4.0,['r'],False,0.25,0.5,0.5,2.0,1.0,0.9463946303571862,0.0015300455080301,wait_cost,1.0,3.0,,,qh13,1,2023-02-28_10h21.05.610,threat_forest,2021.2.3,60.06507456375704,False,43.0,0.41666666666666663,0.425,-1.375,-1.171388888888889,0,0,0,0.49442333880813594,0.0015300455080301,0.25,0.25,0.5,0.5,-2.0,-1.75,2.25,2.25,0.0,1.0,-1.0,4.0,0,0,0
10.0,0.0,10.0,0.0,1.0,0.0,1.0,0.0,,,,left,1.6949546998366714,373.83286239998415,qh13,363.5842017997056,367.07877129968256,373.83286239998415,None,False,3.0,['r'],False,0.25,0.5,0.5,2.0,1.0,0.9463946303571862,0.0077793451003086,wait_cost,1.0,2.0,372.6818071999587,None,qh13,1,2023-02-28_10h21.05.610,threat_forest,2021.2.3,60.06507456375704,False,43.0,0.41666666666666663,0.425,-1.375,-1.171388888888889,0,0,0,0.5276560147151982,0.0077793451003086,0.25,0.25,0.5,0.5,-2.0,-1.75,1.25,1.25,0.0,1.0,-1.0,3.0,0,0,0
10.0,0.0,10.0,0.0,2.0,0.0,2.0,0.0,,,,left,1.4980869004502892,378.463149999734,qh13,363.5842017997056,367.07877129968256,378.463149999734,None,False,2.0,['r'],False,0.25,0.5,0.5,2.0,1.0,0.9463946303571862,0.0095154562114198,wait_cost,1.0,1.0,377.5606967997737,None,qh13,1,2023-02-28_10h21.05.610,threat_forest,2021.2.3,60.06507456375704,False,43.0,0.41666666666666663,0.425,-1.375,-1.171388888888889,0,0,0,0.40418889439395733,0.0095154562114198,0.25,0.25,0.5,0.5,-2.0,-1.75,0.25,0.25,0.0,1.0,-1.0,2.0,0,0,0
10.0,0.0,10.0,0.0,3.0,0.0,3.0,0.0,,,,right,1.408312600106001,384.8718260996975,qh13,363.5842017997056,367.07877129968256,384.8718260996975,None,True,1.0,['r'],False,0.25,0.5,0.5,2.0,1.0,0.9463946303571862,0.0310149016203703,unsucc_cost,1.0,0.0,382.0065981997177,None,qh13,1,2023-02-28_10h21.05.610,threat_forest,2021.2.3,60.06507456375704,True,43.0,0.41666666666666663,0.425,-1.375,-1.171388888888889,0,0,1,0.34239225021443626,0.0310149016203703,1.0,0.25,0.5,0.5,-2.0,-1.75,-0.75,0.0,0.0,1.0,-1.0,1.0,1,0,0
11.0,0.0,11.0,0.0,0.0,0.0,0.0,0.0,389.4676695996896,392.9698657998815,None,right,2.5073871999047697,396.5709913000464,qh13,396.5709913000464,None,389.4676695996896,392.9698657998815,False,4.0,['p'],True,0.2448979591836734,0.2857142857142857,0.1428571428571428,1.0,2.0,0.8400769154957735,0.0036753268254111,wait_cost,0.0,3.0,,,qh13,1,2023-02-28_10h21.05.610,threat_forest,2021.2.3,60.06507456375704,False,42.0,0.39285714285714285,0.40476190476190477,-0.9566326530612245,-1.1658163265306123,1,0,0,0.9192412547592508,0.0036753268254111,0.2448979591836734,0.2448979591836734,0.2857142857142857,0.8571428571428572,-1.2857142857142856,-1.163265306122449,2.836734693877551,2.836734693877551,1.0,2.0,-1.0,4.0,0,0,1
11.0,0.0,11.0,0.0,1.0,0.0,1.0,0.0,,,,right,1.386232300195843,402.11527139972895,qh13,399.1074993996881,401.1216503996402,402.11527139972895,None,True,3.0,['p'],False,0.375,0.5,0.25,1.0,2.0,0.9850568223215076,0.078614571109881,unsucc_cost,1.0,1.0,401.1216503996402,None,qh13,1,2023-02-28_10h21.05.610,threat_forest,2021.2.3,60.06507456375704,True,42.0,0.39285714285714285,0.40476190476190477,-0.9566326530612245,-1.1658163265306123,1,0,1,0.3265894914825086,0.078614571109881,0.375,0.375,0.5,0.75,-0.75,-0.75,2.25,2.25,0.0,2.0,-1.0,3.0,0,0,1
11.0,0.0,11.0,0.0,2.0,0.0,2.0,0.0,,,,left,1.453682200051844,408.5572223998606,qh13,408.5572223998606,None,403.5197435999289,405.5342401997186,True,1.0,['p'],True,0.2448979591836734,0.2857142857142857,0.1428571428571428,1.0,2.0,0.8400769154957735,0.0944428399033169,unsucc_cost,0.0,0.0,405.5342401997186,None,qh13,1,2023-02-28_10h21.05.610,threat_forest,2021.2.3,60.06507456375704,True,42.0,0.39285714285714285,0.40476190476190477,-0.9566326530612245,-1.1658163265306123,1,0,1,0.3740997857936563,0.0944428399033169,1.0,0.2448979591836734,0.2857142857142857,0.8571428571428572,-1.2857142857142856,-1.163265306122449,-0.16326530612244894,0.0,1.0,2.0,-1.0,1.0,1,0,1
12.0,0.0,12.0,0.0,0.0,0.0,0.0,0.0,413.6406605998054,417.13998400000855,None,left,0.7951075998134911,417.94797550002113,qh13,417.94797550002113,None,413.6406605998054,417.13998400000855,True,4.0,['r'],True,0.5,0.5,0.0,0.0,2.0,0.6309297535714574,0.096737473125,unsucc_cost,0.0,2.0,,,qh13,1,2023-02-28_10h21.05.610,threat_forest,2021.2.3,60.06507456375704,True,67.0,0.55,0.4714285714285714,-0.4800000000000001,-0.7183163265306123,1,1,1,-0.2292778278088577,0.096737473125,0.5,0.5,0.5,1.0,0.0,0.0,4.0,4.0,1.0,2.0,-1.0,4.0,0,1,1
12.0,0.0,12.0,0.0,1.0,0.0,1.0,0.0,,,,right,1.4832015000283718,422.3418376999907,qh13,418.7721622996032,420.7866736999713,422.3418376999907,None,True,2.0,['r'],False,0.36,0.6,0.4,2.0,2.0,0.9801625908629508,-0.0195836249999998,figh_cost,1.0,0.0,420.7866736999713,None,qh13,1,2023-02-28_10h21.05.610,threat_forest,2021.2.3,60.06507456375704,True,67.0,0.55,0.4714285714285714,-0.4800000000000001,-0.7183163265306123,0,0,1,0.3942029271749319,-0.0195836249999998,0.36,0.36,0.6,0.6,-0.8000000000000003,-0.9600000000000002,1.0399999999999998,1.0399999999999998,0.0,2.0,-1.0,2.0,0,0,0
13.0,0.0,13.0,0.0,0.0,0.0,0.0,0.0,426.823285699822,430.32197909988463,None,left,2.50485169980675,433.9187082997523,qh13,433.9187082997523,None,426.823285699822,430.32197909988463,True,4.0,['r'],True,0.24,0.3,0.2,2.0,2.0,0.9003120349047065,-0.0027286024196422,unsucc_cost,0.0,2.0,,,qh13,1,2023-02-28_10h21.05.610,threat_forest,2021.2.3,60.06507456375704,True,55.0,0.2928571428571428,0.42142857142857143,-1.0485714285714285,-0.7642857142857142,0,0,1,0.9182295311103877,-0.0027286024196422,0.24,0.24,0.3,0.8,-1.4,-1.24,2.76,2.76,1.0,2.0,-1.0,4.0,0,0,0
13.0,0.0,13.0,0.0,1.0,0.0,1.0,0.0,,,,right,1.900110099930316,440.09551299968734,qh13,436.4556371998042,438.47012129984796,440.09551299968734,None,True,2.0,['r'],False,0.2857142857142857,0.2857142857142857,0.0,0.0,2.0,0.5445684476282007,0.013158574184185,unsucc_cost,1.0,0.0,438.470121299848,None,qh13,1,2023-02-28_10h21.05.610,threat_forest,2021.2.3,60.06507456375704,True,55.0,0.2928571428571428,0.42142857142857143,-1.0485714285714285,-0.7642857142857142,0,0,1,0.6419118318252582,0.013158574184185,0.2857142857142857,0.2857142857142857,0.2857142857142857,1.0,-0.8571428571428572,-0.8571428571428572,1.1428571428571428,1.1428571428571428,0.0,2.0,-1.0,2.0,0,0,0
14.0,0.0,14.0,0.0,0.0,0.0,0.0,0.0,444.6314614997245,448.1382122999057,None,left,1.4149969001300633,449.08886109991,qh13,444.6314614997245,448.1382122999057,449.08886109991,None,False,5.0,['r'],False,0.2040816326530612,0.2857142857142857,0.2857142857142857,2.0,1.0,0.9335459102197724,-0.0016634484816004,wait_cost,1.0,4.0,,,qh13,1,2023-02-28_10h21.05.610,threat_forest,2021.2.3,60.06507456375704,False,32.0,0.26785714285714285,0.28035714285714286,-1.461734693877551,-1.2551530612244899,0,0,0,0.347127340371998,-0.0016634484816004,0.2040816326530612,0.2040816326530612,0.2857142857142857,0.7142857142857143,-2.0,-1.6734693877551021,3.326530612244898,3.326530612244898,0.0,1.0,-1.0,5.0,0,0,0
14.0,0.0,14.0,0.0,1.0,0.0,1.0,0.0,,,,None,,454.5977393998765,qh13,454.5977393998765,None,450.5259582996368,452.5404417999089,False,4.0,['r'],True,0.25,0.25,0.0,0.0,1.0,0.5118595071429148,0.0227176667958948,wait_cost,0.0,3.0,452.5404417999089,None,qh13,1,2023-02-28_10h21.05.610,threat_forest,2021.2.3,60.06507456375704,None,32.0,0.26785714285714285,0.28035714285714286,-1.461734693877551,-1.2551530612244899,1,0,0,,0.0227176667958948,0.25,0.25,0.25,1.0,-1.25,-1.25,2.75,2.75,1.0,1.0,-1.0,4.0,0,0,1
14.0,0.0,14.0,0.0,2.0,0.0,2.0,0.0,,,,right,1.442200000397861,460.72794279968366,qh13,457.6026983000338,459.617177200038,460.72794279968366,None,True,3.0,['r'],False,0.2040816326530612,0.2857142857142857,0.2857142857142857,2.0,1.0,0.9335459102197724,0.008523234816496,unsucc_cost,1.0,1.0,459.617177200038,None,qh13,1,2023-02-28_10h21.05.610,threat_forest,2021.2.3,60.06507456375704,True,32.0,0.26785714285714285,0.28035714285714286,-1.461734693877551,-1.2551530612244899,0,0,1,0.366169725776393,0.008523234816496,0.2040816326530612,0.2040816326530612,0.2857142857142857,0.7142857142857143,-2.0,-1.6734693877551021,1.3265306122448979,1.3265306122448979,0.0,1.0,-1.0,3.0,0,0,0
14.0,0.0,14.0,0.0,3.0,0.0,3.0,0.0,,,,left,1.5491460002958777,465.5339464996941,qh13,465.5339464996941,None,462.1985506997444,464.21284849988297,True,1.0,['r'],True,0.25,0.25,0.0,0.0,1.0,0.5118595071429148,0.0210069343914418,unsucc_cost,0.0,0.0,464.21284849988297,None,qh13,1,2023-02-28_10h21.05.610,threat_forest,2021.2.3,60.06507456375704,True,32.0,0.26785714285714285,0.28035714285714286,-1.461734693877551,-1.2551530612244899,1,0,1,0.43770381154171284,0.0210069343914418,1.0,0.25,0.25,1.0,-1.25,-1.25,-0.25,0.0,1.0,1.0,-1.0,1.0,1,0,1
15.0,0.0,15.0,0.0,0.0,0.0,0.0,0.0,470.834279099945,474.3366832998581,None,right,1.5707444003783166,475.9719652999193,qh13,470.834279099945,474.3366832998581,475.9719652999193,None,True,4.0,['r'],False,0.2222222222222222,0.6666666666666666,0.6666666666666666,2.0,2.0,0.77250688571426,-0.0033451223961741,figh_cost,1.0,1.0,,,qh13,1,2023-02-28_10h21.05.610,threat_forest,2021.2.3,60.06507456375704,True,34.0,0.4583333333333333,0.3630952380952381,-1.3888888888888888,-1.42531179138322,0,0,1,0.4515496473595445,-0.0033451223961741,0.2222222222222222,0.2222222222222222,0.6666666666666666,0.33333333333333337,-1.3333333333333335,-1.777777777777778,2.2222222222222223,2.2222222222222223,0.0,2.0,-1.0,4.0,0,0,0
15.0,0.0,15.0,0.0,1.0,0.0,1.0,0.0,,,,left,0.7837300002574921,482.200858599972,qh13,482.200858599972,None,477.5673630000092,479.58183909999207,True,1.0,['r'],True,0.25,0.25,0.0,0.0,2.0,0.5118595071429148,0.0358881323171487,succ_gain,0.0,3.0,479.58183909999207,None,qh13,1,2023-02-28_10h21.05.610,threat_forest,2021.2.3,60.06507456375704,True,34.0,0.4583333333333333,0.3630952380952381,-1.3888888888888888,-1.42531179138322,1,0,1,-0.24369070537336593,0.0358881323171487,1.0,0.25,0.25,1.0,-1.0,-1.0,0.0,0.0,1.0,2.0,-1.0,1.0,1,0,1
15.0,0.0,15.0,0.0,2.0,0.0,2.0,0.0,,,,right,1.4111210000701249,486.1674925996922,qh13,483.0121573000215,485.0267385998741,486.1674925996922,None,True,3.0,['r'],False,0.2222222222222222,0.6666666666666666,0.6666666666666666,2.0,2.0,0.77250688571426,0.0126119601146929,figh_cost,1.0,0.0,485.0267385998741,None,qh13,1,2023-02-28_10h21.05.610,threat_forest,2021.2.3,60.06507456375704,True,34.0,0.4583333333333333,0.3630952380952381,-1.3888888888888888,-1.42531179138322,0,0,1,0.3443844240274814,0.0126119601146929,0.2222222222222222,0.2222222222222222,0.6666666666666666,0.33333333333333337,-1.3333333333333335,-1.777777777777778,1.222222222222222,1.222222222222222,0.0,2.0,1.0,3.0,0,0,0
16.0,0.0,16.0,0.0,0.0,0.0,0.0,0.0,492.68654849985614,496.19412239966914,None,left,1.4997315998189151,499.9602226000279,qh13,499.9602226000279,None,492.68654849985614,496.19412239966914,True,5.0,['p'],True,0.24,0.3,0.2,2.0,1.0,0.9003120349047065,-0.0090981991697076,succ_gain,0.0,6.0,,,qh13,1,2023-02-28_10h21.05.610,threat_forest,2021.2.3,60.06507456375704,True,9.0,0.4,0.4291666666666667,-1.3025,-1.3456944444444443,0,0,1,0.4052861586436074,-0.0090981991697076,0.24,0.24,0.3,0.8,-1.7,-1.48,3.52,3.52,1.0,1.0,-1.0,5.0,0,0,0
16.0,0.0,16.0,0.0,1.0,0.0,1.0,0.0,,,,right,1.861005799844861,505.584542399738,qh13,501.481265399605,503.4760324000381,505.584542399738,None,True,6.0,['p'],False,0.375,0.5,0.25,1.0,1.0,0.9850568223215076,-0.1193507232516357,succ_gain,1.0,6.0,503.4760324000381,None,qh13,1,2023-02-28_10h21.05.610,threat_forest,2021.2.3,60.06507456375704,True,9.0,0.4,0.4291666666666667,-1.3025,-1.3456944444444443,1,0,1,0.6211170941758705,-0.1193507232516357,0.375,0.375,0.5,0.75,-1.25,-1.125,4.875,4.875,0.0,1.0,1.0,6.0,0,0,1
16.0,0.0,16.0,0.0,2.0,0.0,2.0,0.0,,,,right,2.04033189965412,510.9563467996195,qh13,510.9563467996195,None,507.4727596999146,509.48726249998435,False,6.0,['p'],True,0.24,0.3,0.2,2.0,1.0,0.9003120349047065,-0.0083195987695312,wait_cost,0.0,5.0,509.4872624999844,None,qh13,1,2023-02-28_10h21.05.610,threat_forest,2021.2.3,60.06507456375704,False,9.0,0.4,0.4291666666666667,-1.3025,-1.3456944444444443,0,0,0,0.7131124905314634,-0.0083195987695312,0.24,0.24,0.3,0.8,-1.7,-1.48,4.52,4.52,1.0,1.0,-1.0,6.0,0,0,0
16.0,0.0,16.0,0.0,3.0,0.0,3.0,0.0,,,,right,0.9593235002830623,515.7386097996496,qh13,513.0177312996238,515.0320763997734,515.7386097996496,None,True,5.0,['p'],False,0.375,0.5,0.25,1.0,1.0,0.9850568223215076,0.0607207880859375,unsucc_cost,1.0,3.0,515.0320763997734,None,qh13,1,2023-02-28_10h21.05.610,threat_forest,2021.2.3,60.06507456375704,True,9.0,0.4,0.4291666666666667,-1.3025,-1.3456944444444443,1,0,1,-0.04152693013413423,0.0607207880859375,0.375,0.375,0.5,0.75,-1.25,-1.125,3.875,3.875,0.0,1.0,-1.0,5.0,0,0,1
16.0,0.0,16.0,0.0,4.0,0.0,4.0,0.0,,,,right,1.09722420014441,522.0648125996813,qh13,513.0177312996238,515.0320763997734,522.0648125996813,None,True,3.0,['p'],False,0.375,0.5,0.25,1.0,1.0,0.9850568223215076,0.0731003906249999,unsucc_cost,1.0,1.0,518.7451927997172,None,qh13,1,2023-02-28_10h21.05.610,threat_forest,2021.2.3,60.06507456375704,True,9.0,0.4,0.4291666666666667,-1.3025,-1.3456944444444443,1,0,1,0.09278353611260105,0.0731003906249999,0.375,0.375,0.5,0.75,-1.25,-1.125,1.875,1.875,0.0,1.0,-1.0,3.0,0,0,1
16.0,0.0,16.0,0.0,5.0,0.0,5.0,0.0,,,,left,2.011695599649101,527.3152171997353,qh13,527.3152171997353,None,523.1912868996151,525.2058456996456,True,1.0,['p'],True,0.24,0.3,0.2,2.0,1.0,0.9003120349047065,0.0818999999999999,unsucc_cost,0.0,0.0,525.2058456996456,None,qh13,1,2023-02-28_10h21.05.610,threat_forest,2021.2.3,60.06507456375704,True,9.0,0.4,0.4291666666666667,-1.3025,-1.3456944444444443,0,0,1,0.698977948370716,0.0818999999999999,1.0,0.24,0.3,0.8,-1.7,-1.48,-0.48,0.0,1.0,1.0,-1.0,1.0,1,0,0
17.0,0.0,17.0,0.0,0.0,0.0,0.0,0.0,532.7901332997717,536.2821082998998,None,left,1.6019814000464976,537.4805189999752,qh13,537.4805189999752,None,532.7901332997717,536.2821082998998,True,5.0,['p'],True,0.16,0.2,0.2,2.0,2.0,0.8198746470064713,-0.0083567608970359,unsucc_cost,0.0,3.0,,,qh13,1,2023-02-28_10h21.05.610,threat_forest,2021.2.3,60.06507456375704,True,63.0,0.26666666666666666,0.33333333333333337,-1.5022222222222226,-1.4023611111111114,0,0,1,0.4712412381208989,-0.0083567608970359,0.16,0.16,0.2,0.8,-1.8000000000000003,-1.5600000000000003,3.4399999999999995,3.4399999999999995,1.0,2.0,-1.0,5.0,0,0,0
17.0,0.0,17.0,0.0,1.0,0.0,1.0,0.0,,,,left,1.5908657000400126,544.1946425996721,qh13,544.1946425996721,None,532.7901332997717,536.2821082998998,True,3.0,['p'],True,0.16,0.2,0.2,2.0,2.0,0.8198746470064713,0.0173973197132958,figh_cost,0.0,0.0,541.1241405997425,None,qh13,1,2023-02-28_10h21.05.610,threat_forest,2021.2.3,60.06507456375704,True,63.0,0.26666666666666666,0.33333333333333337,-1.5022222222222226,-1.4023611111111114,0,0,1,0.4642783334985849,0.0173973197132958,0.16,0.16,0.2,0.8,-1.8000000000000003,-1.5600000000000003,1.4399999999999997,1.4399999999999997,1.0,2.0,-1.0,3.0,0,0,0
0.0,0.0,0.0,0.0,0.0,0.0,0.0,0.0,15.40386880002916,18.90313530014828,None,left,1.7788068996742368,22.06331150000915,qh13,15.40386880002916,18.90313530014828,22.06331150000915,None,False,5.0,['r'],False,0.24,0.3,0.2,2.0,2.0,0.9003120349047065,-0.0305436800767033,wait_cost,1.0,4.0,,,qh13,2,2023-02-28_10h31.34.197,threat_forest,2021.2.3,60.05425299180541,False,15.0,0.4833333333333333,0.375,-0.8977777777777778,-1.2000000000000002,0,0,0,0.575942858483309,-0.0305436800767033,0.24,0.24,0.3,0.8,-1.4,-1.24,3.76,3.76,0.0,2.0,-1.0,5.0,0,0,0
0.0,0.0,0.0,0.0,1.0,0.0,1.0,0.0,,,,left,1.7639679997228086,28.1624401002191,qh13,28.1624401002191,None,23.866524000186477,25.880989000201225,True,4.0,['r'],True,0.4444444444444445,0.6666666666666666,0.3333333333333333,1.0,2.0,0.9656336071428248,0.112530937087955,succ_gain,0.0,6.0,25.880989000201225,None,qh13,2,2023-02-28_10h31.34.197,threat_forest,2021.2.3,60.05425299180541,True,15.0,0.4833333333333333,0.375,-0.8977777777777778,-1.2000000000000002,1,1,1,0.567565816673347,0.112530937087955,0.4444444444444445,0.4444444444444445,0.6666666666666666,0.6666666666666667,-0.3333333333333335,-0.5555555555555556,3.4444444444444446,3.4444444444444446,1.0,2.0,-1.0,4.0,0,1,1
0.0,0.0,0.0,0.0,2.0,0.0,2.0,0.0,,,,None,,34.52842210000381,qh13,34.52842210000381,None,23.866524000186477,25.880989000201225,False,6.0,['r'],True,0.4444444444444445,0.6666666666666666,0.3333333333333333,1.0,2.0,0.9656336071428248,0.0756645883655946,wait_cost,0.0,5.0,31.95871310029179,None,qh13,2,2023-02-28_10h31.34.197,threat_forest,2021.2.3,60.05425299180541,None,15.0,0.4833333333333333,0.375,-0.8977777777777778,-1.2000000000000002,1,1,0,,0.0756645883655946,0.4444444444444445,0.4444444444444445,0.6666666666666666,0.6666666666666667,-0.3333333333333335,-0.5555555555555556,5.444444444444445,5.444444444444445,1.0,2.0,1.0,6.0,0,1,1
0.0,0.0,0.0,0.0,3.0,0.0,3.0,0.0,,,,left,2.389564100187272,43.001709800213575,qh13,37.53708630008623,39.55144419986755,43.001709800213575,None,False,5.0,['r'],False,0.24,0.3,0.2,2.0,2.0,0.9003120349047065,-0.0020531358024691,wait_cost,1.0,4.0,39.55144419986755,None,qh13,2,2023-02-28_10h31.34.197,threat_forest,2021.2.3,60.05425299180541,False,15.0,0.4833333333333333,0.375,-0.8977777777777778,-1.2000000000000002,0,0,0,0.8711109644503963,-0.0020531358024691,0.24,0.24,0.3,0.8,-1.4,-1.24,3.76,3.76,0.0,2.0,-1.0,5.0,0,0,0
0.0,0.0,0.0,0.0,4.0,0.0,4.0,0.0,,,,left,1.61213990021497,50.66637360025197,qh13,50.66637360025197,None,45.41301560029388,47.427557699847966,True,4.0,['r'],True,0.4444444444444445,0.6666666666666666,0.3333333333333333,1.0,2.0,0.9656336071428248,0.1698567901234568,succ_gain,0.0,6.0,47.427557699847966,None,qh13,2,2023-02-28_10h31.34.197,threat_forest,2021.2.3,60.05425299180541,True,15.0,0.4833333333333333,0.375,-0.8977777777777778,-1.2000000000000002,1,1,1,0.47756242705253815,0.1698567901234568,0.4444444444444445,0.4444444444444445,0.6666666666666666,0.6666666666666667,-0.3333333333333335,-0.5555555555555556,3.4444444444444446,3.4444444444444446,1.0,2.0,-1.0,4.0,0,1,1
0.0,0.0,0.0,0.0,5.0,0.0,5.0,0.0,,,,right,2.408294899854809,57.68959970027208,qh13,57.68959970027208,None,45.41301560029388,47.427557699847966,False,6.0,['r'],True,0.4444444444444445,0.6666666666666666,0.3333333333333333,1.0,2.0,0.9656336071428248,0.0,wait_cost,0.0,5.0,54.32103230012581,None,qh13,2,2023-02-28_10h31.34.197,threat_forest,2021.2.3,60.05425299180541,False,15.0,0.4833333333333333,0.375,-0.8977777777777778,-1.2000000000000002,1,1,0,0.8789189866652518,0.0,0.0,0.4444444444444445,0.6666666666666666,0.6666666666666667,-0.3333333333333335,-0.5555555555555556,5.444444444444445,5.444444444444445,1.0,2.0,1.0,6.0,0,1,1
0.0,0.0,0.0,0.0,6.0,0.0,6.0,0.0,,,,right,1.3390374002046883,63.61613189987838,qh13,63.61613189987838,None,45.41301560029388,47.427557699847966,False,5.0,['r'],True,0.4444444444444445,0.6666666666666666,0.3333333333333333,1.0,2.0,0.9656336071428248,0.0,wait_cost,0.0,4.0,62.130408300086856,None,qh13,2,2023-02-28_10h31.34.197,threat_forest,2021.2.3,60.05425299180541,False,15.0,0.4833333333333333,0.375,-0.8977777777777778,-1.2000000000000002,1,1,0,0.29195099776383543,0.0,0.0,0.4444444444444445,0.6666666666666666,0.6666666666666667,-0.3333333333333335,-0.5555555555555556,4.444444444444445,4.444444444444445,1.0,2.0,-1.0,5.0,0,1,1
0.0,0.0,0.0,0.0,7.0,0.0,7.0,0.0,,,,right,2.3503629001788795,68.70895530004054,qh13,68.70895530004054,None,45.41301560029388,47.427557699847966,False,4.0,['r'],True,0.4444444444444445,0.6666666666666666,0.3333333333333333,1.0,2.0,0.9656336071428248,0.0,wait_cost,0.0,3.0,66.9924818999134,None,qh13,2,2023-02-28_10h31.34.197,threat_forest,2021.2.3,60.05425299180541,False,15.0,0.4833333333333333,0.375,-0.8977777777777778,-1.2000000000000002,1,1,0,0.8545697418416947,0.0,0.0,0.4444444444444445,0.6666666666666666,0.6666666666666667,-0.3333333333333335,-0.5555555555555556,3.4444444444444446,3.4444444444444446,1.0,2.0,-1.0,4.0,0,1,1
1.0,0.0,1.0,0.0,0.0,0.0,0.0,0.0,76.15985570009798,79.65931770019233,None,right,1.8479220997542145,81.73856429988518,qh13,76.15985570009798,79.65931770019233,81.73856429988518,None,True,5.0,['r'],False,0.25,0.5,0.5,1.0,2.0,0.9463946303571862,-0.0007067709743359,fight_cost,1.0,2.0,,,qh13,2,2023-02-28_10h31.34.197,threat_forest,2021.2.3,60.05425299180541,True,8.0,0.35,0.41666666666666663,-1.5300000000000002,-1.213888888888889,0,0,1,0.614061818518341,-0.0007067709743359,0.25,0.25,0.5,0.5,-1.5,-1.5,3.5,3.5,0.0,2.0,-1.0,5.0,0,0,0
1.0,0.0,1.0,0.0,1.0,0.0,1.0,0.0,,,,right,1.3831893997266889,86.72177130030468,qh13,86.72177130030468,None,83.61084700003266,85.62505210004747,False,2.0,['r'],True,0.16,0.2,0.2,2.0,2.0,0.8198746470064713,-0.006811320703125,wait_cost,0.0,1.0,85.62505210004747,None,qh13,2,2023-02-28_10h31.34.197,threat_forest,2021.2.3,60.05425299180541,False,8.0,0.35,0.41666666666666663,-1.5300000000000002,-1.213888888888889,0,0,0,0.32439199177074257,-0.006811320703125,0.16,0.16,0.2,0.8,-1.8000000000000003,-1.5600000000000003,0.4399999999999997,0.4399999999999997,1.0,2.0,-1.0,2.0,0,0,0
1.0,0.0,1.0,0.0,2.0,0.0,2.0,0.0,,,,left,1.5010984996333718,93.24128790013492,qh13,93.24128790013492,None,83.61084700003266,85.62505210004747,True,1.0,['r'],True,0.16,0.2,0.2,2.0,2.0,0.8198746470064713,0.0394145224999998,unsucc_cost,0.0,0.0,90.12082870025188,None,qh13,2,2023-02-28_10h31.34.197,threat_forest,2021.2.3,60.05425299180541,True,8.0,0.35,0.41666666666666663,-1.5300000000000002,-1.213888888888889,0,0,1,0.4061971731720501,0.0394145224999998,1.0,0.16,0.2,0.8,-1.8000000000000003,-1.5600000000000003,-0.5600000000000003,0.0,1.0,2.0,-1.0,1.0,1,0,0
2.0,0.0,2.0,0.0,0.0,0.0,0.0,0.0,100.3177307001315,103.82694440009072,None,right,1.7840887997299433,105.76958259986714,qh13,100.3177307001315,103.82694440009072,105.76958259986714,None,True,4.0,['p'],False,0.5185185185185185,0.6666666666666666,0.2222222222222222,2.0,2.0,0.9327883776363328,0.0236802094142134,succ_gain,1.0,6.0,,,qh13,2,2023-02-28_10h31.34.197,threat_forest,2021.2.3,60.05425299180541,True,60.0,0.6458333333333333,0.4979166666666666,0.17592592592592587,-0.6770370370370372,1,1,1,0.5789078085524282,0.0236802094142134,0.5185185185185185,0.5185185185185185,0.6666666666666666,0.7777777777777778,-1.1102230246251565e-16,-0.14814814814814825,3.8518518518518516,3.8518518518518516,0.0,2.0,-1.0,4.0,0,1,1
2.0,0.0,2.0,0.0,1.0,0.0,1.0,0.0,,,,left,1.145654899999499,112.96104700025172,qh13,112.96104700025172,None,107.57182630011812,109.585907000117,True,6.0,['p'],True,0.625,0.625,0.0,0.0,2.0,0.6021808102656677,0.0055837052896026,succ_gain,0.0,6.0,109.585907000117,None,qh13,2,2023-02-28_10h31.34.197,threat_forest,2021.2.3,60.05425299180541,True,60.0,0.6458333333333333,0.4979166666666666,0.17592592592592587,-0.6770370370370372,1,1,1,0.13597643856159478,0.0055837052896026,0.625,0.625,0.625,1.0,0.5,0.5,6.5,6.0,1.0,2.0,1.0,6.0,0,1,1
2.0,0.0,2.0,0.0,2.0,0.0,2.0,0.0,,,,right,2.5431690998375416,119.25350730028003,qh13,114.13226750027388,116.14648550003767,119.25350730028003,None,True,6.0,['p'],False,0.5185185185185185,0.6666666666666666,0.2222222222222222,2.0,2.0,0.9327883776363328,0.0086858794239948,succ_gain,1.0,6.0,116.14648550003768,None,qh13,2,2023-02-28_10h31.34.197,threat_forest,2021.2.3,60.05425299180541,True,60.0,0.6458333333333333,0.4979166666666666,0.17592592592592587,-0.6770370370370372,1,1,1,0.9334109804295785,0.0086858794239948,0.5185185185185185,0.5185185185185185,0.6666666666666666,0.7777777777777778,-1.1102230246251565e-16,-0.14814814814814825,5.851851851851852,5.851851851851852,0.0,2.0,-1.0,6.0,0,1,1
2.0,0.0,2.0,0.0,3.0,0.0,3.0,0.0,,,,None,,127.18272780021653,qh13,127.18272780021653,None,121.83300630003214,123.83925670012832,False,6.0,['p'],True,0.625,0.625,0.0,0.0,2.0,0.6021808102656677,-0.0656055089377572,wait_cost,0.0,5.0,123.83925670012832,None,qh13,2,2023-02-28_10h31.34.197,threat_forest,2021.2.3,60.05425299180541,None,60.0,0.6458333333333333,0.4979166666666666,0.17592592592592587,-0.6770370370370372,1,1,0,,-0.0656055089377572,0.0,0.625,0.625,1.0,0.5,0.5,6.5,6.0,1.0,2.0,-1.0,6.0,0,1,1
2.0,0.0,2.0,0.0,4.0,0.0,4.0,0.0,,,,left,1.2078897999599576,133.02679730020463,qh13,130.18388700019568,132.18149450002238,133.02679730020463,None,False,5.0,['p'],False,0.5185185185185185,0.6666666666666666,0.2222222222222222,2.0,2.0,0.9327883776363328,-0.1532649923157039,wait_cost,1.0,4.0,132.18149450002238,None,qh13,2,2023-02-28_10h31.34.197,threat_forest,2021.2.3,60.05425299180541,False,60.0,0.6458333333333333,0.4979166666666666,0.17592592592592587,-0.6770370370370372,1,1,0,0.1888748701526411,-0.1532649923157039,0.0,0.5185185185185185,0.6666666666666666,0.7777777777777778,-1.1102230246251565e-16,-0.14814814814814825,4.851851851851852,4.851851851851852,0.0,2.0,-1.0,5.0,0,1,1
2.0,0.0,2.0,0.0,5.0,0.0,5.0,0.0,,,,right,1.1604256997816265,139.2534262998961,qh13,139.2534262998961,None,134.26603960013017,136.2777074999176,False,4.0,['p'],True,0.625,0.625,0.0,0.0,2.0,0.6021808102656677,-0.1506076388888889,wait_cost,0.0,3.0,136.2777074999176,None,qh13,2,2023-02-28_10h31.34.197,threat_forest,2021.2.3,60.05425299180541,False,60.0,0.6458333333333333,0.4979166666666666,0.17592592592592587,-0.6770370370370372,1,1,0,0.14878692036700752,-0.1506076388888889,0.0,0.625,0.625,1.0,0.5,0.5,4.5,4.5,1.0,2.0,-1.0,4.0,0,1,1
2.0,0.0,2.0,0.0,6.0,0.0,6.0,0.0,,,,left,0.6733758999034762,145.91494850022718,qh13,140.44086330011487,142.45521919988096,145.91494850022718,None,False,3.0,['p'],False,0.5185185185185185,0.6666666666666666,0.2222222222222222,2.0,2.0,0.9327883776363328,-0.3332475994513031,wait_cost,1.0,2.0,142.45521919988096,None,qh13,2,2023-02-28_10h31.34.197,threat_forest,2021.2.3,60.05425299180541,False,60.0,0.6458333333333333,0.4979166666666666,0.17592592592592587,-0.6770370370370372,1,1,0,-0.39545156157471945,-0.3332475994513031,0.0,0.5185185185185185,0.6666666666666666,0.7777777777777778,-1.1102230246251565e-16,-0.14814814814814825,2.8518518518518516,2.8518518518518516,0.0,2.0,-1.0,3.0,0,1,1
2.0,0.0,2.0,0.0,7.0,0.0,7.0,0.0,,,,right,1.0709791001863778,149.49229850014672,qh13,149.49229850014672,None,146.61835560016334,148.6327523002401,False,2.0,['p'],True,0.625,0.625,0.0,0.0,2.0,0.6021808102656677,-0.375,wait_cost,0.0,1.0,148.6327523002401,None,qh13,2,2023-02-28_10h31.34.197,threat_forest,2021.2.3,60.05425299180541,False,60.0,0.6458333333333333,0.4979166666666666,0.17592592592592587,-0.6770370370370372,1,1,0,0.06857327697677186,-0.375,0.0,0.625,0.625,1.0,0.5,0.5,2.5,2.5,1.0,2.0,-1.0,2.0,0,1,1
3.0,0.0,3.0,0.0,0.0,0.0,0.0,0.0,156.24303989997134,159.74535079998896,None,left,1.0556085999123752,163.5274894000031,qh13,163.5274894000031,None,156.24303989997134,159.74535079998896,True,5.0,['r'],True,0.5,0.5,0.0,0.0,2.0,0.6309297535714574,0.0540215703294548,unsucc_cost,0.0,3.0,,,qh13,2,2023-02-28_10h31.34.197,threat_forest,2021.2.3,60.05425299180541,True,14.0,0.5357142857142857,0.5907738095238095,-0.326530612244898,-0.07530234315948606,1,0,1,0.05411747255622474,0.0540215703294548,0.5,0.5,0.5,1.0,0.0,0.0,5.0,5.0,1.0,2.0,-1.0,5.0,0,0,1
3.0,0.0,3.0,0.0,1.0,0.0,1.0,0.0,,,,left,0.9524677996523678,167.76511840010062,qh13,167.76511840010062,None,156.24303989997134,159.74535079998896,True,3.0,['r'],True,0.5,0.5,0.0,0.0,2.0,0.6309297535714574,0.1812561435782258,unsucc_cost,0.0,1.0,166.6157348002307,None,qh13,2,2023-02-28_10h31.34.197,threat_forest,2021.2.3,60.05425299180541,True,14.0,0.5357142857142857,0.5907738095238095,-0.326530612244898,-0.07530234315948606,1,0,1,-0.0486989786919678,0.1812561435782258,0.5,0.5,0.5,1.0,0.0,0.0,3.0,3.0,1.0,2.0,-1.0,3.0,0,0,1
3.0,0.0,3.0,0.0,2.0,0.0,2.0,0.0,,,,right,1.480504599865526,172.23941380018368,qh13,168.74727329984307,170.76202030014247,172.23941380018368,None,True,1.0,['r'],False,0.4081632653061224,0.5714285714285714,0.2857142857142857,2.0,2.0,0.9885754083994552,0.2329331374998628,unsucc_cost,1.0,0.0,170.76202030014247,None,qh13,2,2023-02-28_10h31.34.197,threat_forest,2021.2.3,60.05425299180541,True,14.0,0.5357142857142857,0.5907738095238095,-0.326530612244898,-0.07530234315948606,0,0,1,0.39238297552227835,0.2329331374998628,1.0,0.4081632653061224,0.5714285714285714,0.7142857142857143,-0.5714285714285715,-0.653061224489796,0.346938775510204,0.346938775510204,0.0,2.0,-1.0,1.0,1,0,0
4.0,0.0,4.0,0.0,0.0,0.0,0.0,0.0,176.28255139989778,179.78669480001554,None,right,1.3568446999415755,182.42796909995377,qh13,176.28255139989778,179.78669480001554,182.42796909995377,None,True,5.0,['r'],False,0.3333333333333333,0.3333333333333333,0.0,0.0,2.0,0.5793801642856949,0.0474629650798488,unsucc_cost,1.0,3.0,,,qh13,2,2023-02-28_10h31.34.197,threat_forest,2021.2.3,60.05425299180541,True,68.0,0.5,0.5178571428571428,-1.2222222222222223,-0.7743764172335601,1,0,1,0.3051619306348568,0.0474629650798488,0.3333333333333333,0.3333333333333333,0.3333333333333333,1.0,-0.6666666666666669,-0.6666666666666669,4.333333333333333,4.333333333333333,0.0,2.0,-1.0,5.0,0,0,1
4.0,0.0,4.0,0.0,1.0,0.0,1.0,0.0,,,,right,2.624788499902934,186.78075749985877,qh13,176.28255139989778,179.78669480001554,186.78075749985877,None,True,3.0,['r'],False,0.3333333333333333,0.3333333333333333,0.0,0.0,2.0,0.5793801642856949,0.1042825661738555,unsucc_cost,1.0,1.0,185.83111530030143,None,qh13,2,2023-02-28_10h31.34.197,threat_forest,2021.2.3,60.05425299180541,True,68.0,0.5,0.5178571428571428,-1.2222222222222223,-0.7743764172335601,1,0,1,0.9650003213319832,0.1042825661738555,0.3333333333333333,0.3333333333333333,0.3333333333333333,1.0,-0.6666666666666669,-0.6666666666666669,2.333333333333333,2.333333333333333,0.0,2.0,-1.0,3.0,0,0,1
4.0,0.0,4.0,0.0,2.0,0.0,2.0,0.0,,,,left,2.033256800379604,192.3314725998789,qh13,192.3314725998789,None,189.4281585998833,191.44256049999967,True,1.0,['r'],True,0.2222222222222222,0.6666666666666666,0.6666666666666666,2.0,2.0,0.77250688571426,0.079465782655083,fight_cost,0.0,0.0,191.44256049999967,None,qh13,2,2023-02-28_10h31.34.197,threat_forest,2021.2.3,60.05425299180541,True,68.0,0.5,0.5178571428571428,-1.2222222222222223,-0.7743764172335601,0,0,1,0.7096388426452133,0.079465782655083,1.0,0.2222222222222222,0.6666666666666666,0.33333333333333337,-1.3333333333333335,-1.777777777777778,-0.7777777777777779,0.0,1.0,2.0,-1.0,1.0,1,0,0
5.0,0.0,5.0,0.0,0.0,0.0,0.0,0.0,197.6355853001587,201.1420291000977,None,right,0.8099964000284672,203.0094821001403,qh13,197.6355853001587,201.14202910009772,203.0094821001403,None,True,5.0,['r'],False,0.6,0.6,0.0,0.0,2.0,0.6126016192893442,0.0610993227861605,succ_gain,1.0,6.0,,,qh13,2,2023-02-28_10h31.34.197,threat_forest,2021.2.3,60.05425299180541,True,47.0,0.6333333333333333,0.5666666666666667,-0.07777777777777783,-0.6500000000000001,1,1,1,-0.2107254757348288,0.0610993227861605,0.6,0.6,0.6,1.0,0.3999999999999999,0.3999999999999999,5.4,5.4,0.0,2.0,-1.0,5.0,0,1,1
5.0,0.0,5.0,0.0,1.0,0.0,1.0,0.0,,,,right,1.029264200013131,208.76042270008475,qh13,208.76042270008475,None,203.8483108999208,205.86252789990976,False,6.0,['r'],True,0.4444444444444445,0.6666666666666666,0.3333333333333333,2.0,2.0,0.9656336071428248,-0.0843219852156683,wait_cost,0.0,5.0,205.86252789990976,None,qh13,2,2023-02-28_10h31.34.197,threat_forest,2021.2.3,60.05425299180541,False,47.0,0.6333333333333333,0.5666666666666667,-0.07777777777777783,-0.6500000000000001,1,0,0,0.02884417803919283,-0.0843219852156683,0.4444444444444445,0.4444444444444445,0.6666666666666666,0.6666666666666667,-0.3333333333333335,-0.5555555555555556,5.444444444444445,5.444444444444445,1.0,2.0,1.0,6.0,0,0,1
5.0,0.0,5.0,0.0,2.0,0.0,2.0,0.0,,,,right,0.9140209001488984,214.46182620013133,qh13,209.80944210011512,211.8236245000735,214.46182620013133,None,True,5.0,['r'],False,0.6,0.6,0.0,0.0,2.0,0.6126016192893442,0.1044295061728395,unsucc_cost,1.0,3.0,211.8236245000735,None,qh13,2,2023-02-28_10h31.34.197,threat_forest,2021.2.3,60.05425299180541,True,47.0,0.6333333333333333,0.5666666666666667,-0.07777777777777783,-0.6500000000000001,1,1,1,-0.08990184110572944,0.1044295061728395,0.6,0.6,0.6,1.0,0.3999999999999999,0.3999999999999999,5.4,5.4,0.0,2.0,-1.0,5.0,0,1,1
5.0,0.0,5.0,0.0,3.0,0.0,3.0,0.0,,,,left,2.377530400175601,221.12317020026967,qh13,221.12317020026967,None,215.40413889987397,217.41842469992116,True,3.0,['r'],True,0.4444444444444445,0.6666666666666666,0.3333333333333333,2.0,2.0,0.9656336071428248,-0.0371728395061728,fight_cost,0.0,0.0,217.4184246999212,None,qh13,2,2023-02-28_10h31.34.197,threat_forest,2021.2.3,60.05425299180541,True,47.0,0.6333333333333333,0.5666666666666667,-0.07777777777777783,-0.6500000000000001,1,0,1,0.8660623019700034,-0.0371728395061728,0.4444444444444445,0.4444444444444445,0.6666666666666666,0.6666666666666667,-0.3333333333333335,-0.5555555555555556,2.4444444444444446,2.4444444444444446,1.0,2.0,-1.0,3.0,0,0,1
6.0,0.0,6.0,0.0,0.0,0.0,0.0,0.0,227.35905510000885,230.8582613002509,None,left,1.7370238997973502,234.50226220022887,qh13,227.35905510000885,230.8582613002509,234.50226220022887,None,False,4.0,['p'],False,0.1875,0.25,0.25,2.0,1.0,0.895754137500101,-0.0017291066874999,wait_cost,1.0,3.0,,,qh13,2,2023-02-28_10h31.34.197,threat_forest,2021.2.3,60.05425299180541,False,57.0,0.4583333333333333,0.5458333333333333,-1.34375,-0.710763888888889,0,0,0,0.552173246402854,-0.0017291066874999,0.1875,0.1875,0.25,0.75,-2.0,-1.6875,2.3125,2.3125,0.0,1.0,-1.0,4.0,0,0,0
6.0,0.0,6.0,0.0,1.0,0.0,1.0,0.0,,,,left,1.2189517999067905,240.1029171999544,qh13,227.35905510000885,230.8582613002509,240.1029171999544,None,False,3.0,['p'],False,0.1875,0.25,0.25,2.0,1.0,0.895754137500101,0.0033269309357997,wait_cost,1.0,2.0,238.2819175999612,None,qh13,2,2023-02-28_10h31.34.197,threat_forest,2021.2.3,60.05425299180541,False,57.0,0.4583333333333333,0.5458333333333333,-1.34375,-0.710763888888889,0,0,0,0.19799130903386214,0.0033269309357997,0.1875,0.1875,0.25,0.75,-2.0,-1.6875,1.3125,1.3125,0.0,1.0,-1.0,3.0,0,0,0
6.0,0.0,6.0,0.0,2.0,0.0,2.0,0.0,,,,left,1.4040350001305342,246.262231499888,qh13,227.35905510000885,230.8582613002509,246.262231499888,None,False,2.0,['p'],False,0.1875,0.25,0.25,2.0,1.0,0.895754137500101,-0.0114500663971287,wait_cost,1.0,1.0,243.36051880009472,None,qh13,2,2023-02-28_10h31.34.197,threat_forest,2021.2.3,60.05425299180541,False,57.0,0.4583333333333333,0.5458333333333333,-1.34375,-0.710763888888889,0,0,0,0.3393502341608021,-0.0114500663971287,0.1875,0.1875,0.25,0.75,-2.0,-1.6875,0.3125,0.3125,0.0,1.0,-1.0,2.0,0,0,0
6.0,0.0,6.0,0.0,3.0,0.0,3.0,0.0,,,,left,1.7658345000818372,252.72389300027865,qh13,252.72389300027865,None,247.69048410002145,249.70469280006364,True,1.0,['p'],True,0.4444444444444445,0.6666666666666666,0.3333333333333333,1.0,1.0,0.9656336071428248,0.0708877803021642,succ_gain,0.0,2.0,249.70469280006364,None,qh13,2,2023-02-28_10h31.34.197,threat_forest,2021.2.3,60.05425299180541,True,57.0,0.4583333333333333,0.5458333333333333,-1.34375,-0.710763888888889,0,0,1,0.5686233832273382,0.0708877803021642,1.0,0.4444444444444445,0.6666666666666666,0.6666666666666667,-1.0,-1.0,0.0,0.0,1.0,1.0,-1.0,1.0,1,0,0
6.0,0.0,6.0,0.0,4.0,0.0,4.0,0.0,,,,left,1.0184722999110818,258.0898323999718,qh13,254.5172108002007,256.53162020025775,258.0898323999718,None,False,2.0,['p'],False,0.1875,0.25,0.25,2.0,1.0,0.895754137500101,-0.0362413194444444,wait_cost,1.0,1.0,256.53162020025775,None,qh13,2,2023-02-28_10h31.34.197,threat_forest,2021.2.3,60.05425299180541,False,57.0,0.4583333333333333,0.5458333333333333,-1.34375,-0.710763888888889,0,0,0,0.018303759369452038,-0.0362413194444444,0.1875,0.1875,0.25,0.75,-2.0,-1.6875,0.3125,0.3125,0.0,1.0,1.0,2.0,0,0,0
6.0,0.0,6.0,0.0,5.0,0.0,5.0,0.0,,,,right,1.929688099771738,263.5928261000663,qh13,254.5172108002007,256.53162020025775,263.5928261000663,None,True,1.0,['p'],False,0.1875,0.25,0.25,2.0,1.0,0.895754137500101,0.0712890625,unsucc_cost,1.0,0.0,261.1439757999033,None,qh13,2,2023-02-28_10h31.34.197,threat_forest,2021.2.3,60.05425299180541,True,57.0,0.4583333333333333,0.5458333333333333,-1.34375,-0.710763888888889,0,0,1,0.6573583835211962,0.0712890625,1.0,0.1875,0.25,0.75,-2.0,-1.6875,-0.6875,0.0,0.0,1.0,-1.0,1.0,1,0,0
7.0,0.0,7.0,0.0,0.0,0.0,0.0,0.0,270.57444320013747,274.0824464000761,None,left,2.0008645998314023,277.8065991001204,qh13,270.57444320013747,274.08244640007615,277.8065991001204,None,False,5.0,['p'],False,0.1975308641975308,0.2222222222222222,0.1111111111111111,1.0,1.0,0.7461067557824965,-0.0071988747894753,wait_cost,1.0,4.0,,,qh13,2,2023-02-28_10h31.34.197,threat_forest,2021.2.3,60.05425299180541,False,48.0,0.3111111111111111,0.3847222222222222,-1.3792592592592592,-1.3615046296296296,0,0,0,0.693579387060959,-0.0071988747894753,0.1975308641975308,0.1975308641975308,0.2222222222222222,0.8888888888888888,-1.6666666666666667,-1.5185185185185184,3.481481481481482,3.481481481481482,0.0,1.0,-1.0,5.0,0,0,0
7.0,0.0,7.0,0.0,1.0,0.0,1.0,0.0,,,,right,1.1283265999518337,282.96842799987644,qh13,270.57444320013747,274.08244640007615,282.96842799987644,None,True,4.0,['p'],False,0.1975308641975308,0.2222222222222222,0.1111111111111111,1.0,1.0,0.7461067557824965,-0.001083293741359,succ_gain,1.0,5.0,281.8414179002866,None,qh13,2,2023-02-28_10h31.34.197,threat_forest,2021.2.3,60.05425299180541,True,48.0,0.3111111111111111,0.3847222222222222,-1.3792592592592592,-1.3615046296296296,0,0,1,0.12073565013194199,-0.001083293741359,0.1975308641975308,0.1975308641975308,0.2222222222222222,0.8888888888888888,-1.6666666666666667,-1.5185185185185184,2.481481481481482,2.481481481481482,0.0,1.0,-1.0,4.0,0,0,0
7.0,0.0,7.0,0.0,2.0,0.0,2.0,0.0,,,,right,1.9046126999892292,287.643266200088,qh13,270.57444320013747,274.08244640007615,287.643266200088,None,True,5.0,['p'],False,0.1975308641975308,0.2222222222222222,0.1111111111111111,1.0,1.0,0.7461067557824965,-0.0374626039229961,succ_gain,1.0,6.0,286.1374073000625,None,qh13,2,2023-02-28_10h31.34.197,threat_forest,2021.2.3,60.05425299180541,True,48.0,0.3111111111111111,0.3847222222222222,-1.3792592592592592,-1.3615046296296296,0,0,1,0.6442786808167077,-0.0374626039229961,0.1975308641975308,0.1975308641975308,0.2222222222222222,0.8888888888888888,-1.6666666666666667,-1.5185185185185184,3.481481481481482,3.481481481481482,0.0,1.0,1.0,5.0,0,0,0
7.0,0.0,7.0,0.0,3.0,0.0,3.0,0.0,,,,right,1.2451873999089005,295.11042089993134,qh13,295.11042089993134,None,289.5680511998944,291.5655828001909,False,6.0,['p'],True,0.32,0.4,0.2,1.0,1.0,0.9455672104350704,-0.4032596045724737,wait_cost,0.0,5.0,291.5655828001909,None,qh13,2,2023-02-28_10h31.34.197,threat_forest,2021.2.3,60.05425299180541,False,48.0,0.3111111111111111,0.3847222222222222,-1.3792592592592592,-1.3615046296296296,1,0,0,0.21928604060455018,-0.4032596045724737,0.0,0.32,0.4,0.8,-1.4,-1.24,4.76,4.76,1.0,1.0,1.0,6.0,0,0,1
7.0,0.0,7.0,0.0,4.0,0.0,4.0,0.0,,,,left,1.1043355003930628,299.3210531002842,qh13,296.37811949988827,298.3923977999948,299.3210531002842,None,False,5.0,['p'],False,0.1975308641975308,0.2222222222222222,0.1111111111111111,1.0,1.0,0.7461067557824965,-0.4866382262565363,wait_cost,1.0,4.0,298.3923977999948,None,qh13,2,2023-02-28_10h31.34.197,threat_forest,2021.2.3,60.05425299180541,False,48.0,0.3111111111111111,0.3847222222222222,-1.3792592592592592,-1.3615046296296296,0,0,0,0.09924379697165629,-0.4866382262565363,0.0,0.1975308641975308,0.2222222222222222,0.8888888888888888,-1.6666666666666667,-1.5185185185185184,3.481481481481482,3.481481481481482,0.0,1.0,-1.0,5.0,0,0,0
7.0,0.0,7.0,0.0,5.0,0.0,5.0,0.0,,,,right,0.6601467998698354,304.14918980002403,qh13,304.14918980002403,None,300.4576596003026,302.4718863000162,False,4.0,['p'],True,0.32,0.4,0.2,1.0,1.0,0.9455672104350704,-0.4893432098765432,wait_cost,0.0,3.0,302.4718863000162,None,qh13,2,2023-02-28_10h31.34.197,threat_forest,2021.2.3,60.05425299180541,False,48.0,0.3111111111111111,0.3847222222222222,-1.3792592592592592,-1.3615046296296296,1,0,0,-0.4152930446490213,-0.4893432098765432,0.0,0.32,0.4,0.8,-1.4,-1.24,2.76,2.76,1.0,1.0,-1.0,4.0,0,0,1
7.0,0.0,7.0,0.0,6.0,0.0,6.0,0.0,,,,left,0.4422924998216331,307.45516860019416,qh13,304.8368147001602,306.851117500104,307.45516860019416,None,False,3.0,['p'],False,0.1975308641975308,0.2222222222222222,0.1111111111111111,1.0,1.0,0.7461067557824965,-0.6235695778082609,wait_cost,1.0,2.0,306.851117500104,None,qh13,2,2023-02-28_10h31.34.197,threat_forest,2021.2.3,60.05425299180541,False,48.0,0.3111111111111111,0.3847222222222222,-1.3792592592592592,-1.3615046296296296,0,0,0,-0.8157838514715429,-0.6235695778082609,0.0,0.1975308641975308,0.2222222222222222,0.8888888888888888,-1.6666666666666667,-1.5185185185185184,1.4814814814814816,1.4814814814814816,0.0,1.0,-1.0,3.0,0,0,0
7.0,0.0,7.0,0.0,7.0,0.0,7.0,0.0,,,,right,0.5953897000290453,311.5703337001614,qh13,311.5703337001614,None,307.91738740028813,309.93167879991233,False,2.0,['p'],True,0.32,0.4,0.2,1.0,1.0,0.9455672104350704,-0.6799999999999999,wait_cost,0.0,1.0,309.93167879991233,None,qh13,2,2023-02-28_10h31.34.197,threat_forest,2021.2.3,60.05425299180541,False,48.0,0.3111111111111111,0.3847222222222222,-1.3792592592592592,-1.3615046296296296,1,0,0,-0.5185391297959037,-0.6799999999999999,0.0,0.32,0.4,0.8,-1.4,-1.24,0.76,0.76,1.0,1.0,-1.0,2.0,0,0,1
8.0,0.0,8.0,0.0,0.0,0.0,0.0,0.0,317.0071228002198,320.52164340019226,None,right,2.144311100244522,321.56201610015705,qh13,317.0071228002198,320.52164340019226,321.56201610015705,None,True,4.0,['p'],False,0.5,0.5,0.0,0.0,1.0,0.6309297535714574,0.0805026556124999,succ_gain,1.0,5.0,,,qh13,2,2023-02-28_10h31.34.197,threat_forest,2021.2.3,60.05425299180541,True,0.0,0.55,0.4305555555555556,-0.9100000000000001,-1.1446296296296297,1,1,1,0.762818335408163,0.0805026556124999,0.5,0.5,0.5,1.0,-0.5,-0.5,3.5,3.5,0.0,1.0,-1.0,4.0,0,1,1
8.0,0.0,8.0,0.0,1.0,0.0,1.0,0.0,,,,None,,327.0159689001739,qh13,317.0071228002198,320.52164340019226,327.0159689001739,None,False,5.0,['p'],False,0.5,0.5,0.0,0.0,1.0,0.6309297535714574,0.10483549125,wait_cost,1.0,4.0,325.75012509990484,None,qh13,2,2023-02-28_10h31.34.197,threat_forest,2021.2.3,60.05425299180541,None,0.0,0.55,0.4305555555555556,-0.9100000000000001,-1.1446296296296297,1,1,0,,0.10483549125,0.5,0.5,0.5,1.0,-0.5,-0.5,4.5,4.5,0.0,1.0,1.0,5.0,0,1,1
8.0,0.0,8.0,0.0,2.0,0.0,2.0,0.0,,,,left,1.808966299984604,334.17065840028226,qh13,334.17065840028226,None,330.0297787999734,332.04424030007794,True,4.0,['p'],True,0.36,0.6,0.4,2.0,1.0,0.9801625908629508,-0.001790475,succ_gain,0.0,5.0,332.04424030007794,None,qh13,2,2023-02-28_10h31.34.197,threat_forest,2021.2.3,60.05425299180541,True,0.0,0.55,0.4305555555555556,-0.9100000000000001,-1.1446296296296297,0,0,1,0.5927555771542856,-0.001790475,0.36,0.36,0.6,0.6,-1.4000000000000004,-1.3200000000000003,2.6799999999999997,2.6799999999999997,1.0,1.0,-1.0,4.0,0,0,0
8.0,0.0,8.0,0.0,3.0,0.0,3.0,0.0,,,,right,1.722114000003785,341.6087714000605,qh13,336.0076263998635,338.0220288001001,341.6087714000605,None,True,5.0,['p'],False,0.5,0.5,0.0,0.0,1.0,0.6309297535714574,0.10499375,unsucc_cost,1.0,3.0,338.0220288001001,None,qh13,2,2023-02-28_10h31.34.197,threat_forest,2021.2.3,60.05425299180541,True,0.0,0.55,0.4305555555555556,-0.9100000000000001,-1.1446296296296297,1,1,1,0.5435526059070676,0.10499375,0.5,0.5,0.5,1.0,-0.5,-0.5,4.5,4.5,0.0,1.0,1.0,5.0,0,1,1
8.0,0.0,8.0,0.0,4.0,0.0,4.0,0.0,,,,right,1.3422937002032995,347.9629468000494,qh13,336.0076263998635,338.0220288001001,347.9629468000494,None,True,3.0,['p'],False,0.5,0.5,0.0,0.0,1.0,0.6309297535714574,0.134975,unsucc_cost,1.0,1.0,345.3651686999947,None,qh13,2,2023-02-28_10h31.34.197,threat_forest,2021.2.3,60.05425299180541,True,0.0,0.55,0.4305555555555556,-0.9100000000000001,-1.1446296296296297,1,1,1,0.29437986721525733,0.134975,0.5,0.5,0.5,1.0,-0.5,-0.5,2.5,2.5,0.0,1.0,-1.0,3.0,0,1,1
8.0,0.0,8.0,0.0,5.0,0.0,5.0,0.0,,,,left,1.882007299922407,353.06353469984606,qh13,353.06353469984606,None,349.3284793002531,351.3431569002569,True,1.0,['p'],True,0.36,0.6,0.4,2.0,1.0,0.9801625908629508,0.1674,fight_cost,0.0,0.0,351.3431569002569,None,qh13,2,2023-02-28_10h31.34.197,threat_forest,2021.2.3,60.05425299180541,True,0.0,0.55,0.4305555555555556,-0.9100000000000001,-1.1446296296296297,0,0,1,0.6323389199667211,0.1674,1.0,0.36,0.6,0.6,-1.4000000000000004,-1.3200000000000003,-0.3200000000000003,0.0,1.0,1.0,-1.0,1.0,1,0,0
9.0,0.0,9.0,0.0,0.0,0.0,0.0,0.0,360.3219532002695,363.8312213001773,None,left,2.422806799877435,364.4913397002965,qh13,360.3219532002695,363.8312213001773,364.4913397002965,None,False,4.0,['p'],False,0.36,0.6,0.4,2.0,2.0,0.9801625908629508,-0.0020350304999999,wait_cost,1.0,3.0,,,qh13,2,2023-02-28_10h31.34.197,threat_forest,2021.2.3,60.05425299180541,False,18.0,0.55,0.55,-0.4800000000000001,-0.6950000000000001,0,0,0,0.884926702740097,-0.0020350304999999,0.36,0.36,0.6,0.6,-0.8000000000000003,-0.9600000000000002,3.04,3.04,0.0,2.0,-1.0,4.0,0,0,0
9.0,0.0,9.0,0.0,1.0,0.0,1.0,0.0,,,,left,0.8331401003524661,370.5142403002829,qh13,370.5142403002829,None,366.9452323000878,368.9596776003018,True,3.0,['p'],True,0.5,0.5,0.0,0.0,2.0,0.6309297535714574,0.1837645000000001,succ_gain,0.0,5.0,368.9596776003018,None,qh13,2,2023-02-28_10h31.34.197,threat_forest,2021.2.3,60.05425299180541,True,18.0,0.55,0.55,-0.4800000000000001,-0.6950000000000001,1,0,1,-0.18255346325922106,0.1837645000000001,0.5,0.5,0.5,1.0,0.0,0.0,3.0,3.0,1.0,2.0,-1.0,3.0,0,0,1
9.0,0.0,9.0,0.0,2.0,0.0,2.0,0.0,,,,left,1.5237639001570642,374.6960446001031,qh13,371.3745746999048,373.3888794002123,374.6960446001031,None,False,5.0,['p'],False,0.36,0.6,0.4,2.0,2.0,0.9801625908629508,-0.050683,wait_cost,1.0,4.0,373.3888794002123,None,qh13,2,2023-02-28_10h31.34.197,threat_forest,2021.2.3,60.05425299180541,False,18.0,0.55,0.55,-0.4800000000000001,-0.6950000000000001,0,0,0,0.42118352410615056,-0.050683,0.36,0.36,0.6,0.6,-0.8000000000000003,-0.9600000000000002,4.04,4.04,0.0,2.0,1.0,5.0,0,0,0
9.0,0.0,9.0,0.0,3.0,0.0,3.0,0.0,,,,left,1.242046799976379,380.7877410999499,qh13,371.3745746999048,373.3888794002123,380.7877410999499,None,False,4.0,['p'],False,0.36,0.6,0.4,2.0,2.0,0.9801625908629508,-0.0169199999999999,wait_cost,1.0,3.0,378.2509705000557,None,qh13,2,2023-02-28_10h31.34.197,threat_forest,2021.2.3,60.05425299180541,False,18.0,0.55,0.55,-0.4800000000000001,-0.6950000000000001,0,0,0,0.21676066394177237,-0.0169199999999999,0.36,0.36,0.6,0.6,-0.8000000000000003,-0.9600000000000002,3.04,3.04,0.0,2.0,-1.0,4.0,0,0,0
9.0,0.0,9.0,0.0,4.0,0.0,4.0,0.0,,,,left,0.6645821998827159,386.317233200185,qh13,386.317233200185,None,382.0478226002306,384.0622212998569,True,3.0,['p'],True,0.5,0.5,0.0,0.0,2.0,0.6309297535714574,0.25,unsucc_cost,0.0,1.0,384.0622212998569,None,qh13,2,2023-02-28_10h31.34.197,threat_forest,2021.2.3,60.05425299180541,True,18.0,0.55,0.55,-0.4800000000000001,-0.6950000000000001,1,0,1,-0.40859670662417763,0.25,0.5,0.5,0.5,1.0,0.0,0.0,3.0,3.0,1.0,2.0,-1.0,3.0,0,0,1
9.0,0.0,9.0,0.0,5.0,0.0,5.0,0.0,,,,left,0.9986681998707354,392.3719981000759,qh13,392.3719981000759,None,382.0478226002306,384.0622212998569,True,1.0,['p'],True,0.5,0.5,0.0,0.0,2.0,0.6309297535714574,0.5,unsucc_cost,0.0,0.0,389.0242888000794,None,qh13,2,2023-02-28_10h31.34.197,threat_forest,2021.2.3,60.05425299180541,True,18.0,0.55,0.55,-0.4800000000000001,-0.6950000000000001,1,0,1,-0.0013326877632449758,0.5,1.0,0.5,0.5,1.0,0.0,0.0,1.0,1.0,1.0,2.0,-1.0,1.0,1,0,1
10.0,0.0,10.0,0.0,0.0,0.0,0.0,0.0,396.4764151000418,399.9668093998917,None,left,1.8492510002106428,401.0266836001538,qh13,401.0266836001538,None,396.4764151000418,399.96680939989164,True,5.0,['r'],True,0.27,0.3,0.1,1.0,2.0,0.7963326591781347,-0.0191201048580569,unsucc_cost,0.0,3.0,,,qh13,2,2023-02-28_10h31.34.197,threat_forest,2021.2.3,60.05425299180541,True,1.0,0.4833333333333333,0.5166666666666666,-0.7877777777777778,-0.633888888888889,0,0,1,0.6147806923593684,-0.0191201048580569,0.27,0.27,0.3,0.9,-1.1,-1.02,3.98,3.98,1.0,2.0,-1.0,5.0,0,0,0
10.0,0.0,10.0,0.0,1.0,0.0,1.0,0.0,,,,left,1.7694934997707603,405.8698571999557,qh13,405.8698571999557,None,396.4764151000418,399.96680939989164,True,3.0,['r'],True,0.27,0.3,0.1,1.0,2.0,0.7963326591781347,0.0431681748711396,succ_gain,0.0,5.0,404.90950440010056,None,qh13,2,2023-02-28_10h31.34.197,threat_forest,2021.2.3,60.05425299180541,True,1.0,0.4833333333333333,0.5166666666666666,-0.7877777777777778,-0.633888888888889,0,0,1,0.5706933473130285,0.0431681748711396,0.27,0.27,0.3,0.9,-1.1,-1.02,1.98,1.98,1.0,2.0,-1.0,3.0,0,0,0
10.0,0.0,10.0,0.0,2.0,0.0,2.0,0.0,,,,right,1.9251868003048005,411.1144916000776,qh13,407.65738910017535,409.6716244001873,411.1144916000776,None,True,5.0,['r'],False,0.4444444444444445,0.6666666666666666,0.3333333333333333,1.0,2.0,0.9656336071428248,0.0505826202705592,unsucc_cost,1.0,3.0,409.6716244001873,None,qh13,2,2023-02-28_10h31.34.197,threat_forest,2021.2.3,60.05425299180541,True,1.0,0.4833333333333333,0.5166666666666666,-0.7877777777777778,-0.633888888888889,1,0,1,0.6550230021511336,0.0505826202705592,0.4444444444444445,0.4444444444444445,0.6666666666666666,0.6666666666666667,-0.3333333333333335,-0.5555555555555556,4.444444444444445,4.444444444444445,0.0,2.0,1.0,5.0,0,0,1
10.0,0.0,10.0,0.0,3.0,0.0,3.0,0.0,,,,right,2.328614099882543,418.8152474998497,qh13,407.65738910017535,409.6716244001873,418.8152474998497,None,True,3.0,['r'],False,0.4444444444444445,0.6666666666666666,0.3333333333333333,1.0,2.0,0.9656336071428248,0.0840517292714524,succ_gain,1.0,5.0,415.08325530029833,None,qh13,2,2023-02-28_10h31.34.197,threat_forest,2021.2.3,60.05425299180541,True,1.0,0.4833333333333333,0.5166666666666666,-0.7877777777777778,-0.633888888888889,1,0,1,0.8452732836924333,0.0840517292714524,0.4444444444444445,0.4444444444444445,0.6666666666666666,0.6666666666666667,-0.3333333333333335,-0.5555555555555556,2.4444444444444446,2.4444444444444446,0.0,2.0,-1.0,3.0,0,0,1
10.0,0.0,10.0,0.0,4.0,0.0,4.0,0.0,,,,right,0.8207928999327123,426.5821663001552,qh13,426.5821663001552,None,421.1613859999925,423.17571450024843,False,5.0,['r'],True,0.27,0.3,0.1,1.0,2.0,0.7963326591781347,-0.3689703611111111,wait_cost,0.0,4.0,423.1757145002484,None,qh13,2,2023-02-28_10h31.34.197,threat_forest,2021.2.3,60.05425299180541,False,1.0,0.4833333333333333,0.5166666666666666,-0.7877777777777778,-0.633888888888889,0,0,0,-0.19748445478248905,-0.3689703611111111,0.0,0.27,0.3,0.9,-1.1,-1.02,3.98,3.98,1.0,2.0,1.0,5.0,0,0,0
10.0,0.0,10.0,0.0,5.0,0.0,5.0,0.0,,,,right,0.6687890999019146,432.0107761998661,qh13,432.0107761998661,None,421.1613859999925,423.17571450024843,False,4.0,['r'],True,0.27,0.3,0.1,1.0,2.0,0.7963326591781347,-0.4417527777777777,wait_cost,0.0,3.0,429.4373695002869,None,qh13,2,2023-02-28_10h31.34.197,threat_forest,2021.2.3,60.05425299180541,False,1.0,0.4833333333333333,0.5166666666666666,-0.7877777777777778,-0.633888888888889,0,0,0,-0.4022865153380077,-0.4417527777777777,0.0,0.27,0.3,0.9,-1.1,-1.02,2.98,2.98,1.0,2.0,-1.0,4.0,0,0,0
10.0,0.0,10.0,0.0,6.0,0.0,6.0,0.0,,,,left,0.6318329996429384,435.35446699988097,qh13,432.70049259997904,434.71492980001494,435.35446699988097,None,False,3.0,['r'],False,0.4444444444444445,0.6666666666666666,0.3333333333333333,1.0,2.0,0.9656336071428248,-0.4761728395061728,wait_cost,1.0,2.0,434.7149298000149,None,qh13,2,2023-02-28_10h31.34.197,threat_forest,2021.2.3,60.05425299180541,False,1.0,0.4833333333333333,0.5166666666666666,-0.7877777777777778,-0.633888888888889,1,0,0,-0.45913016082440283,-0.4761728395061728,0.0,0.4444444444444445,0.6666666666666666,0.6666666666666667,-0.3333333333333335,-0.5555555555555556,2.4444444444444446,2.4444444444444446,0.0,2.0,-1.0,3.0,0,0,1
10.0,0.0,10.0,0.0,7.0,0.0,7.0,0.0,,,,right,0.5769636002369225,440.3716740002856,qh13,440.3716740002856,None,436.0139131001197,438.02839410025626,False,2.0,['r'],True,0.27,0.3,0.1,1.0,2.0,0.7963326591781347,-0.73,wait_cost,0.0,1.0,438.02839410025626,None,qh13,2,2023-02-28_10h31.34.197,threat_forest,2021.2.3,60.05425299180541,False,1.0,0.4833333333333333,0.5166666666666666,-0.7877777777777778,-0.633888888888889,0,0,0,-0.5499760989753485,-0.73,0.0,0.27,0.3,0.9,-1.1,-1.02,0.98,0.98,1.0,2.0,-1.0,2.0,0,0,0
11.0,0.0,11.0,0.0,0.0,0.0,0.0,0.0,445.5518654002808,449.0616536000744,None,left,1.8729648999869823,450.657528300304,qh13,450.657528300304,None,445.5518654002808,449.06165360007435,True,4.0,['p'],True,0.4444444444444445,0.6666666666666666,0.3333333333333333,1.0,2.0,0.9656336071428248,0.0718624927804219,unsucc_cost,0.0,2.0,,,qh13,2,2023-02-28_10h31.34.197,threat_forest,2021.2.3,60.05425299180541,True,53.0,0.5,0.49166666666666664,-0.8703703703703706,-0.8290740740740742,1,0,1,0.6275226832900834,0.0718624927804219,0.4444444444444445,0.4444444444444445,0.6666666666666666,0.6666666666666667,-0.3333333333333335,-0.5555555555555556,3.4444444444444446,3.4444444444444446,1.0,2.0,-1.0,4.0,0,0,1
11.0,0.0,11.0,0.0,1.0,0.0,1.0,0.0,,,,left,1.7768994001671672,457.4956431002356,qh13,457.4956431002356,None,445.5518654002808,449.06165360007435,True,2.0,['p'],True,0.4444444444444445,0.6666666666666666,0.3333333333333333,1.0,2.0,0.9656336071428248,0.0650171080975019,succ_gain,0.0,4.0,454.563114200253,None,qh13,2,2023-02-28_10h31.34.197,threat_forest,2021.2.3,60.05425299180541,True,53.0,0.5,0.49166666666666664,-0.8703703703703706,-0.8290740740740742,1,0,1,0.5748699353961902,0.0650171080975019,0.4444444444444445,0.4444444444444445,0.6666666666666666,0.6666666666666667,-0.3333333333333335,-0.5555555555555556,1.4444444444444444,1.4444444444444444,1.0,2.0,-1.0,2.0,0,0,1
11.0,0.0,11.0,0.0,2.0,0.0,2.0,0.0,,,,right,1.6502894000150263,464.3507739002816,qh13,459.2924537998624,461.30681360000744,464.3507739002816,None,True,4.0,['p'],False,0.2592592592592592,0.3333333333333333,0.2222222222222222,2.0,2.0,0.9327883776363324,-0.0304071853695895,unsucc_cost,1.0,2.0,461.3068136000074,None,qh13,2,2023-02-28_10h31.34.197,threat_forest,2021.2.3,60.05425299180541,True,53.0,0.5,0.49166666666666664,-0.8703703703703706,-0.8290740740740742,0,0,1,0.5009506664812697,-0.0304071853695895,0.2592592592592592,0.2592592592592592,0.3333333333333333,0.7777777777777778,-1.3333333333333335,-1.1851851851851856,2.8148148148148144,2.8148148148148144,0.0,2.0,1.0,4.0,0,0,0
11.0,0.0,11.0,0.0,3.0,0.0,3.0,0.0,,,,right,1.5685661998577416,470.4721635002643,qh13,459.2924537998624,461.30681360000744,470.4721635002643,None,True,2.0,['p'],False,0.2592592592592592,0.3333333333333333,0.2222222222222222,2.0,2.0,0.9327883776363324,-0.0148605395518974,unsucc_cost,1.0,0.0,468.0338812000118,None,qh13,2,2023-02-28_10h31.34.197,threat_forest,2021.2.3,60.05425299180541,True,53.0,0.5,0.49166666666666664,-0.8703703703703706,-0.8290740740740742,0,0,1,0.4501619535964891,-0.0148605395518974,0.2592592592592592,0.2592592592592592,0.3333333333333333,0.7777777777777778,-1.3333333333333335,-1.1851851851851856,0.8148148148148144,0.8148148148148144,0.0,2.0,-1.0,2.0,0,0,0
12.0,0.0,12.0,0.0,0.0,0.0,0.0,0.0,477.24593740003183,480.7569341002964,None,left,1.0962461000308394,481.2891520000994,qh13,481.2891520000994,None,477.24593740003183,480.75693410029635,True,5.0,['r'],True,0.2962962962962963,0.3333333333333333,0.1111111111111111,1.0,2.0,0.8325252476189534,-0.0036833572583059,succ_gain,0.0,6.0,,,qh13,2,2023-02-28_10h31.34.197,threat_forest,2021.2.3,60.05425299180541,True,22.0,0.41666666666666663,0.4583333333333333,-0.7129629629629629,-0.7916666666666667,0,0,1,0.0918917071433912,-0.0036833572583059,0.2962962962962963,0.2962962962962963,0.3333333333333333,0.8888888888888888,-1.0000000000000002,-0.925925925925926,4.074074074074074,4.074074074074074,1.0,2.0,-1.0,5.0,0,0,0
12.0,0.0,12.0,0.0,1.0,0.0,1.0,0.0,,,,left,2.737559299916029,487.5430403999053,qh13,487.5430403999053,None,477.24593740003183,480.75693410029635,True,6.0,['r'],True,0.2962962962962963,0.3333333333333333,0.1111111111111111,1.0,2.0,0.8325252476189534,-0.0729659654773814,unsucc_cost,0.0,4.0,484.4186599999666,None,qh13,2,2023-02-28_10h31.34.197,threat_forest,2021.2.3,60.05425299180541,True,22.0,0.41666666666666663,0.4583333333333333,-0.7129629629629629,-0.7916666666666667,0,0,1,1.0070667569777823,-0.0729659654773814,0.2962962962962963,0.2962962962962963,0.3333333333333333,0.8888888888888888,-1.0000000000000002,-0.925925925925926,5.074074074074074,5.074074074074074,1.0,2.0,1.0,6.0,0,0,0
12.0,0.0,12.0,0.0,2.0,0.0,2.0,0.0,,,,left,1.4784217001870277,494.8024458000437,qh13,494.8024458000437,None,477.24593740003183,480.75693410029635,True,4.0,['r'],True,0.2962962962962963,0.3333333333333333,0.1111111111111111,1.0,2.0,0.8325252476189534,-0.0045686299615397,succ_gain,0.0,6.0,492.32786459987983,None,qh13,2,2023-02-28_10h31.34.197,threat_forest,2021.2.3,60.05425299180541,True,22.0,0.41666666666666663,0.4583333333333333,-0.7129629629629629,-0.7916666666666667,0,0,1,0.3909750999543694,-0.0045686299615397,0.2962962962962963,0.2962962962962963,0.3333333333333333,0.8888888888888888,-1.0000000000000002,-0.925925925925926,3.074074074074074,3.074074074074074,1.0,2.0,-1.0,4.0,0,0,0
12.0,0.0,12.0,0.0,3.0,0.0,3.0,0.0,,,,right,0.6132821999490261,501.6776923001744,qh13,501.6776923001744,None,477.24593740003183,480.75693410029635,False,6.0,['r'],True,0.2962962962962963,0.3333333333333333,0.1111111111111111,1.0,2.0,0.8325252476189534,-0.2879173969923284,wait_cost,0.0,5.0,498.3221308998764,None,qh13,2,2023-02-28_10h31.34.197,threat_forest,2021.2.3,60.05425299180541,False,22.0,0.41666666666666663,0.4583333333333333,-0.7129629629629629,-0.7916666666666667,0,0,0,-0.4889300901709847,-0.2879173969923284,0.0,0.2962962962962963,0.3333333333333333,0.8888888888888888,-1.0000000000000002,-0.925925925925926,5.074074074074074,5.074074074074074,1.0,2.0,1.0,6.0,0,0,0
12.0,0.0,12.0,0.0,4.0,0.0,4.0,0.0,,,,right,0.4759073997847736,506.5535154999234,qh13,506.5535154999234,None,477.24593740003183,480.75693410029635,False,5.0,['r'],True,0.2962962962962963,0.3333333333333333,0.1111111111111111,1.0,2.0,0.8325252476189534,-0.3429005995021084,wait_cost,0.0,4.0,504.3333069002256,None,qh13,2,2023-02-28_10h31.34.197,threat_forest,2021.2.3,60.05425299180541,False,22.0,0.41666666666666663,0.4583333333333333,-0.7129629629629629,-0.7916666666666667,0,0,0,-0.7425319819430226,-0.3429005995021084,0.0,0.2962962962962963,0.3333333333333333,0.8888888888888888,-1.0000000000000002,-0.925925925925926,4.074074074074074,4.074074074074074,1.0,2.0,-1.0,5.0,0,0,0
12.0,0.0,12.0,0.0,5.0,0.0,5.0,0.0,,,,right,0.5772122000344098,512.8472585002892,qh13,512.8472585002892,None,477.24593740003183,480.75693410029635,False,4.0,['r'],True,0.2962962962962963,0.3333333333333333,0.1111111111111111,1.0,2.0,0.8325252476189534,-0.4350137174211248,wait_cost,0.0,3.0,509.06216740002856,None,qh13,2,2023-02-28_10h31.34.197,threat_forest,2021.2.3,60.05425299180541,False,22.0,0.41666666666666663,0.4583333333333333,-0.7129629629629629,-0.7916666666666667,0,0,0,-0.5495453157250442,-0.4350137174211248,0.0,0.2962962962962963,0.3333333333333333,0.8888888888888888,-1.0000000000000002,-0.925925925925926,3.074074074074074,3.074074074074074,1.0,2.0,-1.0,4.0,0,0,0
12.0,0.0,12.0,0.0,6.0,0.0,6.0,0.0,,,,right,0.6932564000599086,516.2766903000884,qh13,516.2766903000884,None,477.24593740003183,480.75693410029635,False,3.0,['r'],True,0.2962962962962963,0.3333333333333333,0.1111111111111111,1.0,2.0,0.8325252476189534,-0.4924554183813443,wait_cost,0.0,2.0,515.4559712000191,None,qh13,2,2023-02-28_10h31.34.197,threat_forest,2021.2.3,60.05425299180541,False,22.0,0.41666666666666663,0.4583333333333333,-0.7129629629629629,-0.7916666666666667,0,0,0,-0.3663553625636153,-0.4924554183813443,0.0,0.2962962962962963,0.3333333333333333,0.8888888888888888,-1.0000000000000002,-0.925925925925926,2.074074074074074,2.074074074074074,1.0,2.0,-1.0,3.0,0,0,0
12.0,0.0,12.0,0.0,7.0,0.0,7.0,0.0,,,,left,0.9935112004168332,521.2582356999628,qh13,516.9882463002577,519.0027375002392,521.2582356999628,None,False,2.0,['r'],False,0.4166666666666667,0.5,0.1666666666666666,1.0,2.0,0.9358932809493992,-0.5833333333333333,wait_cost,1.0,1.0,519.0027375002392,None,qh13,2,2023-02-28_10h31.34.197,threat_forest,2021.2.3,60.05425299180541,False,22.0,0.41666666666666663,0.4583333333333333,-0.7129629629629629,-0.7916666666666667,1,0,0,-0.0065099433579569165,-0.5833333333333333,0.0,0.4166666666666667,0.5,0.8333333333333334,-0.4999999999999998,-0.4999999999999998,1.5000000000000002,1.5000000000000002,0.0,2.0,-1.0,2.0,0,0,1
13.0,0.0,13.0,0.0,0.0,0.0,0.0,0.0,527.4836933002807,530.9841268998571,None,left,1.8355879001319408,533.5342043000273,qh13,527.4836933002807,530.9841268998571,533.5342043000273,None,False,5.0,['r'],False,0.2962962962962963,0.3333333333333333,0.1111111111111111,1.0,1.0,0.8325252476189534,-0.0072014784086608,wait_cost,1.0,4.0,,,qh13,2,2023-02-28_10h31.34.197,threat_forest,2021.2.3,60.05425299180541,False,4.0,0.4666666666666667,0.44166666666666665,-0.9911111111111113,-0.8520370370370371,0,0,0,0.6073648117386181,-0.0072014784086608,0.2962962962962963,0.2962962962962963,0.3333333333333333,0.8888888888888888,-1.3333333333333335,-1.2222222222222223,3.7777777777777777,3.7777777777777777,0.0,1.0,-1.0,5.0,0,0,0
13.0,0.0,13.0,0.0,1.0,0.0,1.0,0.0,,,,left,1.2735407003201544,538.3296328000724,qh13,527.4836933002807,530.9841268998571,538.3296328000724,None,False,4.0,['r'],False,0.2962962962962963,0.3333333333333333,0.1111111111111111,1.0,1.0,0.8325252476189534,0.0058509134989481,wait_cost,1.0,3.0,537.4020357001573,None,qh13,2,2023-02-28_10h31.34.197,threat_forest,2021.2.3,60.05425299180541,False,4.0,0.4666666666666667,0.44166666666666665,-0.9911111111111113,-0.8520370370370371,0,0,0,0.24180097434572878,0.0058509134989481,0.2962962962962963,0.2962962962962963,0.3333333333333333,0.8888888888888888,-1.3333333333333335,-1.2222222222222223,2.7777777777777777,2.7777777777777777,0.0,1.0,-1.0,4.0,0,0,0
13.0,0.0,13.0,0.0,2.0,0.0,2.0,0.0,,,,left,1.6204563998617232,543.9530528001487,qh13,527.4836933002807,530.9841268998571,543.9530528001487,None,False,3.0,['r'],False,0.2962962962962963,0.3333333333333333,0.1111111111111111,1.0,1.0,0.8325252476189534,0.0084111177933203,wait_cost,1.0,2.0,541.6480644000694,None,qh13,2,2023-02-28_10h31.34.197,threat_forest,2021.2.3,60.05425299180541,False,4.0,0.4666666666666667,0.44166666666666665,-0.9911111111111113,-0.8520370370370371,0,0,0,0.4827078378760302,0.0084111177933203,0.2962962962962963,0.2962962962962963,0.3333333333333333,0.8888888888888888,-1.3333333333333335,-1.2222222222222223,1.7777777777777777,1.7777777777777777,0.0,1.0,-1.0,3.0,0,0,0
13.0,0.0,13.0,0.0,3.0,0.0,3.0,0.0,,,,left,1.568167199846357,549.5912084002048,qh13,527.4836933002807,530.9841268998571,549.5912084002048,None,False,2.0,['r'],False,0.2962962962962963,0.3333333333333333,0.1111111111111111,1.0,1.0,0.8325252476189534,-0.0250792273535538,wait_cost,1.0,1.0,547.6092060999945,None,qh13,2,2023-02-28_10h31.34.197,threat_forest,2021.2.3,60.05425299180541,False,4.0,0.4666666666666667,0.44166666666666665,-0.9911111111111113,-0.8520370370370371,0,0,0,0.449907548798444,-0.0250792273535538,0.2962962962962963,0.2962962962962963,0.3333333333333333,0.8888888888888888,-1.3333333333333335,-1.2222222222222223,0.7777777777777777,0.7777777777777777,0.0,1.0,-1.0,2.0,0,0,0
13.0,0.0,13.0,0.0,4.0,0.0,4.0,0.0,,,,left,1.6648432998917997,553.9633796000853,qh13,553.9633796000853,None,551.1896740002558,553.2039140001871,True,1.0,['r'],True,0.48,0.6,0.2,1.0,1.0,0.9455672104350704,0.2083555555555555,succ_gain,0.0,2.0,553.2039140001871,None,qh13,2,2023-02-28_10h31.34.197,threat_forest,2021.2.3,60.05425299180541,True,4.0,0.4666666666666667,0.44166666666666665,-0.9911111111111113,-0.8520370370370371,1,1,1,0.5097310048242906,0.2083555555555555,1.0,0.48,0.6,0.8,-0.8000000000000002,-0.7600000000000002,0.23999999999999977,0.23999999999999977,1.0,1.0,-1.0,1.0,1,1,1
13.0,0.0,13.0,0.0,5.0,0.0,5.0,0.0,,,,left,1.3508493998087945,559.6090882001445,qh13,555.6519626001827,557.6664360002615,559.6090882001445,None,False,2.0,['r'],False,0.2962962962962963,0.3333333333333333,0.1111111111111111,1.0,1.0,0.8325252476189534,-0.0918518518518518,wait_cost,1.0,1.0,557.6664360002615,None,qh13,2,2023-02-28_10h31.34.197,threat_forest,2021.2.3,60.05425299180541,False,4.0,0.4666666666666667,0.44166666666666665,-0.9911111111111113,-0.8520370370370371,0,0,0,0.30073357963996683,-0.0918518518518518,0.2962962962962963,0.2962962962962963,0.3333333333333333,0.8888888888888888,-1.3333333333333335,-1.2222222222222223,0.7777777777777777,0.7777777777777777,0.0,1.0,1.0,2.0,0,0,0
13.0,0.0,13.0,0.0,6.0,0.0,6.0,0.0,,,,left,1.3983590002171695,565.0829396001063,qh13,565.0829396001063,None,560.9803776000626,562.9947955003008,True,1.0,['r'],True,0.48,0.6,0.2,1.0,1.0,0.9455672104350704,0.48,fight_cost,0.0,0.0,562.9947955003008,None,qh13,2,2023-02-28_10h31.34.197,threat_forest,2021.2.3,60.05425299180541,True,4.0,0.4666666666666667,0.44166666666666665,-0.9911111111111113,-0.8520370370370371,1,1,1,0.3352994064226523,0.48,1.0,0.48,0.6,0.8,-0.8000000000000002,-0.7600000000000002,0.23999999999999977,0.23999999999999977,1.0,1.0,-1.0,1.0,1,1,1
14.0,0.0,14.0,0.0,0.0,0.0,0.0,0.0,571.0853523998521,574.6005086000077,None,left,1.6109776003286242,575.3293624999933,qh13,575.3293624999933,None,571.0853523998521,574.6005086000077,True,5.0,['p'],True,0.36,0.6,0.4,2.0,1.0,0.9801625908629508,-0.019480620685,succ_gain,0.0,6.0,,,qh13,2,2023-02-28_10h31.34.197,threat_forest,2021.2.3,60.05425299180541,True,24.0,0.55,0.5083333333333333,-0.9100000000000001,-0.9505555555555557,0,0,1,0.47684119989496027,-0.019480620685,0.36,0.36,0.6,0.6,-1.4000000000000004,-1.3200000000000003,3.6799999999999997,3.6799999999999997,1.0,1.0,-1.0,5.0,0,0,0
14.0,0.0,14.0,0.0,1.0,0.0,1.0,0.0,,,,right,1.3525288999080658,581.2339288000949,qh13,581.2339288000949,None,571.0853523998521,574.6005086000077,False,6.0,['p'],True,0.36,0.6,0.4,2.0,1.0,0.9801625908629508,-0.1431121019999999,wait_cost,0.0,5.0,578.9798071999103,None,qh13,2,2023-02-28_10h31.34.197,threat_forest,2021.2.3,60.05425299180541,False,24.0,0.55,0.5083333333333333,-0.9100000000000001,-0.9505555555555557,0,0,0,0.30197609927957675,-0.1431121019999999,0.36,0.36,0.6,0.6,-1.4000000000000004,-1.3200000000000003,4.68,4.68,1.0,1.0,1.0,6.0,0,0,0
14.0,0.0,14.0,0.0,2.0,0.0,2.0,0.0,,,,right,1.4685068996623158,585.2777307000943,qh13,585.2777307000943,None,571.0853523998521,574.6005086000077,False,5.0,['p'],True,0.36,0.6,0.4,2.0,1.0,0.9801625908629508,-0.0404334399999999,wait_cost,0.0,4.0,584.6246949001215,None,qh13,2,2023-02-28_10h31.34.197,threat_forest,2021.2.3,60.05425299180541,False,24.0,0.55,0.5083333333333333,-0.9100000000000001,-0.9505555555555557,0,0,0,0.3842461700876627,-0.0404334399999999,0.36,0.36,0.6,0.6,-1.4000000000000004,-1.3200000000000003,3.6799999999999997,3.6799999999999997,1.0,1.0,-1.0,5.0,0,0,0
14.0,0.0,14.0,0.0,3.0,0.0,3.0,0.0,,,,right,1.0924434000626206,590.043013300281,qh13,586.7731439000927,588.7872899002396,590.043013300281,None,True,4.0,['p'],False,0.5,0.5,0.0,0.0,1.0,0.6309297535714574,0.0943624999999999,succ_gain,1.0,5.0,588.7872899002396,None,qh13,2,2023-02-28_10h31.34.197,threat_forest,2021.2.3,60.05425299180541,True,24.0,0.55,0.5083333333333333,-0.9100000000000001,-0.9505555555555557,1,0,1,0.08841683892254003,0.0943624999999999,0.5,0.5,0.5,1.0,-0.5,-0.5,3.5,3.5,0.0,1.0,-1.0,4.0,0,0,1
14.0,0.0,14.0,0.0,4.0,0.0,4.0,0.0,,,,right,1.2533694002777338,596.3263660999946,qh13,596.3263660999946,None,591.1521124001592,593.1666212999262,False,5.0,['p'],True,0.36,0.6,0.4,2.0,1.0,0.9801625908629508,-0.3124,wait_cost,0.0,4.0,593.1666212999262,None,qh13,2,2023-02-28_10h31.34.197,threat_forest,2021.2.3,60.05425299180541,False,24.0,0.55,0.5083333333333333,-0.9100000000000001,-0.9505555555555557,0,0,0,0.22583544513698958,-0.3124,0.0,0.36,0.6,0.6,-1.4000000000000004,-1.3200000000000003,3.6799999999999997,3.6799999999999997,1.0,1.0,1.0,5.0,0,0,0
14.0,0.0,14.0,0.0,5.0,0.0,5.0,0.0,,,,right,1.0545490998774767,601.313215199858,qh13,601.313215199858,None,591.1521124001592,593.1666212999262,False,4.0,['p'],True,0.36,0.6,0.4,2.0,1.0,0.9801625908629508,-0.3564,wait_cost,0.0,3.0,599.6106940000318,None,qh13,2,2023-02-28_10h31.34.197,threat_forest,2021.2.3,60.05425299180541,False,24.0,0.55,0.5083333333333333,-0.9100000000000001,-0.9505555555555557,0,0,0,0.0531132820883396,-0.3564,0.0,0.36,0.6,0.6,-1.4000000000000004,-1.3200000000000003,2.6799999999999997,2.6799999999999997,1.0,1.0,-1.0,4.0,0,0,0
14.0,0.0,14.0,0.0,6.0,0.0,6.0,0.0,,,,left,1.4065561001189053,604.966233999934,qh13,602.3916871002875,604.4569064001553,604.966233999934,None,False,3.0,['p'],False,0.5,0.5,0.0,0.0,1.0,0.6309297535714574,-0.285,wait_cost,1.0,2.0,604.4569064001553,None,qh13,2,2023-02-28_10h31.34.197,threat_forest,2021.2.3,60.05425299180541,False,24.0,0.55,0.5083333333333333,-0.9100000000000001,-0.9505555555555557,1,0,0,0.34114423447932174,-0.285,0.0,0.5,0.5,1.0,-0.5,-0.5,2.5,2.5,0.0,1.0,-1.0,3.0,0,0,1
