miniblock.thisRepN,miniblock.thisTrialN,miniblock.thisN,miniblock.thisIndex,day.thisRepN,day.thisTrialN,day.thisN,day.thisIndex,forest.started,fixation_forest.started,fixation_forest.stopped,key_resp.keys,key_resp.rt,key_resp.started,Subject_ID,weather_left.started,weather_left.stopped,weather_right.started,weather_right.stopped,foraging T/F,in_LP,p/r heuristic,good_weather.T/F,p_succ_correct,p_succ_uncorrected,r_threat,n_oponents,gain_if_succ,weather_entropy,OP_value_difference,action_outcome,forest_side_L=0_R=1,out_LP,fixation_day.started,fixation_day.stopped,participant,session,date,expName,psychopyVersion,frameRate,foraging T/F NaNs,fora_NR,forest_mean_p,mvt_cutoff_p,forest_mean_ev,mvt_cutoff_ev,mvt_policy_eg,mvt_policy_p,fora_response,logRT,optimal policy,$\mathit{p}$ success cor + cap,$\mathit{p}$ success cor,$\mathit{p}$ success,risk threat encounter,expected gain naive,expected gain correct,expected state no bounds,expected state with bounds,weather type,gain magnitude,win stay lose shift,continuous energy state,binary energy state,$\mathit{p}$ success based MVT,expected gain based MVT
0.0,0.0,0.0,0.0,0.0,0.0,0.0,0.0,33.02597730001435,36.53067969996482,None,left,2.8004063999978825,38.92816340003628,zu11,38.92816340003628,None,33.02597730001435,36.53067969996482,True,4.0,['r'],True,0.25,0.5,0.5,2.0,1.0,0.9463946303571862,0.0015300455080301,figh_cost,0.0,1.0,,,zu11,1,2023-03-28_11h13.54.028,threat_forest,2021.2.3,60.03842457677967,True,43.0,0.41666666666666663,0.41666666666666663,-1.375,-1.375,0,0,1,1.0297645495053396,0.0015300455080301,0.25,0.25,0.5,0.5,-2.0,-1.75,2.25,2.25,1.0,1.0,,4.0,0,0,0
0.0,0.0,0.0,0.0,1.0,0.0,1.0,0.0,,,,right,2.1195454000262544,47.40400780003984,zu11,41.759329100023024,43.77380780002568,47.40400780003984,None,True,1.0,['r'],False,0.3333333333333333,0.3333333333333333,0.0,0.0,1.0,0.5793801642856949,0.0177720309284978,unsucc_cost,1.0,0.0,43.77380780002568,None,zu11,1,2023-03-28_11h13.54.028,threat_forest,2021.2.3,60.03842457677967,True,43.0,0.41666666666666663,0.41666666666666663,-1.375,-1.375,1,0,1,0.7512016317397944,0.0177720309284978,1.0,0.3333333333333333,0.3333333333333333,1.0,-1.0000000000000002,-1.0000000000000002,-2.220446049250313e-16,0.0,0.0,1.0,-1.0,1.0,1,0,1
1.0,0.0,1.0,0.0,0.0,0.0,0.0,0.0,54.49342299997807,57.99392010003794,None,left,1.1439597000135109,61.041779699968174,zu11,61.041779699968174,None,54.49342299997807,57.99392010003794,True,5.0,['p'],True,0.4444444444444445,0.6666666666666666,0.3333333333333333,1.0,1.0,0.9656336071428248,0.0467066160950204,figh_cost,0.0,2.0,,,zu11,1,2023-03-28_11h13.54.028,threat_forest,2021.2.3,60.03842457677967,True,57.0,0.4583333333333333,0.4375,-1.34375,-1.359375,1,1,1,0.13449566507619456,0.0467066160950204,0.4444444444444445,0.4444444444444445,0.6666666666666666,0.6666666666666667,-1.0,-1.0,4.0,4.0,1.0,1.0,-1.0,5.0,0,1,1
1.0,0.0,1.0,0.0,1.0,0.0,1.0,0.0,,,,left,1.4059546999633312,66.22147099999711,zu11,62.20689080003649,64.22145790001377,66.22147099999711,None,False,2.0,['p'],False,0.1875,0.25,0.25,2.0,1.0,0.895754137500101,-0.0136192356711001,wait_cost,1.0,1.0,64.22145790001377,None,zu11,1,2023-03-28_11h13.54.028,threat_forest,2021.2.3,60.03842457677967,False,57.0,0.4583333333333333,0.4375,-1.34375,-1.359375,0,0,0,0.34071657378218057,-0.0136192356711001,0.1875,0.1875,0.25,0.75,-2.0,-1.6875,0.3125,0.3125,0.0,1.0,-1.0,2.0,0,0,0
1.0,0.0,1.0,0.0,2.0,0.0,2.0,0.0,,,,left,1.0586408999515695,70.51861010002904,zu11,70.51861010002904,None,67.65199259994552,69.66624339995906,True,1.0,['p'],True,0.4444444444444445,0.6666666666666666,0.3333333333333333,1.0,1.0,0.9656336071428248,0.0687386779676624,succ_gain,0.0,2.0,69.66624339995906,None,zu11,1,2023-03-28_11h13.54.028,threat_forest,2021.2.3,60.03842457677967,True,57.0,0.4583333333333333,0.4375,-1.34375,-1.359375,1,1,1,0.056985915583906636,0.0687386779676624,1.0,0.4444444444444445,0.6666666666666666,0.6666666666666667,-1.0,-1.0,0.0,0.0,1.0,1.0,-1.0,1.0,1,1,1
1.0,0.0,1.0,0.0,3.0,0.0,3.0,0.0,,,,left,1.6589153000386432,74.55029970000032,zu11,71.59818219998851,73.61277709994465,74.55029970000032,None,False,2.0,['p'],False,0.1875,0.25,0.25,2.0,1.0,0.895754137500101,-0.0403212559076002,wait_cost,1.0,1.0,73.61277709994465,None,zu11,1,2023-03-28_11h13.54.028,threat_forest,2021.2.3,60.03842457677967,False,57.0,0.4583333333333333,0.4375,-1.34375,-1.359375,0,0,0,0.5061639550759377,-0.0403212559076002,0.1875,0.1875,0.25,0.75,-2.0,-1.6875,0.3125,0.3125,0.0,1.0,1.0,2.0,0,0,0
1.0,0.0,1.0,0.0,4.0,0.0,4.0,0.0,,,,left,1.127631500014104,81.15589049994014,zu11,81.15589049994014,None,76.22721509996336,78.24167449993547,True,1.0,['p'],True,0.4444444444444445,0.6666666666666666,0.3333333333333333,1.0,1.0,0.9656336071428248,0.1689814814814814,succ_gain,0.0,2.0,78.24167449993547,None,zu11,1,2023-03-28_11h13.54.028,threat_forest,2021.2.3,60.03842457677967,True,57.0,0.4583333333333333,0.4375,-1.34375,-1.359375,1,1,1,0.12011941531823955,0.1689814814814814,1.0,0.4444444444444445,0.6666666666666666,0.6666666666666667,-1.0,-1.0,0.0,0.0,1.0,1.0,-1.0,1.0,1,1,1
1.0,0.0,1.0,0.0,5.0,0.0,5.0,0.0,,,,left,1.159425799967721,84.96900849998929,zu11,84.96900849998929,None,76.22721509996336,78.24167449993547,True,2.0,['p'],True,0.4444444444444445,0.6666666666666666,0.3333333333333333,1.0,1.0,0.9656336071428248,0.1284722222222222,succ_gain,0.0,3.0,84.31936850002967,None,zu11,1,2023-03-28_11h13.54.028,threat_forest,2021.2.3,60.03842457677967,True,57.0,0.4583333333333333,0.4375,-1.34375,-1.359375,1,1,1,0.14792488253748873,0.1284722222222222,0.4444444444444445,0.4444444444444445,0.6666666666666666,0.6666666666666667,-1.0,-1.0,1.0,1.0,1.0,1.0,1.0,2.0,0,1,1
1.0,0.0,1.0,0.0,6.0,0.0,6.0,0.0,,,,None,,91.24687789997552,zu11,91.24687789997552,None,76.22721509996336,78.24167449993547,False,3.0,['p'],True,0.4444444444444445,0.6666666666666666,0.3333333333333333,1.0,1.0,0.9656336071428248,-0.4853395061728395,wait_cost,0.0,2.0,88.16578659997322,None,zu11,1,2023-03-28_11h13.54.028,threat_forest,2021.2.3,60.03842457677967,None,57.0,0.4583333333333333,0.4375,-1.34375,-1.359375,1,1,0,,-0.4853395061728395,0.0,0.4444444444444445,0.6666666666666666,0.6666666666666667,-1.0,-1.0,2.0,2.0,1.0,1.0,1.0,3.0,0,1,1
1.0,0.0,1.0,0.0,7.0,0.0,7.0,0.0,,,,left,0.8054065000033006,98.87268120003864,zu11,94.26027029997203,96.27482279995456,98.87268120003864,None,False,2.0,['p'],False,0.1875,0.25,0.25,2.0,1.0,0.895754137500101,-0.8125,wait_cost,1.0,1.0,96.27482279995456,None,zu11,1,2023-03-28_11h13.54.028,threat_forest,2021.2.3,60.03842457677967,False,57.0,0.4583333333333333,0.4375,-1.34375,-1.359375,0,0,0,-0.21640816006928845,-0.8125,0.0,0.1875,0.25,0.75,-2.0,-1.6875,0.3125,0.3125,0.0,1.0,-1.0,2.0,0,0,0
2.0,0.0,2.0,0.0,0.0,0.0,0.0,0.0,104.69182369997723,108.1971152999904,None,left,1.1584330999758097,111.09696779993828,zu11,104.69182369997723,108.1971152999904,111.09696779993828,None,False,4.0,['p'],False,0.18,0.2,0.1,1.0,2.0,0.7058405977926203,-0.0041239600981238,wait_cost,1.0,3.0,,,zu11,1,2023-03-28_11h13.54.028,threat_forest,2021.2.3,60.03842457677967,False,41.0,0.43333333333333335,0.4458333333333333,-0.9677777777777778,-1.155763888888889,0,0,0,0.1470683161152346,-0.0041239600981238,0.18,0.18,0.2,0.9,-1.5000000000000002,-1.3800000000000001,2.62,2.62,0.0,2.0,-1.0,4.0,0,0,0
2.0,0.0,2.0,0.0,1.0,0.0,1.0,0.0,,,,left,0.8958352999761701,116.30683969997337,zu11,104.69182369997723,108.1971152999904,116.30683969997337,None,False,3.0,['p'],False,0.18,0.2,0.1,1.0,2.0,0.7058405977926203,0.0098185922261646,wait_cost,1.0,2.0,114.29135960002895,None,zu11,1,2023-03-28_11h13.54.028,threat_forest,2021.2.3,60.03842457677967,False,41.0,0.43333333333333335,0.4458333333333333,-0.9677777777777778,-1.155763888888889,0,0,0,-0.10999869989450187,0.0098185922261646,0.18,0.18,0.2,0.9,-1.5000000000000002,-1.3800000000000001,1.6199999999999999,1.6199999999999999,0.0,2.0,-1.0,3.0,0,0,0
2.0,0.0,2.0,0.0,2.0,0.0,2.0,0.0,,,,left,0.969834199990146,122.7170819999883,zu11,122.7170819999883,None,117.22231979994103,119.23676869994961,True,2.0,['p'],True,0.4444444444444445,0.6666666666666666,0.3333333333333333,1.0,2.0,0.9656336071428248,0.0883836365594675,unsucc_cost,0.0,0.0,119.2367686999496,None,zu11,1,2023-03-28_11h13.54.028,threat_forest,2021.2.3,60.03842457677967,True,41.0,0.43333333333333335,0.4458333333333333,-0.9677777777777778,-1.155763888888889,1,0,1,-0.03063014993974786,0.0883836365594675,0.4444444444444445,0.4444444444444445,0.6666666666666666,0.6666666666666667,-0.3333333333333335,-0.5555555555555556,1.4444444444444444,1.4444444444444444,1.0,2.0,-1.0,2.0,0,0,1
3.0,0.0,3.0,0.0,0.0,0.0,0.0,0.0,129.3353245999897,132.84163519996218,None,right,2.520524699939415,135.45756100001745,zu11,135.45756100001745,None,129.3353245999897,132.84163519996218,False,5.0,['r'],True,0.3061224489795918,0.4285714285714285,0.2857142857142857,2.0,1.0,0.9885754083994552,-0.0051042852935925,wait_cost,0.0,4.0,,,zu11,1,2023-03-28_11h13.54.028,threat_forest,2021.2.3,60.03842457677967,False,36.0,0.41428571428571426,0.4238095238095238,-1.083673469387755,-1.0257256235827663,0,0,0,0.9244670941114236,-0.0051042852935925,0.3061224489795918,0.3061224489795918,0.4285714285714285,0.7142857142857143,-1.5714285714285716,-1.3673469387755102,3.63265306122449,3.63265306122449,1.0,1.0,-1.0,5.0,0,0,0
3.0,0.0,3.0,0.0,1.0,0.0,1.0,0.0,,,,left,1.2316472000675276,142.03269040002488,zu11,142.03269040002488,None,129.3353245999897,132.84163519996218,True,4.0,['r'],True,0.3061224489795918,0.4285714285714285,0.2857142857142857,2.0,1.0,0.9885754083994552,0.0131354906297295,succ_gain,0.0,5.0,140.01738350000232,None,zu11,1,2023-03-28_11h13.54.028,threat_forest,2021.2.3,60.03842457677967,True,36.0,0.41428571428571426,0.4238095238095238,-1.083673469387755,-1.0257256235827663,0,0,1,0.208352460519896,0.0131354906297295,0.3061224489795918,0.3061224489795918,0.4285714285714285,0.7142857142857143,-1.5714285714285716,-1.3673469387755102,2.63265306122449,2.63265306122449,1.0,1.0,-1.0,4.0,0,0,0
3.0,0.0,3.0,0.0,2.0,0.0,2.0,0.0,,,,left,1.4957165999803692,146.12871980003547,zu11,143.28144309995696,145.2957660999382,146.12871980003547,None,False,5.0,['r'],False,0.4,0.4,0.0,0.0,1.0,0.6126016192893442,0.0924299156813913,wait_cost,1.0,4.0,145.2957660999382,None,zu11,1,2023-03-28_11h13.54.028,threat_forest,2021.2.3,60.03842457677967,False,36.0,0.41428571428571426,0.4238095238095238,-1.083673469387755,-1.0257256235827663,1,0,0,0.4026054230907474,0.0924299156813913,0.4,0.4,0.4,1.0,-0.7999999999999999,-0.7999999999999999,4.2,4.2,0.0,1.0,1.0,5.0,0,0,1
3.0,0.0,3.0,0.0,3.0,0.0,3.0,0.0,,,,right,0.8230673000216484,152.78914110001642,zu11,143.28144309995696,145.2957660999382,152.78914110001642,None,True,4.0,['r'],False,0.4,0.4,0.0,0.0,1.0,0.6126016192893442,0.0843454623498712,unsucc_cost,1.0,2.0,149.65849269996397,None,zu11,1,2023-03-28_11h13.54.028,threat_forest,2021.2.3,60.03842457677967,True,36.0,0.41428571428571426,0.4238095238095238,-1.083673469387755,-1.0257256235827663,1,0,1,-0.19471730762450634,0.0843454623498712,0.4,0.4,0.4,1.0,-0.7999999999999999,-0.7999999999999999,3.2,3.2,0.0,1.0,-1.0,4.0,0,0,1
3.0,0.0,3.0,0.0,4.0,0.0,4.0,0.0,,,,left,2.481798100052401,157.45387069997378,zu11,157.45387069997378,None,153.6383495000191,155.65277569997124,True,2.0,['r'],True,0.3061224489795918,0.4285714285714285,0.2857142857142857,2.0,1.0,0.9885754083994552,0.0296227337248934,figh_cost,0.0,0.0,155.65277569997124,None,zu11,1,2023-03-28_11h13.54.028,threat_forest,2021.2.3,60.03842457677967,True,36.0,0.41428571428571426,0.4238095238095238,-1.083673469387755,-1.0257256235827663,0,0,1,0.9089833378058291,0.0296227337248934,0.3061224489795918,0.3061224489795918,0.4285714285714285,0.7142857142857143,-1.5714285714285716,-1.3673469387755102,0.6326530612244898,0.6326530612244898,1.0,1.0,-1.0,2.0,0,0,0
4.0,0.0,4.0,0.0,0.0,0.0,0.0,0.0,165.5893567999592,169.08745739993174,None,left,2.0703488000435755,170.85662560001947,zu11,170.85662560001947,None,165.5893567999592,169.08745739993174,True,5.0,['p'],True,0.2222222222222222,0.3333333333333333,0.3333333333333333,2.0,2.0,0.9656336071428248,0.0018803614496756,unsucc_cost,0.0,3.0,,,zu11,1,2023-03-28_11h13.54.028,threat_forest,2021.2.3,60.03842457677967,True,63.0,0.26666666666666666,0.3404761904761905,-1.5022222222222226,-1.2929478458049888,0,0,1,0.7277170955188466,0.0018803614496756,0.2222222222222222,0.2222222222222222,0.3333333333333333,0.6666666666666667,-1.666666666666667,-1.4444444444444446,3.5555555555555554,3.5555555555555554,1.0,2.0,-1.0,5.0,0,0,0
4.0,0.0,4.0,0.0,1.0,0.0,1.0,0.0,,,,left,2.207919700071216,177.2523067999864,zu11,172.9536476000212,174.96809370000847,177.2523067999864,None,False,3.0,['p'],False,0.16,0.2,0.2,2.0,2.0,0.8198746470064713,0.0173973197132958,wait_cost,1.0,2.0,174.96809370000847,None,zu11,1,2023-03-28_11h13.54.028,threat_forest,2021.2.3,60.03842457677967,False,63.0,0.26666666666666666,0.3404761904761905,-1.5022222222222226,-1.2929478458049888,0,0,0,0.7920507600321577,0.0173973197132958,0.16,0.16,0.2,0.8,-1.8000000000000003,-1.5600000000000003,1.4399999999999997,1.4399999999999997,0.0,2.0,-1.0,3.0,0,0,0
4.0,0.0,4.0,0.0,2.0,0.0,2.0,0.0,,,,left,0.974855500040576,182.5949293000158,zu11,182.5949293000158,None,179.4809536000248,181.495349099976,True,2.0,['p'],True,0.2222222222222222,0.3333333333333333,0.3333333333333333,2.0,2.0,0.9656336071428248,0.0143818200071127,unsucc_cost,0.0,0.0,181.495349099976,None,zu11,1,2023-03-28_11h13.54.028,threat_forest,2021.2.3,60.03842457677967,True,63.0,0.26666666666666666,0.3404761904761905,-1.5022222222222226,-1.2929478458049888,0,0,1,-0.025466024054337684,0.0143818200071127,0.2222222222222222,0.2222222222222222,0.3333333333333333,0.6666666666666667,-1.666666666666667,-1.4444444444444446,0.5555555555555554,0.5555555555555554,1.0,2.0,-1.0,2.0,0,0,0
5.0,0.0,5.0,0.0,0.0,0.0,0.0,0.0,188.3993665999733,191.9023070000112,None,left,2.553289800067432,193.48468430002688,zu11,193.48468430002688,None,188.3993665999733,191.9023070000112,True,4.0,['p'],True,0.32,0.4,0.2,1.0,1.0,0.9455672104350704,0.0197775730914855,unsucc_cost,0.0,2.0,,,zu11,1,2023-03-28_11h13.54.028,threat_forest,2021.2.3,60.03842457677967,True,48.0,0.3111111111111111,0.28888888888888886,-1.3792592592592592,-1.4407407407407409,1,1,1,0.9373826453570987,0.0197775730914855,0.32,0.32,0.4,0.8,-1.4,-1.24,2.76,2.76,1.0,1.0,-1.0,4.0,0,1,1
5.0,0.0,5.0,0.0,1.0,0.0,1.0,0.0,,,,None,,201.09702799993104,zu11,196.06539270002395,198.079844999942,201.09702799993104,None,False,2.0,['p'],False,0.1975308641975308,0.2222222222222222,0.1111111111111111,1.0,1.0,0.7461067557824965,-0.0017505512652536,wait_cost,1.0,1.0,198.079844999942,None,zu11,1,2023-03-28_11h13.54.028,threat_forest,2021.2.3,60.03842457677967,None,48.0,0.3111111111111111,0.28888888888888886,-1.3792592592592592,-1.4407407407407409,0,0,0,,-0.0017505512652536,0.1975308641975308,0.1975308641975308,0.2222222222222222,0.8888888888888888,-1.6666666666666667,-1.5185185185185184,0.4814814814814816,0.4814814814814816,0.0,1.0,-1.0,2.0,0,0,0
5.0,0.0,5.0,0.0,2.0,0.0,2.0,0.0,,,,left,1.02113620005548,207.60477580002043,zu11,207.60477580002043,None,204.1079472999554,206.12240520003252,True,1.0,['p'],True,0.32,0.4,0.2,1.0,1.0,0.9455672104350704,0.0285015095094041,figh_cost,0.0,0.0,206.1224052000325,None,zu11,1,2023-03-28_11h13.54.028,threat_forest,2021.2.3,60.03842457677967,True,48.0,0.3111111111111111,0.28888888888888886,-1.3792592592592592,-1.4407407407407409,1,1,1,0.020915928968849563,0.0285015095094041,1.0,0.32,0.4,0.8,-1.4,-1.24,-0.24,0.0,1.0,1.0,-1.0,1.0,1,1,1
6.0,0.0,6.0,0.0,0.0,0.0,0.0,0.0,212.8089470999548,216.31289359997027,None,left,1.926938500022516,219.9604036000092,zu11,219.9604036000092,None,212.8089470999548,216.31289359997027,True,5.0,['r'],True,0.3333333333333333,0.3333333333333333,0.0,0.0,2.0,0.5793801642856949,0.0388172421765338,unsucc_cost,0.0,3.0,,,zu11,1,2023-03-28_11h13.54.028,threat_forest,2021.2.3,60.03842457677967,True,10.0,0.35416666666666663,0.3326388888888889,-0.8958333333333335,-1.1375462962962963,1,1,1,0.6559324740410062,0.0388172421765338,0.3333333333333333,0.3333333333333333,0.3333333333333333,1.0,-0.6666666666666669,-0.6666666666666669,4.333333333333333,4.333333333333333,1.0,2.0,-1.0,5.0,0,1,1
6.0,0.0,6.0,0.0,1.0,0.0,1.0,0.0,,,,left,0.8607023000949994,226.35388750000857,zu11,226.35388750000857,None,212.8089470999548,216.31289359997027,True,3.0,['r'],True,0.3333333333333333,0.3333333333333333,0.0,0.0,2.0,0.5793801642856949,0.1051879490716752,succ_gain,0.0,5.0,223.922789299977,None,zu11,1,2023-03-28_11h13.54.028,threat_forest,2021.2.3,60.03842457677967,True,10.0,0.35416666666666663,0.3326388888888889,-0.8958333333333335,-1.1375462962962963,1,1,1,-0.15000659497638172,0.1051879490716752,0.3333333333333333,0.3333333333333333,0.3333333333333333,1.0,-0.6666666666666669,-0.6666666666666669,2.333333333333333,2.333333333333333,1.0,2.0,-1.0,3.0,0,1,1
6.0,0.0,6.0,0.0,2.0,0.0,2.0,0.0,,,,left,2.540475100046024,232.11908129998483,zu11,227.2389479000121,229.25089769996703,232.11908129998483,None,False,5.0,['r'],False,0.28125,0.375,0.25,2.0,2.0,0.9634951148421658,-0.0090943703910818,wait_cost,1.0,4.0,229.25089769996703,None,zu11,1,2023-03-28_11h13.54.028,threat_forest,2021.2.3,60.03842457677967,False,10.0,0.35416666666666663,0.3326388888888889,-0.8958333333333335,-1.1375462962962963,1,0,0,0.9323511108015013,-0.0090943703910818,0.28125,0.28125,0.375,0.75,-1.25,-1.125,3.875,3.875,0.0,2.0,1.0,5.0,0,0,1
6.0,0.0,6.0,0.0,3.0,0.0,3.0,0.0,,,,left,2.36681190005038,240.0077994000167,zu11,227.2389479000121,229.25089769996703,240.0077994000167,None,False,4.0,['r'],False,0.28125,0.375,0.25,2.0,2.0,0.9634951148421658,-0.0133382655956126,wait_cost,1.0,3.0,236.6938446999993,None,zu11,1,2023-03-28_11h13.54.028,threat_forest,2021.2.3,60.03842457677967,False,10.0,0.35416666666666663,0.3326388888888889,-0.8958333333333335,-1.1375462962962963,1,0,0,0.861543859714801,-0.0133382655956126,0.28125,0.28125,0.375,0.75,-1.25,-1.125,2.875,2.875,0.0,2.0,-1.0,4.0,0,0,1
6.0,0.0,6.0,0.0,4.0,0.0,4.0,0.0,,,,right,1.302735900040716,246.2186923000263,zu11,227.2389479000121,229.25089769996703,246.2186923000263,None,True,3.0,['r'],False,0.28125,0.375,0.25,2.0,2.0,0.9634951148421658,0.10498046875,unsucc_cost,1.0,1.0,244.42003509995996,None,zu11,1,2023-03-28_11h13.54.028,threat_forest,2021.2.3,60.03842457677967,True,10.0,0.35416666666666663,0.3326388888888889,-0.8958333333333335,-1.1375462962962963,1,0,1,0.2644665915213776,0.10498046875,0.28125,0.28125,0.375,0.75,-1.25,-1.125,1.875,1.875,0.0,2.0,-1.0,3.0,0,0,1
6.0,0.0,6.0,0.0,5.0,0.0,5.0,0.0,,,,left,1.1067744001047686,251.9965456000064,zu11,251.9965456000064,None,247.55075890000444,249.56517199997324,True,1.0,['r'],True,0.3333333333333333,0.3333333333333333,0.0,0.0,2.0,0.5793801642856949,0.3333333333333332,succ_gain,0.0,3.0,249.56517199997324,None,zu11,1,2023-03-28_11h13.54.028,threat_forest,2021.2.3,60.03842457677967,True,10.0,0.35416666666666663,0.3326388888888889,-0.8958333333333335,-1.1375462962962963,1,1,1,0.10144983901439392,0.3333333333333332,1.0,0.3333333333333333,0.3333333333333333,1.0,-0.6666666666666669,-0.6666666666666669,0.33333333333333315,0.33333333333333315,1.0,2.0,-1.0,1.0,1,1,1
6.0,0.0,6.0,0.0,6.0,0.0,6.0,0.0,,,,left,0.8292384999804199,255.9289565000217,zu11,253.12880409997888,255.14525790000334,255.9289565000217,None,False,3.0,['r'],False,0.28125,0.375,0.25,2.0,2.0,0.9634951148421658,-0.57470703125,wait_cost,1.0,2.0,255.14525790000332,None,zu11,1,2023-03-28_11h13.54.028,threat_forest,2021.2.3,60.03842457677967,False,10.0,0.35416666666666663,0.3326388888888889,-0.8958333333333335,-1.1375462962962963,1,0,0,-0.18724746922771793,-0.57470703125,0.0,0.28125,0.375,0.75,-1.25,-1.125,1.875,1.875,0.0,2.0,1.0,3.0,0,0,1
6.0,0.0,6.0,0.0,7.0,0.0,7.0,0.0,,,,left,0.6939055999973789,262.0538518000394,zu11,253.12880409997888,255.14525790000334,262.0538518000394,None,False,2.0,['r'],False,0.28125,0.375,0.25,2.0,2.0,0.9634951148421658,-0.71875,wait_cost,1.0,1.0,258.7898820999544,None,zu11,1,2023-03-28_11h13.54.028,threat_forest,2021.2.3,60.03842457677967,False,10.0,0.35416666666666663,0.3326388888888889,-0.8958333333333335,-1.1375462962962963,1,0,0,-0.36541935078583965,-0.71875,0.0,0.28125,0.375,0.75,-1.25,-1.125,0.875,0.875,0.0,2.0,-1.0,2.0,0,0,1
7.0,0.0,7.0,0.0,0.0,0.0,0.0,0.0,267.1098363000201,270.612317699939,None,right,1.4461562000215054,271.894984500017,zu11,267.1098363000201,270.612317699939,271.894984500017,None,True,5.0,['p'],False,0.32,0.4,0.2,1.0,2.0,0.9455672104350704,0.02103847866381,unsucc_cost,1.0,3.0,,,zu11,1,2023-03-28_11h13.54.028,threat_forest,2021.2.3,60.03842457677967,True,12.0,0.3111111111111111,0.3326388888888889,-1.1204938271604938,-1.0081635802469138,1,0,1,0.3689091400474873,0.02103847866381,0.32,0.32,0.4,0.8,-1.0,-0.92,4.08,4.08,0.0,2.0,-1.0,5.0,0,0,1
7.0,0.0,7.0,0.0,1.0,0.0,1.0,0.0,,,,right,0.8641592999920249,277.4894398000324,zu11,267.1098363000201,270.612317699939,277.4894398000324,None,True,3.0,['p'],False,0.32,0.4,0.2,1.0,2.0,0.9455672104350704,0.0685767383231606,figh_cost,1.0,0.0,275.37468699994497,None,zu11,1,2023-03-28_11h13.54.028,threat_forest,2021.2.3,60.03842457677967,True,12.0,0.3111111111111111,0.3326388888888889,-1.1204938271604938,-1.0081635802469138,1,0,1,-0.14599815218229154,0.0685767383231606,0.32,0.32,0.4,0.8,-1.0,-0.92,2.08,2.08,0.0,2.0,-1.0,3.0,0,0,1
8.0,0.0,8.0,0.0,0.0,0.0,0.0,0.0,281.01305619999766,284.5160474999575,None,left,1.5098921000026166,285.1324533999432,zu11,285.1324533999432,None,281.01305619999766,284.5160474999575,True,4.0,['p'],True,0.4444444444444445,0.6666666666666666,0.3333333333333333,1.0,2.0,0.9656336071428248,0.064046602155505,figh_cost,0.0,1.0,,,zu11,1,2023-03-28_11h13.54.028,threat_forest,2021.2.3,60.03842457677967,True,1.0,0.4833333333333333,0.3972222222222222,-0.7877777777777778,-0.9541358024691358,1,1,1,0.41203819132175384,0.064046602155505,0.4444444444444445,0.4444444444444445,0.6666666666666666,0.6666666666666667,-0.3333333333333335,-0.5555555555555556,3.4444444444444446,3.4444444444444446,1.0,2.0,-1.0,4.0,0,1,1
8.0,0.0,8.0,0.0,1.0,0.0,1.0,0.0,,,,right,1.9370821999618784,292.4458486000076,zu11,286.6642131999833,288.6787418000167,292.4458486000076,None,True,1.0,['p'],False,0.27,0.3,0.1,1.0,2.0,0.7963326591781347,0.0847047359907922,unsucc_cost,1.0,0.0,288.6787418000167,None,zu11,1,2023-03-28_11h13.54.028,threat_forest,2021.2.3,60.03842457677967,True,1.0,0.4833333333333333,0.3972222222222222,-0.7877777777777778,-0.9541358024691358,0,0,1,0.6611828202626382,0.0847047359907922,1.0,0.27,0.3,0.9,-1.1,-1.02,-0.020000000000000018,0.0,0.0,2.0,-1.0,1.0,1,0,0
9.0,0.0,9.0,0.0,0.0,0.0,0.0,0.0,299.47551679995377,302.9844795999816,None,left,1.534970000036992,303.86525080003776,zu11,299.47551679995377,302.98447959998157,303.86525080003776,None,False,4.0,['p'],False,0.2448979591836734,0.2857142857142857,0.1428571428571428,1.0,2.0,0.8400769154957735,0.0036753268254111,wait_cost,1.0,3.0,,,zu11,1,2023-03-28_11h13.54.028,threat_forest,2021.2.3,60.03842457677967,False,42.0,0.39285714285714285,0.4380952380952381,-0.9566326530612245,-0.8722052154195011,0,0,0,0.4285108368983326,0.0036753268254111,0.2448979591836734,0.2448979591836734,0.2857142857142857,0.8571428571428572,-1.2857142857142856,-1.163265306122449,2.836734693877551,2.836734693877551,0.0,2.0,-1.0,4.0,0,0,0
9.0,0.0,9.0,0.0,1.0,0.0,1.0,0.0,,,,right,2.166176400030963,309.5928352000192,zu11,299.47551679995377,302.98447959998157,309.5928352000192,None,True,3.0,['p'],False,0.2448979591836734,0.2857142857142857,0.1428571428571428,1.0,2.0,0.8400769154957735,0.0373646502000353,unsucc_cost,1.0,1.0,307.444533300004,None,zu11,1,2023-03-28_11h13.54.028,threat_forest,2021.2.3,60.03842457677967,True,42.0,0.39285714285714285,0.4380952380952381,-0.9566326530612245,-0.8722052154195011,0,0,1,0.7729635857202132,0.0373646502000353,0.2448979591836734,0.2448979591836734,0.2857142857142857,0.8571428571428572,-1.2857142857142856,-1.163265306122449,1.836734693877551,1.836734693877551,0.0,2.0,-1.0,3.0,0,0,0
9.0,0.0,9.0,0.0,2.0,0.0,2.0,0.0,,,,right,1.785626099910587,315.1713943999493,zu11,299.47551679995377,302.98447959998157,315.1713943999493,None,True,1.0,['p'],False,0.2448979591836734,0.2857142857142857,0.1428571428571428,1.0,2.0,0.8400769154957735,0.0944428399033169,unsucc_cost,1.0,0.0,313.8052638999652,None,zu11,1,2023-03-28_11h13.54.028,threat_forest,2021.2.3,60.03842457677967,True,42.0,0.39285714285714285,0.4380952380952381,-0.9566326530612245,-0.8722052154195011,0,0,1,0.5797691099834386,0.0944428399033169,1.0,0.2448979591836734,0.2857142857142857,0.8571428571428572,-1.2857142857142856,-1.163265306122449,-0.16326530612244894,0.0,0.0,2.0,-1.0,1.0,1,0,0
10.0,0.0,10.0,0.0,0.0,0.0,0.0,0.0,322.3736600000411,325.87752300000284,None,right,1.8989496999420223,329.5104270000011,zu11,329.5104270000011,None,322.3736600000411,325.87752300000284,False,5.0,['p'],True,0.2962962962962963,0.3333333333333333,0.1111111111111111,1.0,1.0,0.8325252476189534,-0.0072014784086608,wait_cost,0.0,4.0,,,zu11,1,2023-03-28_11h13.54.028,threat_forest,2021.2.3,60.03842457677967,False,4.0,0.4666666666666667,0.4297619047619048,-0.9911111111111113,-0.9738718820861678,0,0,0,0.6413009438237482,-0.0072014784086608,0.2962962962962963,0.2962962962962963,0.3333333333333333,0.8888888888888888,-1.3333333333333335,-1.2222222222222223,3.7777777777777777,3.7777777777777777,1.0,1.0,-1.0,5.0,0,0,0
10.0,0.0,10.0,0.0,1.0,0.0,1.0,0.0,,,,right,1.2705766999861223,334.2034459999996,zu11,331.4393159999745,333.4536410999717,334.2034459999996,None,True,4.0,['p'],False,0.48,0.6,0.2,1.0,1.0,0.9455672104350704,0.0855482011192285,succ_gain,1.0,5.0,333.4536410999717,None,zu11,1,2023-03-28_11h13.54.028,threat_forest,2021.2.3,60.03842457677967,True,4.0,0.4666666666666667,0.4297619047619048,-0.9911111111111113,-0.9738718820861678,1,1,1,0.2394708918780655,0.0855482011192285,0.48,0.48,0.6,0.8,-0.8000000000000002,-0.7600000000000002,3.2399999999999998,3.2399999999999998,0.0,1.0,-1.0,4.0,0,1,1
10.0,0.0,10.0,0.0,2.0,0.0,2.0,0.0,,,,right,1.269952300004661,340.61386429995764,zu11,331.4393159999745,333.4536410999717,340.61386429995764,None,True,5.0,['p'],False,0.48,0.6,0.2,1.0,1.0,0.9455672104350704,0.0867185088675958,unsucc_cost,1.0,3.0,337.5164672000101,None,zu11,1,2023-03-28_11h13.54.028,threat_forest,2021.2.3,60.03842457677967,True,4.0,0.4666666666666667,0.4297619047619048,-0.9911111111111113,-0.9738718820861678,1,1,1,0.23897934071369312,0.0867185088675958,0.48,0.48,0.6,0.8,-0.8000000000000002,-0.7600000000000002,4.24,4.24,0.0,1.0,1.0,5.0,0,1,1
10.0,0.0,10.0,0.0,3.0,0.0,3.0,0.0,,,,right,2.665811399929225,345.1122367000208,zu11,345.1122367000208,None,341.9127049000235,343.92713560000993,False,3.0,['p'],True,0.2962962962962963,0.3333333333333333,0.1111111111111111,1.0,1.0,0.8325252476189534,0.061397140047531,wait_cost,0.0,2.0,343.92713560000993,None,zu11,1,2023-03-28_11h13.54.028,threat_forest,2021.2.3,60.03842457677967,False,4.0,0.4666666666666667,0.4297619047619048,-0.9911111111111113,-0.9738718820861678,0,0,0,0.9805084765419145,0.061397140047531,0.2962962962962963,0.2962962962962963,0.3333333333333333,0.8888888888888888,-1.3333333333333335,-1.2222222222222223,1.7777777777777777,1.7777777777777777,1.0,1.0,-1.0,3.0,0,0,0
10.0,0.0,10.0,0.0,4.0,0.0,4.0,0.0,,,,right,0.9825774000491948,353.5185689999489,zu11,347.8072468000464,349.82165069994517,353.5185689999489,None,True,2.0,['p'],False,0.48,0.6,0.2,1.0,1.0,0.9455672104350704,0.1028391330589849,succ_gain,1.0,3.0,349.8216506999452,None,zu11,1,2023-03-28_11h13.54.028,threat_forest,2021.2.3,60.03842457677967,True,4.0,0.4666666666666667,0.4297619047619048,-0.9911111111111113,-0.9738718820861678,1,1,1,-0.017576159665572445,0.1028391330589849,0.48,0.48,0.6,0.8,-0.8000000000000002,-0.7600000000000002,1.2399999999999998,1.2399999999999998,0.0,1.0,-1.0,2.0,0,1,1
10.0,0.0,10.0,0.0,5.0,0.0,5.0,0.0,,,,right,1.2597814000910148,360.11373420001473,zu11,360.11373420001473,None,354.51765539997723,356.53204730001744,False,3.0,['p'],True,0.2962962962962963,0.3333333333333333,0.1111111111111111,1.0,1.0,0.8325252476189534,0.0922359396433469,wait_cost,0.0,2.0,356.53204730001744,None,zu11,1,2023-03-28_11h13.54.028,threat_forest,2021.2.3,60.03842457677967,False,4.0,0.4666666666666667,0.4297619047619048,-0.9911111111111113,-0.9738718820861678,0,0,0,0.2309382139206521,0.0922359396433469,0.2962962962962963,0.2962962962962963,0.3333333333333333,0.8888888888888888,-1.3333333333333335,-1.2222222222222223,1.7777777777777777,1.7777777777777777,1.0,1.0,1.0,3.0,0,0,0
10.0,0.0,10.0,0.0,6.0,0.0,6.0,0.0,,,,None,,365.8403629999375,zu11,361.39462449995335,363.4090029000072,365.8403629999375,None,False,2.0,['p'],False,0.48,0.6,0.2,1.0,1.0,0.9455672104350704,0.0918518518518518,wait_cost,1.0,1.0,363.4090029000072,None,zu11,1,2023-03-28_11h13.54.028,threat_forest,2021.2.3,60.03842457677967,None,4.0,0.4666666666666667,0.4297619047619048,-0.9911111111111113,-0.9738718820861678,1,1,0,,0.0918518518518518,0.48,0.48,0.6,0.8,-0.8000000000000002,-0.7600000000000002,1.2399999999999998,1.2399999999999998,0.0,1.0,-1.0,2.0,0,1,1
10.0,0.0,10.0,0.0,7.0,0.0,7.0,0.0,,,,right,1.5517642999766394,373.55199139995966,zu11,373.55199139995966,None,368.8542122000363,370.86867039999925,False,1.0,['p'],True,0.2962962962962963,0.3333333333333333,0.1111111111111111,1.0,1.0,0.8325252476189534,0.2962962962962963,wait_cost,0.0,0.0,370.8686703999993,None,zu11,1,2023-03-28_11h13.54.028,threat_forest,2021.2.3,60.03842457677967,False,4.0,0.4666666666666667,0.4297619047619048,-0.9911111111111113,-0.9738718820861678,0,0,0,0.43939254165607483,0.2962962962962963,1.0,0.2962962962962963,0.3333333333333333,0.8888888888888888,-1.3333333333333335,-1.2222222222222223,-0.22222222222222232,0.0,1.0,1.0,-1.0,1.0,1,0,0
11.0,0.0,11.0,0.0,0.0,0.0,0.0,0.0,379.8632967999438,383.37378689995967,None,left,1.9483938000630587,384.8565800000215,zu11,384.8565800000215,None,379.8632967999438,383.37378689995967,True,4.0,['r'],True,0.5,0.5,0.0,0.0,1.0,0.6309297535714574,0.0805026556124999,unsucc_cost,0.0,2.0,,,zu11,1,2023-03-28_11h13.54.028,threat_forest,2021.2.3,60.03842457677967,True,0.0,0.55,0.5083333333333333,-0.9100000000000001,-0.9505555555555557,1,0,1,0.6670053408794203,0.0805026556124999,0.5,0.5,0.5,1.0,-0.5,-0.5,3.5,3.5,1.0,1.0,-1.0,4.0,0,0,1
11.0,0.0,11.0,0.0,1.0,0.0,1.0,0.0,,,,left,0.7123386999592185,391.5329406999517,zu11,391.5329406999517,None,379.8632967999438,383.37378689995967,True,2.0,['r'],True,0.5,0.5,0.0,0.0,1.0,0.6309297535714574,0.0445789599999999,succ_gain,0.0,3.0,388.85188109998126,None,zu11,1,2023-03-28_11h13.54.028,threat_forest,2021.2.3,60.03842457677967,True,0.0,0.55,0.5083333333333333,-0.9100000000000001,-0.9505555555555557,1,0,1,-0.3392017784906646,0.0445789599999999,0.5,0.5,0.5,1.0,-0.5,-0.5,1.5,1.5,1.0,1.0,-1.0,2.0,0,0,1
11.0,0.0,11.0,0.0,2.0,0.0,2.0,0.0,,,,left,0.9494804000714794,398.043576200027,zu11,398.043576200027,None,379.8632967999438,383.37378689995967,True,3.0,['r'],True,0.5,0.5,0.0,0.0,1.0,0.6309297535714574,0.111283,unsucc_cost,0.0,1.0,394.2801693000365,None,zu11,1,2023-03-28_11h13.54.028,threat_forest,2021.2.3,60.03842457677967,True,0.0,0.55,0.5083333333333333,-0.9100000000000001,-0.9505555555555557,1,0,1,-0.05184039131096328,0.111283,0.5,0.5,0.5,1.0,-0.5,-0.5,2.5,2.5,1.0,1.0,1.0,3.0,0,0,1
11.0,0.0,11.0,0.0,3.0,0.0,3.0,0.0,,,,left,0.5978346000192687,403.8214846999617,zu11,403.8214846999617,None,379.8632967999438,383.37378689995967,True,1.0,['r'],True,0.5,0.5,0.0,0.0,1.0,0.6309297535714574,0.1268499999999999,unsucc_cost,0.0,0.0,401.02387070003897,None,zu11,1,2023-03-28_11h13.54.028,threat_forest,2021.2.3,60.03842457677967,True,0.0,0.55,0.5083333333333333,-0.9100000000000001,-0.9505555555555557,1,0,1,-0.5144411518857264,0.1268499999999999,1.0,0.5,0.5,1.0,-0.5,-0.5,0.5,0.5,1.0,1.0,-1.0,1.0,1,0,1
12.0,0.0,12.0,0.0,0.0,0.0,0.0,0.0,408.4368610000238,411.9297679000301,None,right,2.550704300054349,413.3144114000024,zu11,408.4368610000238,411.92976790003013,413.3144114000024,None,True,5.0,['p'],False,0.2777777777777778,0.3333333333333333,0.1666666666666666,1.0,2.0,0.8929352898779304,0.0176126680216173,unsucc_cost,1.0,3.0,,,zu11,1,2023-03-28_11h13.54.028,threat_forest,2021.2.3,60.03842457677967,True,37.0,0.26666666666666666,0.4083333333333333,-1.1277777777777778,-1.018888888888889,0,0,1,0.9363695171349584,0.0176126680216173,0.2777777777777778,0.2777777777777778,0.3333333333333333,0.8333333333333334,-1.1666666666666665,-1.0555555555555556,3.9444444444444446,3.9444444444444446,0.0,2.0,-1.0,5.0,0,0,0
12.0,0.0,12.0,0.0,1.0,0.0,1.0,0.0,,,,right,0.91810849995818,420.3731921999715,zu11,408.4368610000238,411.92976790003013,420.3731921999715,None,True,3.0,['p'],False,0.2777777777777778,0.3333333333333333,0.1666666666666666,1.0,2.0,0.8929352898779304,0.0598929245085531,succ_gain,1.0,5.0,417.908128399984,None,zu11,1,2023-03-28_11h13.54.028,threat_forest,2021.2.3,60.03842457677967,True,37.0,0.26666666666666666,0.4083333333333333,-1.1277777777777778,-1.018888888888889,0,0,1,-0.08543970367015503,0.0598929245085531,0.2777777777777778,0.2777777777777778,0.3333333333333333,0.8333333333333334,-1.1666666666666665,-1.0555555555555556,1.9444444444444444,1.9444444444444444,0.0,2.0,-1.0,3.0,0,0,0
12.0,0.0,12.0,0.0,2.0,0.0,2.0,0.0,,,,left,1.5107511999085546,426.33399690000806,zu11,408.4368610000238,411.92976790003013,426.33399690000806,None,False,5.0,['p'],False,0.2777777777777778,0.3333333333333333,0.1666666666666666,1.0,2.0,0.8929352898779304,0.0426090492641704,wait_cost,1.0,4.0,423.336393399979,None,zu11,1,2023-03-28_11h13.54.028,threat_forest,2021.2.3,60.03842457677967,False,37.0,0.26666666666666666,0.4083333333333333,-1.1277777777777778,-1.018888888888889,0,0,0,0.4126070105061488,0.0426090492641704,0.2777777777777778,0.2777777777777778,0.3333333333333333,0.8333333333333334,-1.1666666666666665,-1.0555555555555556,3.9444444444444446,3.9444444444444446,0.0,2.0,1.0,5.0,0,0,0
12.0,0.0,12.0,0.0,3.0,0.0,3.0,0.0,,,,right,2.1373091000132263,432.25099960004445,zu11,432.25099960004445,None,427.86595140001737,429.8802899000002,False,4.0,['p'],True,0.2,0.2,0.0,0.0,2.0,0.4554859150035951,0.0058641975308642,wait_cost,0.0,3.0,429.8802899000002,None,zu11,1,2023-03-28_11h13.54.028,threat_forest,2021.2.3,60.03842457677967,False,37.0,0.26666666666666666,0.4083333333333333,-1.1277777777777778,-1.018888888888889,0,0,0,0.7595476079050757,0.0058641975308642,0.2,0.2,0.2,1.0,-1.2000000000000002,-1.2000000000000002,2.8,2.8,1.0,2.0,-1.0,4.0,0,0,0
12.0,0.0,12.0,0.0,4.0,0.0,4.0,0.0,,,,right,2.374520800076425,437.09095800004434,zu11,434.4099097000435,436.4242959000403,437.09095800004434,None,True,3.0,['p'],False,0.2777777777777778,0.3333333333333333,0.1666666666666666,1.0,2.0,0.8929352898779304,0.1521604938271604,unsucc_cost,1.0,1.0,436.4242959000403,None,zu11,1,2023-03-28_11h13.54.028,threat_forest,2021.2.3,60.03842457677967,True,37.0,0.26666666666666666,0.4083333333333333,-1.1277777777777778,-1.018888888888889,0,0,1,0.864795648739751,0.1521604938271604,0.2777777777777778,0.2777777777777778,0.3333333333333333,0.8333333333333334,-1.1666666666666665,-1.0555555555555556,1.9444444444444444,1.9444444444444444,0.0,2.0,-1.0,3.0,0,0,0
12.0,0.0,12.0,0.0,5.0,0.0,5.0,0.0,,,,left,1.7701210000086576,444.16910519998055,zu11,444.16910519998055,None,439.48831369995605,441.5028610000154,True,1.0,['p'],True,0.2,0.2,0.0,0.0,2.0,0.4554859150035951,0.1999999999999999,unsucc_cost,0.0,0.0,441.5028610000154,None,zu11,1,2023-03-28_11h13.54.028,threat_forest,2021.2.3,60.03842457677967,True,37.0,0.26666666666666666,0.4083333333333333,-1.1277777777777778,-1.018888888888889,0,0,1,0.5710479058360032,0.1999999999999999,1.0,0.2,0.2,1.0,-1.2000000000000002,-1.2000000000000002,-0.20000000000000018,0.0,1.0,2.0,-1.0,1.0,1,0,0
13.0,0.0,13.0,0.0,0.0,0.0,0.0,0.0,449.28255210001953,452.7922574999975,None,right,1.6155140000628307,454.30847249994986,zu11,449.28255210001953,452.7922574999975,454.30847249994986,None,True,5.0,['r'],False,0.2222222222222222,0.6666666666666666,0.6666666666666666,2.0,1.0,0.77250688571426,-0.0048205313257853,figh_cost,1.0,2.0,,,zu11,1,2023-03-28_11h13.54.028,threat_forest,2021.2.3,60.03842457677967,True,20.0,0.4583333333333333,0.3625,-1.625,-1.3763888888888889,0,0,1,0.4796531723314213,-0.0048205313257853,0.2222222222222222,0.2222222222222222,0.6666666666666666,0.33333333333333337,-2.0,-2.0,3.0,3.0,0.0,1.0,-1.0,5.0,0,0,0
13.0,0.0,13.0,0.0,1.0,0.0,1.0,0.0,,,,left,1.24668159999419,458.7370360000059,zu11,458.7370360000059,None,455.9562213999452,457.9707917999476,True,2.0,['r'],True,0.25,0.25,0.0,0.0,1.0,0.5118595071429148,0.0041767131925127,unsucc_cost,0.0,0.0,457.9707917999476,None,zu11,1,2023-03-28_11h13.54.028,threat_forest,2021.2.3,60.03842457677967,True,20.0,0.4583333333333333,0.3625,-1.625,-1.3763888888888889,1,0,1,0.22048530129155322,0.0041767131925127,0.25,0.25,0.25,1.0,-1.25,-1.25,0.75,0.75,1.0,1.0,-1.0,2.0,0,0,1
14.0,0.0,14.0,0.0,0.0,0.0,0.0,0.0,462.8446624999633,466.34048709995113,None,None,,469.5630417999346,zu11,469.5630417999346,None,462.8446624999633,466.34048709995113,False,4.0,['p'],True,0.27,0.3,0.1,1.0,1.0,0.7963326591781347,0.0055810462338896,wait_cost,0.0,3.0,,,zu11,1,2023-03-28_11h13.54.028,threat_forest,2021.2.3,60.03842457677967,None,16.0,0.4,0.4291666666666667,-1.1033333333333333,-1.3641666666666667,1,0,0,,0.0055810462338896,0.27,0.27,0.3,0.9,-1.4,-1.29,2.71,2.71,1.0,1.0,-1.0,4.0,0,0,1
14.0,0.0,14.0,0.0,1.0,0.0,1.0,0.0,,,,right,1.404460299992934,475.5214294999605,zu11,472.5741933999816,474.57194960000925,475.5214294999605,None,True,3.0,['p'],False,0.4166666666666667,0.5,0.1666666666666666,1.0,1.0,0.9358932809493992,0.0542269098658266,unsucc_cost,1.0,1.0,474.5719496000093,None,zu11,1,2023-03-28_11h13.54.028,threat_forest,2021.2.3,60.03842457677967,True,16.0,0.4,0.4291666666666667,-1.1033333333333333,-1.3641666666666667,1,0,1,0.3396531008706964,0.0542269098658266,0.4166666666666667,0.4166666666666667,0.5,0.8333333333333334,-0.9999999999999998,-0.9166666666666665,2.0833333333333335,2.0833333333333335,0.0,1.0,-1.0,3.0,0,0,1
14.0,0.0,14.0,0.0,2.0,0.0,2.0,0.0,,,,left,2.448276699986309,482.51732240000274,zu11,482.51732240000274,None,476.95333389996085,478.9678807000164,True,1.0,['p'],True,0.27,0.3,0.1,1.0,1.0,0.7963326591781347,0.0415481562499999,unsucc_cost,0.0,0.0,478.9678807000164,None,zu11,1,2023-03-28_11h13.54.028,threat_forest,2021.2.3,60.03842457677967,True,16.0,0.4,0.4291666666666667,-1.1033333333333333,-1.3641666666666667,1,0,1,0.8953843893027118,0.0415481562499999,1.0,0.27,0.3,0.9,-1.4,-1.29,-0.29000000000000004,0.0,1.0,1.0,-1.0,1.0,1,0,1
15.0,0.0,15.0,0.0,0.0,0.0,0.0,0.0,489.650199900032,493.1545868000248,None,right,1.935320100048557,495.2197004000191,zu11,489.650199900032,493.15458680002484,495.2197004000191,None,True,4.0,['r'],False,0.3333333333333333,0.5,0.3333333333333333,2.0,2.0,1.0,0.0039043511659807,succ_gain,1.0,6.0,,,zu11,1,2023-03-28_11h13.54.028,threat_forest,2021.2.3,60.03842457677967,True,2.0,0.45,0.42500000000000004,-0.7,-0.9016666666666666,0,0,1,0.6602727391819933,0.0039043511659807,0.3333333333333333,0.3333333333333333,0.5,0.6666666666666667,-1.0,-1.0,3.0,3.0,0.0,2.0,-1.0,4.0,0,0,0
15.0,0.0,15.0,0.0,1.0,0.0,1.0,0.0,,,,left,0.9577359999530016,501.3495833999477,zu11,489.650199900032,493.15458680002484,501.3495833999477,None,False,6.0,['r'],False,0.3333333333333333,0.5,0.3333333333333333,2.0,2.0,1.0,-0.1091590123456789,wait_cost,1.0,5.0,499.1990730999969,None,zu11,1,2023-03-28_11h13.54.028,threat_forest,2021.2.3,60.03842457677967,False,2.0,0.45,0.42500000000000004,-0.7,-0.9016666666666666,0,0,0,-0.043183113150606786,-0.1091590123456789,0.3333333333333333,0.3333333333333333,0.5,0.6666666666666667,-1.0,-1.0,5.0,5.0,0.0,2.0,1.0,6.0,0,0,0
15.0,0.0,15.0,0.0,2.0,0.0,2.0,0.0,,,,right,2.787316699977964,506.128617499955,zu11,506.128617499955,None,502.3297995999456,504.3441719999537,False,5.0,['r'],True,0.4,0.4,0.0,0.0,2.0,0.6126016192893442,0.0913229629629629,wait_cost,0.0,4.0,504.3441719999537,None,zu11,1,2023-03-28_11h13.54.028,threat_forest,2021.2.3,60.03842457677967,False,2.0,0.45,0.42500000000000004,-0.7,-0.9016666666666666,1,0,0,1.0250793767686557,0.0913229629629629,0.4,0.4,0.4,1.0,-0.3999999999999999,-0.3999999999999999,4.6,4.6,1.0,2.0,-1.0,5.0,0,0,1
15.0,0.0,15.0,0.0,3.0,0.0,3.0,0.0,,,,right,2.966350300004706,512.6876178999664,zu11,508.94018929998856,510.95473390002735,512.6876178999664,None,True,4.0,['r'],False,0.3333333333333333,0.5,0.3333333333333333,2.0,2.0,1.0,-0.0109382716049383,figh_cost,1.0,1.0,510.95473390002735,None,zu11,1,2023-03-28_11h13.54.028,threat_forest,2021.2.3,60.03842457677967,True,2.0,0.45,0.42500000000000004,-0.7,-0.9016666666666666,0,0,1,1.0873323419356355,-0.0109382716049383,0.3333333333333333,0.3333333333333333,0.5,0.6666666666666667,-1.0,-1.0,3.0,3.0,0.0,2.0,-1.0,4.0,0,0,0
15.0,0.0,15.0,0.0,4.0,0.0,4.0,0.0,,,,left,0.9086455999640748,521.2790918999817,zu11,521.2790918999817,None,515.6839785999618,517.698365899967,True,1.0,['r'],True,0.4,0.4,0.0,0.0,2.0,0.6126016192893442,0.2151111111111111,succ_gain,0.0,3.0,517.698365899967,None,zu11,1,2023-03-28_11h13.54.028,threat_forest,2021.2.3,60.03842457677967,True,2.0,0.45,0.42500000000000004,-0.7,-0.9016666666666666,1,0,1,-0.09580013985466708,0.2151111111111111,1.0,0.4,0.4,1.0,-0.3999999999999999,-0.3999999999999999,0.6000000000000001,0.6000000000000001,1.0,2.0,-1.0,1.0,1,0,1
15.0,0.0,15.0,0.0,5.0,0.0,5.0,0.0,,,,left,1.1861511000897735,525.8744509000098,zu11,522.2111304999562,524.2257632999681,525.8744509000098,None,False,3.0,['r'],False,0.3333333333333333,0.5,0.3333333333333333,2.0,2.0,1.0,0.0722222222222223,wait_cost,1.0,2.0,524.2257632999681,None,zu11,1,2023-03-28_11h13.54.028,threat_forest,2021.2.3,60.03842457677967,False,2.0,0.45,0.42500000000000004,-0.7,-0.9016666666666666,0,0,0,0.17071369557155414,0.0722222222222223,0.3333333333333333,0.3333333333333333,0.5,0.6666666666666667,-1.0,-1.0,2.0,2.0,0.0,2.0,1.0,3.0,0,0,0
15.0,0.0,15.0,0.0,6.0,0.0,6.0,0.0,,,,None,,529.9205976999365,zu11,529.9205976999365,None,527.0899776000297,529.1043932000175,False,2.0,['r'],True,0.4,0.4,0.0,0.0,2.0,0.6126016192893442,0.0333333333333333,wait_cost,0.0,1.0,529.1043932000175,None,zu11,1,2023-03-28_11h13.54.028,threat_forest,2021.2.3,60.03842457677967,None,2.0,0.45,0.42500000000000004,-0.7,-0.9016666666666666,1,0,0,,0.0333333333333333,0.4,0.4,0.4,1.0,-0.3999999999999999,-0.3999999999999999,1.6,1.6,1.0,2.0,-1.0,2.0,0,0,1
15.0,0.0,15.0,0.0,7.0,0.0,7.0,0.0,,,,left,1.6187559000682086,537.4969440000132,zu11,537.4969440000132,None,527.0899776000297,529.1043932000175,True,1.0,['r'],True,0.4,0.4,0.0,0.0,2.0,0.6126016192893442,0.4,unsucc_cost,0.0,0.0,534.9488675999455,None,zu11,1,2023-03-28_11h13.54.028,threat_forest,2021.2.3,60.03842457677967,True,2.0,0.45,0.42500000000000004,-0.7,-0.9016666666666666,1,0,1,0.48165789128884984,0.4,1.0,0.4,0.4,1.0,-0.3999999999999999,-0.3999999999999999,0.6000000000000001,0.6000000000000001,1.0,2.0,-1.0,1.0,1,0,1
16.0,0.0,16.0,0.0,0.0,0.0,0.0,0.0,544.7752834999701,548.2864844000433,None,right,2.6466200000140816,550.0352428000188,zu11,544.7752834999701,548.2864844000433,550.0352428000188,None,True,4.0,['r'],False,0.2222222222222222,0.6666666666666666,0.6666666666666666,2.0,2.0,0.77250688571426,-0.0834227138822206,succ_gain,1.0,6.0,,,zu11,1,2023-03-28_11h13.54.028,threat_forest,2021.2.3,60.03842457677967,True,49.0,0.5833333333333333,0.5166666666666666,-0.888888888888889,-0.7944444444444445,0,0,1,0.9732833541989918,-0.0834227138822206,0.2222222222222222,0.2222222222222222,0.6666666666666666,0.33333333333333337,-1.3333333333333335,-1.777777777777778,2.2222222222222223,2.2222222222222223,0.0,2.0,-1.0,4.0,0,0,0
16.0,0.0,16.0,0.0,1.0,0.0,1.0,0.0,,,,left,1.0606572999386117,555.3969052999746,zu11,544.7752834999701,548.2864844000433,555.3969052999746,None,False,6.0,['r'],False,0.2222222222222222,0.6666666666666666,0.6666666666666666,2.0,2.0,0.77250688571426,-0.2259971922153635,wait_cost,1.0,5.0,554.7138848999748,None,zu11,1,2023-03-28_11h13.54.028,threat_forest,2021.2.3,60.03842457677967,False,49.0,0.5833333333333333,0.5166666666666666,-0.888888888888889,-0.7944444444444445,0,0,0,0.05888881022666778,-0.2259971922153635,0.2222222222222222,0.2222222222222222,0.6666666666666666,0.33333333333333337,-1.3333333333333335,-1.777777777777778,4.222222222222222,4.222222222222222,0.0,2.0,1.0,6.0,0,0,0
16.0,0.0,16.0,0.0,2.0,0.0,2.0,0.0,,,,left,0.9723977000685408,559.8592972999904,zu11,544.7752834999701,548.2864844000433,559.8592972999904,None,False,5.0,['r'],False,0.2222222222222222,0.6666666666666666,0.6666666666666666,2.0,2.0,0.77250688571426,-0.1831490054869685,wait_cost,1.0,4.0,558.4936257000081,None,zu11,1,2023-03-28_11h13.54.028,threat_forest,2021.2.3,60.03842457677967,False,49.0,0.5833333333333333,0.5166666666666666,-0.888888888888889,-0.7944444444444445,0,0,0,-0.027990401754256742,-0.1831490054869685,0.2222222222222222,0.2222222222222222,0.6666666666666666,0.33333333333333337,-1.3333333333333335,-1.777777777777778,3.2222222222222223,3.2222222222222223,0.0,2.0,-1.0,5.0,0,0,0
16.0,0.0,16.0,0.0,3.0,0.0,3.0,0.0,,,,right,1.172919200034812,563.6390451999614,zu11,563.6390451999614,None,560.8582919000182,562.8731630999828,False,4.0,['r'],True,0.5,0.5,0.0,0.0,2.0,0.6309297535714574,0.1597222222222222,wait_cost,0.0,3.0,562.8731630999828,None,zu11,1,2023-03-28_11h13.54.028,threat_forest,2021.2.3,60.03842457677967,False,49.0,0.5833333333333333,0.5166666666666666,-0.888888888888889,-0.7944444444444445,1,0,0,0.15949568412300524,0.1597222222222222,0.5,0.5,0.5,1.0,0.0,0.0,4.0,4.0,1.0,2.0,-1.0,4.0,0,0,1
16.0,0.0,16.0,0.0,4.0,0.0,4.0,0.0,,,,left,1.0467880999203771,569.8999316999689,zu11,569.8999316999689,None,560.8582919000182,562.8731630999828,True,3.0,['r'],True,0.5,0.5,0.0,0.0,2.0,0.6309297535714574,0.25,succ_gain,0.0,5.0,566.8525173999369,None,zu11,1,2023-03-28_11h13.54.028,threat_forest,2021.2.3,60.03842457677967,True,49.0,0.5833333333333333,0.5166666666666666,-0.888888888888889,-0.7944444444444445,1,0,1,0.04572652355457235,0.25,0.5,0.5,0.5,1.0,0.0,0.0,3.0,3.0,1.0,2.0,-1.0,3.0,0,0,1
16.0,0.0,16.0,0.0,5.0,0.0,5.0,0.0,,,,right,1.130671299993992,573.6964815999381,zu11,573.6964815999381,None,560.8582919000182,562.8731630999828,False,5.0,['r'],True,0.5,0.5,0.0,0.0,2.0,0.6309297535714574,0.0,wait_cost,0.0,4.0,572.9801446000347,None,zu11,1,2023-03-28_11h13.54.028,threat_forest,2021.2.3,60.03842457677967,False,49.0,0.5833333333333333,0.5166666666666666,-0.888888888888889,-0.7944444444444445,1,0,0,0.12281152712519557,0.0,0.0,0.5,0.5,1.0,0.0,0.0,5.0,5.0,1.0,2.0,1.0,5.0,0,0,1
16.0,0.0,16.0,0.0,6.0,0.0,6.0,0.0,,,,right,0.4863881999626755,579.6075630999403,zu11,579.6075630999403,None,560.8582919000182,562.8731630999828,False,4.0,['r'],True,0.5,0.5,0.0,0.0,2.0,0.6309297535714574,0.0,wait_cost,0.0,3.0,576.8598728999496,None,zu11,1,2023-03-28_11h13.54.028,threat_forest,2021.2.3,60.03842457677967,False,49.0,0.5833333333333333,0.5166666666666666,-0.888888888888889,-0.7944444444444445,1,0,0,-0.7207482085696143,0.0,0.0,0.5,0.5,1.0,0.0,0.0,4.0,4.0,1.0,2.0,-1.0,4.0,0,0,1
16.0,0.0,16.0,0.0,7.0,0.0,7.0,0.0,,,,left,0.9853263000259176,582.7047215999337,zu11,580.1237664000364,582.138277299935,582.7047215999337,None,False,3.0,['r'],False,0.2222222222222222,0.6666666666666666,0.6666666666666666,2.0,2.0,0.77250688571426,-0.6666666666666666,wait_cost,1.0,2.0,582.138277299935,None,zu11,1,2023-03-28_11h13.54.028,threat_forest,2021.2.3,60.03842457677967,False,49.0,0.5833333333333333,0.5166666666666666,-0.888888888888889,-0.7944444444444445,0,0,0,-0.014782423605683846,-0.6666666666666666,0.0,0.2222222222222222,0.6666666666666666,0.33333333333333337,-1.3333333333333335,-1.777777777777778,1.222222222222222,1.222222222222222,0.0,2.0,-1.0,3.0,0,0,0
17.0,0.0,17.0,0.0,0.0,0.0,0.0,0.0,589.345624199952,592.8497375999577,None,left,1.54863940004725,595.5630515000084,zu11,589.345624199952,592.8497375999577,595.5630515000084,None,False,5.0,['r'],False,0.345679012345679,0.4444444444444444,0.2222222222222222,2.0,2.0,0.9685033186841367,-0.0052446797245716,wait_cost,1.0,4.0,,,zu11,1,2023-03-28_11h13.54.028,threat_forest,2021.2.3,60.03842457677967,False,52.0,0.43650793650793646,0.5099206349206349,-0.5626102292768962,-0.7257495590828926,0,0,0,0.4373767390123584,-0.0052446797245716,0.345679012345679,0.345679012345679,0.4444444444444444,0.7777777777777778,-0.888888888888889,-0.8395061728395062,4.160493827160494,4.160493827160494,0.0,2.0,-1.0,5.0,0,0,0
17.0,0.0,17.0,0.0,1.0,0.0,1.0,0.0,,,,left,1.349816600093618,601.6723184000002,zu11,601.6723184000002,None,597.1413685999578,599.1557756999973,True,4.0,['r'],True,0.4285714285714285,0.4285714285714285,0.0,0.0,2.0,0.6216097450797565,0.0705105637126513,succ_gain,0.0,6.0,599.1557756999973,None,zu11,1,2023-03-28_11h13.54.028,threat_forest,2021.2.3,60.03842457677967,True,52.0,0.43650793650793646,0.5099206349206349,-0.5626102292768962,-0.7257495590828926,1,0,1,0.2999687314391437,0.0705105637126513,0.4285714285714285,0.4285714285714285,0.4285714285714285,1.0,-0.28571428571428603,-0.28571428571428603,3.714285714285714,3.714285714285714,1.0,2.0,-1.0,4.0,0,0,1
17.0,0.0,17.0,0.0,2.0,0.0,2.0,0.0,,,,right,0.717800399987027,606.2994200999383,zu11,606.2994200999383,None,597.1413685999578,599.1557756999973,False,6.0,['r'],True,0.4285714285714285,0.4285714285714285,0.0,0.0,2.0,0.6216097450797565,0.0595614313946563,wait_cost,0.0,5.0,605.0669161999831,None,zu11,1,2023-03-28_11h13.54.028,threat_forest,2021.2.3,60.03842457677967,False,52.0,0.43650793650793646,0.5099206349206349,-0.5626102292768962,-0.7257495590828926,1,0,0,-0.3315637430285694,0.0595614313946563,0.4285714285714285,0.4285714285714285,0.4285714285714285,1.0,-0.28571428571428603,-0.28571428571428603,5.7142857142857135,5.7142857142857135,1.0,2.0,1.0,6.0,0,0,1
17.0,0.0,17.0,0.0,3.0,0.0,3.0,0.0,,,,left,0.7281417000340298,611.381351799937,zu11,607.0488803000189,609.0631256999914,611.381351799937,None,False,5.0,['r'],False,0.345679012345679,0.4444444444444444,0.2222222222222222,2.0,2.0,0.9685033186841367,0.0527388827580799,wait_cost,1.0,4.0,609.0631256999914,None,zu11,1,2023-03-28_11h13.54.028,threat_forest,2021.2.3,60.03842457677967,False,52.0,0.43650793650793646,0.5099206349206349,-0.5626102292768962,-0.7257495590828926,0,0,0,-0.3172596068220363,0.0527388827580799,0.345679012345679,0.345679012345679,0.4444444444444444,0.7777777777777778,-0.888888888888889,-0.8395061728395062,4.160493827160494,4.160493827160494,0.0,2.0,-1.0,5.0,0,0,0
17.0,0.0,17.0,0.0,4.0,0.0,4.0,0.0,,,,left,1.3116923000197858,616.6732272999361,zu11,616.6732272999361,None,612.1273912999313,614.1417219999712,True,4.0,['r'],True,0.4285714285714285,0.4285714285714285,0.0,0.0,2.0,0.6216097450797565,0.0802570227908263,succ_gain,0.0,6.0,614.1417219999712,None,zu11,1,2023-03-28_11h13.54.028,threat_forest,2021.2.3,60.03842457677967,True,52.0,0.43650793650793646,0.5099206349206349,-0.5626102292768962,-0.7257495590828926,1,0,1,0.27131813559209655,0.0802570227908263,0.4285714285714285,0.4285714285714285,0.4285714285714285,1.0,-0.28571428571428603,-0.28571428571428603,3.714285714285714,3.714285714285714,1.0,2.0,-1.0,4.0,0,0,1
17.0,0.0,17.0,0.0,5.0,0.0,5.0,0.0,,,,left,0.5194919999921694,623.0712057999335,zu11,618.0053424999351,620.0195527999895,623.0712057999335,None,False,6.0,['r'],False,0.345679012345679,0.4444444444444444,0.2222222222222222,2.0,2.0,0.9685033186841367,0.0,wait_cost,1.0,5.0,620.0195527999895,None,zu11,1,2023-03-28_11h13.54.028,threat_forest,2021.2.3,60.03842457677967,False,52.0,0.43650793650793646,0.5099206349206349,-0.5626102292768962,-0.7257495590828926,0,0,0,-0.6549038679990224,0.0,0.0,0.345679012345679,0.4444444444444444,0.7777777777777778,-0.888888888888889,-0.8395061728395062,5.160493827160494,5.160493827160494,0.0,2.0,1.0,6.0,0,0,0
17.0,0.0,17.0,0.0,6.0,0.0,6.0,0.0,,,,right,0.625218000030145,628.2122685000068,zu11,628.2122685000068,None,623.6167350999312,625.630994600011,False,5.0,['r'],True,0.4285714285714285,0.4285714285714285,0.0,0.0,2.0,0.6216097450797565,0.0,wait_cost,0.0,4.0,625.630994600011,None,zu11,1,2023-03-28_11h13.54.028,threat_forest,2021.2.3,60.03842457677967,False,52.0,0.43650793650793646,0.5099206349206349,-0.5626102292768962,-0.7257495590828926,1,0,0,-0.4696548900140988,0.0,0.0,0.4285714285714285,0.4285714285714285,1.0,-0.28571428571428603,-0.28571428571428603,4.7142857142857135,4.7142857142857135,1.0,2.0,-1.0,5.0,0,0,1
17.0,0.0,17.0,0.0,7.0,0.0,7.0,0.0,,,,right,0.9311145000392572,633.906980699976,zu11,633.906980699976,None,623.6167350999312,625.630994600011,False,4.0,['r'],True,0.4285714285714285,0.4285714285714285,0.0,0.0,2.0,0.6216097450797565,0.0,wait_cost,0.0,3.0,630.8761829000432,None,zu11,1,2023-03-28_11h13.54.028,threat_forest,2021.2.3,60.03842457677967,False,52.0,0.43650793650793646,0.5099206349206349,-0.5626102292768962,-0.7257495590828926,1,0,0,-0.07137302318855114,0.0,0.0,0.4285714285714285,0.4285714285714285,1.0,-0.28571428571428603,-0.28571428571428603,3.714285714285714,3.714285714285714,1.0,2.0,-1.0,4.0,0,0,1
0.0,0.0,0.0,0.0,0.0,0.0,0.0,0.0,26.477496800012887,29.981113099958748,None,left,1.5855507999658585,33.32538289995864,zu11,26.477496800012887,29.981113099958748,33.32538289995864,None,False,5.0,['r'],False,0.4,0.4,0.0,0.0,2.0,0.6126016192893442,0.0501704926254868,wait_cost,1.0,4.0,,,zu11,2,2023-03-28_11h25.37.494,threat_forest,2021.2.3,61.11169506622157,False,33.0,0.41428571428571426,0.42539682539682533,-0.7306122448979593,-0.6466112370874277,1,0,0,0.4609318548272657,0.0501704926254868,0.4,0.4,0.4,1.0,-0.3999999999999999,-0.3999999999999999,4.6,4.6,0.0,2.0,-1.0,5.0,0,0,1
0.0,0.0,0.0,0.0,1.0,0.0,1.0,0.0,,,,right,0.9517343000043184,37.72453209990636,zu11,26.477496800012887,29.981113099958748,37.72453209990636,None,True,4.0,['r'],False,0.4,0.4,0.0,0.0,2.0,0.6126016192893442,0.0773262829540863,unsucc_cost,1.0,2.0,36.95800599991344,None,zu11,2,2023-03-28_11h25.37.494,threat_forest,2021.2.3,61.11169506622157,True,33.0,0.41428571428571426,0.42539682539682533,-0.7306122448979593,-0.6466112370874277,1,0,1,-0.04946937977960496,0.0773262829540863,0.4,0.4,0.4,1.0,-0.3999999999999999,-0.3999999999999999,3.6,3.6,0.0,2.0,-1.0,4.0,0,0,1
0.0,0.0,0.0,0.0,2.0,0.0,2.0,0.0,,,,right,0.9315432000439614,42.83646219992079,zu11,26.477496800012887,29.981113099958748,42.83646219992079,None,True,2.0,['r'],False,0.4,0.4,0.0,0.0,2.0,0.6126016192893442,0.0439031270984029,unsucc_cost,1.0,0.0,40.72119269997347,None,zu11,2,2023-03-28_11h25.37.494,threat_forest,2021.2.3,61.11169506622157,True,33.0,0.41428571428571426,0.42539682539682533,-0.7306122448979593,-0.6466112370874277,1,0,1,-0.07091271315707875,0.0439031270984029,0.4,0.4,0.4,1.0,-0.3999999999999999,-0.3999999999999999,1.6,1.6,0.0,2.0,-1.0,2.0,0,0,1
1.0,0.0,1.0,0.0,0.0,0.0,0.0,0.0,47.54743709997274,51.04048349999357,None,left,1.511023800005205,52.08114789996762,zu11,47.54743709997274,51.04048349999357,52.08114789996762,None,False,5.0,['p'],False,0.16,0.2,0.2,2.0,2.0,0.8198746470064713,-0.011066432,wait_cost,1.0,4.0,,,zu11,2,2023-03-28_11h25.37.494,threat_forest,2021.2.3,61.11169506622157,False,65.0,0.30000000000000004,0.35714285714285715,-1.5000000000000002,-1.1153061224489798,0,0,0,0.4127874343281724,-0.011066432,0.16,0.16,0.2,0.8,-1.8000000000000003,-1.5600000000000003,3.4399999999999995,3.4399999999999995,0.0,2.0,-1.0,5.0,0,0,0
1.0,0.0,1.0,0.0,1.0,0.0,1.0,0.0,,,,left,0.9563885000534356,59.25423299998511,zu11,47.54743709997274,51.04048349999357,59.25423299998511,None,False,4.0,['p'],False,0.16,0.2,0.2,2.0,2.0,0.8198746470064713,0.0106207999999998,wait_cost,1.0,3.0,55.6239554999629,None,zu11,2,2023-03-28_11h25.37.494,threat_forest,2021.2.3,61.11169506622157,False,65.0,0.30000000000000004,0.35714285714285715,-1.5000000000000002,-1.1153061224489798,0,0,0,-0.0445910676720199,0.0106207999999998,0.16,0.16,0.2,0.8,-1.8000000000000003,-1.5600000000000003,2.4399999999999995,2.4399999999999995,0.0,2.0,-1.0,4.0,0,0,0
1.0,0.0,1.0,0.0,2.0,0.0,2.0,0.0,,,,left,0.6333240999374539,64.54942729999311,zu11,47.54743709997274,51.04048349999357,64.54942729999311,None,False,3.0,['p'],False,0.16,0.2,0.2,2.0,2.0,0.8198746470064713,0.0305599999999998,wait_cost,1.0,2.0,62.25141749996692,None,zu11,2,2023-03-28_11h25.37.494,threat_forest,2021.2.3,61.11169506622157,False,65.0,0.30000000000000004,0.35714285714285715,-1.5000000000000002,-1.1153061224489798,0,0,0,-0.4567729816481157,0.0305599999999998,0.16,0.16,0.2,0.8,-1.8000000000000003,-1.5600000000000003,1.4399999999999997,1.4399999999999997,0.0,2.0,-1.0,3.0,0,0,0
1.0,0.0,1.0,0.0,3.0,0.0,3.0,0.0,,,,left,1.5416548000648618,68.248167200014,zu11,68.248167200014,None,65.21540699992329,67.22975940001197,True,2.0,['p'],True,0.24,0.4,0.4,2.0,2.0,0.9801625908629508,0.0287999999999999,succ_gain,0.0,4.0,67.22975940001197,None,zu11,2,2023-03-28_11h25.37.494,threat_forest,2021.2.3,61.11169506622157,True,65.0,0.30000000000000004,0.35714285714285715,-1.5000000000000002,-1.1153061224489798,0,0,1,0.43285638501143003,0.0287999999999999,0.24,0.24,0.4,0.6,-1.6,-1.4400000000000002,0.5599999999999998,0.5599999999999998,1.0,2.0,-1.0,2.0,0,0,0
1.0,0.0,1.0,0.0,4.0,0.0,4.0,0.0,,,,left,1.295354500063695,73.06256409990601,zu11,69.8109946999466,71.82545899995603,73.06256409990601,None,False,4.0,['p'],False,0.16,0.2,0.2,2.0,2.0,0.8198746470064713,0.0407999999999998,wait_cost,1.0,3.0,71.82545899995603,None,zu11,2,2023-03-28_11h25.37.494,threat_forest,2021.2.3,61.11169506622157,False,65.0,0.30000000000000004,0.35714285714285715,-1.5000000000000002,-1.1153061224489798,0,0,0,0.2587844029130445,0.0407999999999998,0.16,0.16,0.2,0.8,-1.8000000000000003,-1.5600000000000003,2.4399999999999995,2.4399999999999995,0.0,2.0,1.0,4.0,0,0,0
1.0,0.0,1.0,0.0,5.0,0.0,5.0,0.0,,,,left,0.7936108000576496,79.83802779996768,zu11,69.8109946999466,71.82545899995603,79.83802779996768,None,False,3.0,['p'],False,0.16,0.2,0.2,2.0,2.0,0.8198746470064713,0.0679999999999999,wait_cost,1.0,2.0,76.40455079998355,None,zu11,2,2023-03-28_11h25.37.494,threat_forest,2021.2.3,61.11169506622157,False,65.0,0.30000000000000004,0.35714285714285715,-1.5000000000000002,-1.1153061224489798,0,0,0,-0.23116211416046395,0.0679999999999999,0.16,0.16,0.2,0.8,-1.8000000000000003,-1.5600000000000003,1.4399999999999997,1.4399999999999997,0.0,2.0,-1.0,3.0,0,0,0
1.0,0.0,1.0,0.0,6.0,0.0,6.0,0.0,,,,left,1.1379135999595746,84.04775379993953,zu11,69.8109946999466,71.82545899995603,84.04775379993953,None,False,2.0,['p'],False,0.16,0.2,0.2,2.0,2.0,0.8198746470064713,-0.04,wait_cost,1.0,1.0,82.66537329996936,None,zu11,2,2023-03-28_11h25.37.494,threat_forest,2021.2.3,61.11169506622157,False,65.0,0.30000000000000004,0.35714285714285715,-1.5000000000000002,-1.1153061224489798,0,0,0,0.12919641011498817,-0.04,0.16,0.16,0.2,0.8,-1.8000000000000003,-1.5600000000000003,0.4399999999999997,0.4399999999999997,0.0,2.0,-1.0,2.0,0,0,0
1.0,0.0,1.0,0.0,7.0,0.0,7.0,0.0,,,,right,1.0327873999485746,89.74254729994573,zu11,69.8109946999466,71.82545899995603,89.74254729994573,None,True,1.0,['p'],False,0.16,0.2,0.2,2.0,2.0,0.8198746470064713,0.1599999999999999,succ_gain,1.0,3.0,87.22779389994685,None,zu11,2,2023-03-28_11h25.37.494,threat_forest,2021.2.3,61.11169506622157,True,65.0,0.30000000000000004,0.35714285714285715,-1.5000000000000002,-1.1153061224489798,0,0,1,0.032261360581002825,0.1599999999999999,1.0,0.16,0.2,0.8,-1.8000000000000003,-1.5600000000000003,-0.5600000000000003,0.0,0.0,2.0,-1.0,1.0,1,0,0
2.0,0.0,2.0,0.0,0.0,0.0,0.0,0.0,96.51032709993888,100.015841800021,None,left,2.096814400050789,101.3152447999455,zu11,96.51032709993888,100.01584180002101,101.3152447999455,None,False,4.0,['p'],False,0.5,0.5,0.0,0.0,1.0,0.6309297535714574,0.0773127614393294,wait_cost,1.0,3.0,,,zu11,2,2023-03-28_11h25.37.494,threat_forest,2021.2.3,61.11169506622157,False,27.0,0.5357142857142857,0.41785714285714287,-0.7806122448979592,-1.1403061224489797,1,1,0,0.7404192406354829,0.0773127614393294,0.5,0.5,0.5,1.0,-0.5,-0.5,3.5,3.5,0.0,1.0,1.0,4.0,0,1,1
2.0,0.0,2.0,0.0,1.0,0.0,1.0,0.0,,,,right,0.808889799984172,106.97660099994393,zu11,96.51032709993888,100.01584180002101,106.97660099994393,None,True,3.0,['p'],False,0.5,0.5,0.0,0.0,1.0,0.6309297535714574,0.0991686602835485,succ_gain,1.0,4.0,105.4441098999232,None,zu11,2,2023-03-28_11h25.37.494,threat_forest,2021.2.3,61.11169506622157,True,27.0,0.5357142857142857,0.41785714285714287,-0.7806122448979592,-1.1403061224489797,1,1,1,-0.21209258877420034,0.0991686602835485,0.5,0.5,0.5,1.0,-0.5,-0.5,2.5,2.5,0.0,1.0,-1.0,3.0,0,1,1
2.0,0.0,2.0,0.0,2.0,0.0,2.0,0.0,,,,left,1.305761000025086,112.50448160001542,zu11,96.51032709993888,100.01584180002101,112.50448160001542,None,False,4.0,['p'],False,0.5,0.5,0.0,0.0,1.0,0.6309297535714574,0.0883643261683057,wait_cost,1.0,3.0,109.82347529998516,None,zu11,2,2023-03-28_11h25.37.494,threat_forest,2021.2.3,61.11169506622157,False,27.0,0.5357142857142857,0.41785714285714287,-0.7806122448979592,-1.1403061224489797,1,1,0,0.2667860125952342,0.0883643261683057,0.5,0.5,0.5,1.0,-0.5,-0.5,3.5,3.5,0.0,1.0,1.0,4.0,0,1,1
2.0,0.0,2.0,0.0,3.0,0.0,3.0,0.0,,,,right,1.0615114000393078,119.58124749991111,zu11,96.51032709993888,100.01584180002101,119.58124749991111,None,True,3.0,['p'],False,0.5,0.5,0.0,0.0,1.0,0.6309297535714574,0.1629165462519868,unsucc_cost,1.0,1.0,115.85110929992516,None,zu11,2,2023-03-28_11h25.37.494,threat_forest,2021.2.3,61.11169506622157,True,27.0,0.5357142857142857,0.41785714285714287,-0.7806122448979592,-1.1403061224489797,1,1,1,0.05969374166008332,0.1629165462519868,0.5,0.5,0.5,1.0,-0.5,-0.5,2.5,2.5,0.0,1.0,-1.0,3.0,0,1,1
2.0,0.0,2.0,0.0,4.0,0.0,4.0,0.0,,,,right,0.5833133000414819,126.40822649991604,zu11,96.51032709993888,100.01584180002101,126.40822649991604,None,True,1.0,['p'],False,0.5,0.5,0.0,0.0,1.0,0.6309297535714574,0.2385204081632652,succ_gain,1.0,2.0,122.67809559998568,None,zu11,2,2023-03-28_11h25.37.494,threat_forest,2021.2.3,61.11169506622157,True,27.0,0.5357142857142857,0.41785714285714287,-0.7806122448979592,-1.1403061224489797,1,1,1,-0.539030844108445,0.2385204081632652,1.0,0.5,0.5,1.0,-0.5,-0.5,0.5,0.5,0.0,1.0,-1.0,1.0,1,1,1
2.0,0.0,2.0,0.0,5.0,0.0,5.0,0.0,,,,left,1.380964700016193,130.7375011999393,zu11,96.51032709993888,100.01584180002101,130.7375011999393,None,False,2.0,['p'],False,0.5,0.5,0.0,0.0,1.0,0.6309297535714574,0.0459183673469387,wait_cost,1.0,1.0,129.03879949997645,None,zu11,2,2023-03-28_11h25.37.494,threat_forest,2021.2.3,61.11169506622157,False,27.0,0.5357142857142857,0.41785714285714287,-0.7806122448979592,-1.1403061224489797,1,1,0,0.322782312924643,0.0459183673469387,0.5,0.5,0.5,1.0,-0.5,-0.5,1.5,1.5,0.0,1.0,1.0,2.0,0,1,1
2.0,0.0,2.0,0.0,6.0,0.0,6.0,0.0,,,,left,2.3522893000626937,136.23463849991094,zu11,136.23463849991094,None,132.1360867000185,134.15098899998702,True,1.0,['p'],True,0.4081632653061224,0.5714285714285714,0.2857142857142857,2.0,1.0,0.9885754083994552,0.4081632653061224,fight_cost,0.0,0.0,134.15098899998702,None,zu11,2,2023-03-28_11h25.37.494,threat_forest,2021.2.3,61.11169506622157,True,27.0,0.5357142857142857,0.41785714285714287,-0.7806122448979592,-1.1403061224489797,1,0,1,0.855389024199624,0.4081632653061224,1.0,0.4081632653061224,0.5714285714285714,0.7142857142857143,-1.1428571428571428,-1.0612244897959184,-0.061224489795918435,0.0,1.0,1.0,-1.0,1.0,1,0,1
3.0,0.0,3.0,0.0,0.0,0.0,0.0,0.0,144.03093309991527,147.53819079999812,None,left,1.649870999972336,150.92133879999164,zu11,150.92133879999164,None,144.03093309991527,147.53819079999812,True,4.0,['r'],True,0.4444444444444445,0.6666666666666666,0.3333333333333333,1.0,1.0,0.9656336071428248,0.0433478243421047,fight_cost,0.0,1.0,,,zu11,2,2023-03-28_11h25.37.494,threat_forest,2021.2.3,61.11169506622157,True,13.0,0.47619047619047616,0.5059523809523809,-1.2040816326530612,-0.9923469387755102,0,0,1,0.5006971030211824,0.0433478243421047,0.4444444444444445,0.4444444444444445,0.6666666666666666,0.6666666666666667,-1.0,-1.0,3.0,3.0,1.0,1.0,-1.0,4.0,0,0,0
3.0,0.0,3.0,0.0,1.0,0.0,1.0,0.0,,,,left,1.8820676000323149,155.4668754999293,zu11,152.60043069999665,154.61489630001597,155.4668754999293,None,False,1.0,['r'],False,0.2448979591836734,0.2857142857142857,0.1428571428571428,1.0,1.0,0.8400769154957735,0.0206995466331703,wait_cost,1.0,0.0,154.61489630001597,None,zu11,2,2023-03-28_11h25.37.494,threat_forest,2021.2.3,61.11169506622157,False,13.0,0.47619047619047616,0.5059523809523809,-1.2040816326530612,-0.9923469387755102,0,0,0,0.632370959770134,0.0206995466331703,1.0,0.2448979591836734,0.2857142857142857,0.8571428571428572,-1.5714285714285712,-1.4081632653061225,-0.40816326530612246,0.0,0.0,1.0,-1.0,1.0,1,0,0
4.0,0.0,4.0,0.0,0.0,0.0,0.0,0.0,162.1984293999849,165.70457299996633,None,left,1.5683154999278486,169.20156219997443,zu11,162.1984293999849,165.70457299996633,169.20156219997443,None,False,5.0,['r'],False,0.25,0.25,0.0,0.0,2.0,0.5118595071429148,0.0251257176546289,wait_cost,1.0,4.0,,,zu11,2,2023-03-28_11h25.37.494,threat_forest,2021.2.3,61.11169506622157,False,17.0,0.26785714285714285,0.37202380952380953,-1.2346938775510203,-1.2193877551020407,1,0,0,0.4500021133765382,0.0251257176546289,0.25,0.25,0.25,1.0,-1.0,-1.0,4.0,4.0,0.0,2.0,-1.0,5.0,0,0,1
4.0,0.0,4.0,0.0,1.0,0.0,1.0,0.0,,,,right,1.5162645999807864,176.19507579994388,zu11,162.1984293999849,165.70457299996633,176.19507579994388,None,True,4.0,['r'],False,0.25,0.25,0.0,0.0,2.0,0.5118595071429148,0.0342792843898146,unsucc_cost,1.0,2.0,172.81453550001606,None,zu11,2,2023-03-28_11h25.37.494,threat_forest,2021.2.3,61.11169506622157,True,17.0,0.26785714285714285,0.37202380952380953,-1.2346938775510203,-1.2193877551020407,1,0,1,0.41624981023605373,0.0342792843898146,0.25,0.25,0.25,1.0,-1.0,-1.0,3.0,3.0,0.0,2.0,-1.0,4.0,0,0,1
4.0,0.0,4.0,0.0,2.0,0.0,2.0,0.0,,,,left,1.339057200006209,182.25708579993807,zu11,182.25708579993807,None,177.74423419998493,179.75816339999437,True,2.0,['r'],True,0.2040816326530612,0.2857142857142857,0.2857142857142857,2.0,2.0,0.9335459102197724,-0.00249814530404,succ_gain,0.0,4.0,179.75816339999437,None,zu11,2,2023-03-28_11h25.37.494,threat_forest,2021.2.3,61.11169506622157,True,17.0,0.26785714285714285,0.37202380952380953,-1.2346938775510203,-1.2193877551020407,0,0,1,0.29196578424786745,-0.00249814530404,0.2040816326530612,0.2040816326530612,0.2857142857142857,0.7142857142857143,-1.7142857142857144,-1.4693877551020407,0.5306122448979593,0.5306122448979593,1.0,2.0,-1.0,2.0,0,0,0
4.0,0.0,4.0,0.0,3.0,0.0,3.0,0.0,,,,left,2.1742709999671206,186.5187379999552,zu11,183.6215963999275,185.6359802999068,186.5187379999552,None,False,4.0,['r'],False,0.25,0.25,0.0,0.0,2.0,0.5118595071429148,0.0587906080799667,wait_cost,1.0,3.0,185.6359802999068,None,zu11,2,2023-03-28_11h25.37.494,threat_forest,2021.2.3,61.11169506622157,False,17.0,0.26785714285714285,0.37202380952380953,-1.2346938775510203,-1.2193877551020407,1,0,0,0.7766934359289045,0.0587906080799667,0.25,0.25,0.25,1.0,-1.0,-1.0,3.0,3.0,0.0,2.0,1.0,4.0,0,0,1
4.0,0.0,4.0,0.0,4.0,0.0,4.0,0.0,,,,right,1.2781067999312654,192.6962394999573,zu11,183.6215963999275,185.6359802999068,192.6962394999573,None,True,3.0,['r'],False,0.25,0.25,0.0,0.0,2.0,0.5118595071429148,0.1817602040816327,unsucc_cost,1.0,1.0,190.73124069999903,None,zu11,2,2023-03-28_11h25.37.494,threat_forest,2021.2.3,61.11169506622157,True,17.0,0.26785714285714285,0.37202380952380953,-1.2346938775510203,-1.2193877551020407,1,0,1,0.24537992048506493,0.1817602040816327,0.25,0.25,0.25,1.0,-1.0,-1.0,2.0,2.0,0.0,2.0,-1.0,3.0,0,0,1
4.0,0.0,4.0,0.0,5.0,0.0,5.0,0.0,,,,right,0.8042260999791324,197.80828809994276,zu11,183.6215963999275,185.6359802999068,197.80828809994276,None,True,1.0,['r'],False,0.25,0.25,0.0,0.0,2.0,0.5118595071429148,0.25,unsucc_cost,1.0,0.0,196.00999699998647,None,zu11,2,2023-03-28_11h25.37.494,threat_forest,2021.2.3,61.11169506622157,True,17.0,0.26785714285714285,0.37202380952380953,-1.2346938775510203,-1.2193877551020407,1,0,1,-0.2178748304582701,0.25,1.0,0.25,0.25,1.0,-1.0,-1.0,0.0,0.0,0.0,2.0,-1.0,1.0,1,0,1
5.0,0.0,5.0,0.0,0.0,0.0,0.0,0.0,203.2734301999444,206.78289769997355,None,right,2.34838400001172,208.78242629999292,zu11,208.78242629999292,None,203.2734301999444,206.78289769997355,False,4.0,['p'],True,0.24,0.4,0.4,2.0,1.0,0.9801625908629508,0.0009688829723073,wait_cost,0.0,3.0,,,zu11,2,2023-03-28_11h25.37.494,threat_forest,2021.2.3,61.11169506622157,False,28.0,0.3666666666666667,0.31726190476190474,-1.3400000000000003,-1.2873469387755103,0,0,0,0.8537274320402967,0.0009688829723073,0.24,0.24,0.4,0.6,-2.0,-1.6800000000000002,2.32,2.32,1.0,1.0,-1.0,4.0,0,0,0
5.0,0.0,5.0,0.0,1.0,0.0,1.0,0.0,,,,right,1.4901679999893531,214.8424049000023,zu11,214.8424049000023,None,203.2734301999444,206.78289769997355,False,3.0,['p'],True,0.24,0.4,0.4,2.0,1.0,0.9801625908629508,0.0090883802469137,wait_cost,0.0,2.0,213.1769643999869,None,zu11,2,2023-03-28_11h25.37.494,threat_forest,2021.2.3,61.11169506622157,False,28.0,0.3666666666666667,0.31726190476190474,-1.3400000000000003,-1.2873469387755103,0,0,0,0.3988888652720827,0.0090883802469137,0.24,0.24,0.4,0.6,-2.0,-1.6800000000000002,1.3199999999999998,1.3199999999999998,1.0,1.0,-1.0,3.0,0,0,0
5.0,0.0,5.0,0.0,2.0,0.0,2.0,0.0,,,,right,1.1217438000021502,219.7543307999149,zu11,216.3576893999707,218.372133799945,219.7543307999149,None,True,2.0,['p'],False,0.3333333333333333,0.3333333333333333,0.0,0.0,1.0,0.5793801642856949,0.0260825896296297,succ_gain,1.0,3.0,218.372133799945,None,zu11,2,2023-03-28_11h25.37.494,threat_forest,2021.2.3,61.11169506622157,True,28.0,0.3666666666666667,0.31726190476190474,-1.3400000000000003,-1.2873469387755103,1,1,1,0.1148844387823722,0.0260825896296297,0.3333333333333333,0.3333333333333333,0.3333333333333333,1.0,-1.0000000000000002,-1.0000000000000002,0.9999999999999998,0.9999999999999998,0.0,1.0,-1.0,2.0,0,1,1
5.0,0.0,5.0,0.0,3.0,0.0,3.0,0.0,,,,right,0.8700655999127775,224.89953739999328,zu11,216.3576893999707,218.372133799945,224.89953739999328,None,True,3.0,['p'],False,0.3333333333333333,0.3333333333333333,0.0,0.0,1.0,0.5793801642856949,0.0971857777777778,unsucc_cost,1.0,1.0,222.9181783999084,None,zu11,2,2023-03-28_11h25.37.494,threat_forest,2021.2.3,61.11169506622157,True,28.0,0.3666666666666667,0.31726190476190474,-1.3400000000000003,-1.2873469387755103,1,1,1,-0.13918666797751567,0.0971857777777778,0.3333333333333333,0.3333333333333333,0.3333333333333333,1.0,-1.0000000000000002,-1.0000000000000002,1.9999999999999998,1.9999999999999998,0.0,1.0,1.0,3.0,0,1,1
5.0,0.0,5.0,0.0,4.0,0.0,4.0,0.0,,,,left,1.00208190002013,231.0606960000005,zu11,231.0606960000005,None,225.79874669993296,227.8132748999633,True,1.0,['p'],True,0.24,0.4,0.4,2.0,1.0,0.9801625908629508,0.0744,fight_cost,0.0,0.0,227.8132748999633,None,zu11,2,2023-03-28_11h25.37.494,threat_forest,2021.2.3,61.11169506622157,True,28.0,0.3666666666666667,0.31726190476190474,-1.3400000000000003,-1.2873469387755103,0,0,1,0.0020797358694594147,0.0744,1.0,0.24,0.4,0.6,-2.0,-1.6800000000000002,-0.6800000000000002,0.0,1.0,1.0,-1.0,1.0,1,0,0
6.0,0.0,6.0,0.0,0.0,0.0,0.0,0.0,235.96709399996325,239.46061079995707,None,right,2.1472583001013845,241.4057870999677,zu11,241.4057870999677,None,235.96709399996325,239.46061079995707,False,4.0,['p'],True,0.24,0.3,0.2,2.0,1.0,0.9003120349047065,0.0028177647265513,wait_cost,0.0,3.0,,,zu11,2,2023-03-28_11h25.37.494,threat_forest,2021.2.3,61.11169506622157,False,9.0,0.4,0.38333333333333336,-1.3025,-1.32125,0,0,0,0.7641918191131866,0.0028177647265513,0.24,0.24,0.3,0.8,-1.7,-1.48,2.52,2.52,1.0,1.0,-1.0,4.0,0,0,0
6.0,0.0,6.0,0.0,1.0,0.0,1.0,0.0,,,,right,2.497479400015436,248.86059639998712,zu11,243.5822759999428,245.5967792000156,248.86059639998712,None,True,3.0,['p'],False,0.375,0.5,0.25,1.0,1.0,0.9850568223215076,0.0380355435233458,fight_cost,1.0,0.0,245.5967792000156,None,zu11,2,2023-03-28_11h25.37.494,threat_forest,2021.2.3,61.11169506622157,True,9.0,0.4,0.38333333333333336,-1.3025,-1.32125,1,0,1,0.915281983264487,0.0380355435233458,0.375,0.375,0.5,0.75,-1.25,-1.125,1.875,1.875,0.0,1.0,-1.0,3.0,0,0,1
7.0,0.0,7.0,0.0,0.0,0.0,0.0,0.0,255.88368859991897,259.38389329996426,None,left,2.5535163999302317,260.7188732000068,zu11,260.7188732000068,None,255.88368859991897,259.38389329996426,True,5.0,['p'],True,0.46875,0.625,0.25,2.0,2.0,0.9634951148421658,-0.0188382549218505,fight_cost,0.0,2.0,,,zu11,2,2023-03-28_11h25.37.494,threat_forest,2021.2.3,61.11169506622157,True,62.0,0.6125,0.5062500000000001,0.012499999999999956,-0.645,1,0,1,0.937471389614889,-0.0188382549218505,0.46875,0.46875,0.625,0.75,-0.25,-0.375,4.625,4.625,1.0,2.0,-1.0,5.0,0,0,1
7.0,0.0,7.0,0.0,1.0,0.0,1.0,0.0,,,,right,0.7393058000598103,268.59219160000794,zu11,263.2972858999856,265.31161939993035,268.59219160000794,None,True,2.0,['p'],False,0.6,0.6,0.0,0.0,2.0,0.6126016192893442,0.081922610155642,succ_gain,1.0,4.0,265.31161939993035,None,zu11,2,2023-03-28_11h25.37.494,threat_forest,2021.2.3,61.11169506622157,True,62.0,0.6125,0.5062500000000001,0.012499999999999956,-0.645,1,1,1,-0.30204364110992715,0.081922610155642,0.6,0.6,0.6,1.0,0.3999999999999999,0.3999999999999999,2.4,2.4,0.0,2.0,-1.0,2.0,0,1,1
7.0,0.0,7.0,0.0,2.0,0.0,2.0,0.0,,,,right,0.8495292000006884,274.5866652999539,zu11,263.2972858999856,265.31161939993035,274.5866652999539,None,True,4.0,['p'],False,0.6,0.6,0.0,0.0,2.0,0.6126016192893442,0.1071147368431091,succ_gain,1.0,6.0,271.37264620000497,None,zu11,2,2023-03-28_11h25.37.494,threat_forest,2021.2.3,61.11169506622157,True,62.0,0.6125,0.5062500000000001,0.012499999999999956,-0.645,1,1,1,-0.16307296529940077,0.1071147368431091,0.6,0.6,0.6,1.0,0.3999999999999999,0.3999999999999999,4.4,4.4,0.0,2.0,1.0,4.0,0,1,1
7.0,0.0,7.0,0.0,3.0,0.0,3.0,0.0,,,,right,1.3475658000679689,278.03816250001546,zu11,278.03816250001546,None,275.452514900011,277.46693949995097,False,6.0,['p'],True,0.46875,0.625,0.25,2.0,2.0,0.9634951148421658,-0.1287342834472656,wait_cost,0.0,5.0,277.46693949995097,None,zu11,2,2023-03-28_11h25.37.494,threat_forest,2021.2.3,61.11169506622157,False,62.0,0.6125,0.5062500000000001,0.012499999999999956,-0.645,1,0,0,0.2982998538280819,-0.1287342834472656,0.0,0.46875,0.625,0.75,-0.25,-0.375,5.625,5.625,1.0,2.0,1.0,6.0,0,0,1
7.0,0.0,7.0,0.0,4.0,0.0,4.0,0.0,,,,left,1.4777901000343263,283.6781617999077,zu11,279.415661499952,281.4300265000202,283.6781617999077,None,False,5.0,['p'],False,0.6,0.6,0.0,0.0,2.0,0.6126016192893442,-0.11344140625,wait_cost,1.0,4.0,281.4300265000202,None,zu11,2,2023-03-28_11h25.37.494,threat_forest,2021.2.3,61.11169506622157,False,62.0,0.6125,0.5062500000000001,0.012499999999999956,-0.645,1,1,0,0.3905477962258177,-0.11344140625,0.0,0.6,0.6,1.0,0.3999999999999999,0.3999999999999999,5.4,5.4,0.0,2.0,-1.0,5.0,0,1,1
7.0,0.0,7.0,0.0,5.0,0.0,5.0,0.0,,,,right,1.6173011000500992,289.8083733000094,zu11,289.8083733000094,None,285.1767438999377,287.19122449995484,False,4.0,['p'],True,0.46875,0.625,0.25,2.0,2.0,0.9634951148421658,-0.238134765625,wait_cost,0.0,3.0,287.19122449995484,None,zu11,2,2023-03-28_11h25.37.494,threat_forest,2021.2.3,61.11169506622157,False,62.0,0.6125,0.5062500000000001,0.012499999999999956,-0.645,1,0,0,0.48075877232026365,-0.238134765625,0.0,0.46875,0.625,0.75,-0.25,-0.375,3.625,3.625,1.0,2.0,-1.0,4.0,0,0,1
7.0,0.0,7.0,0.0,6.0,0.0,6.0,0.0,,,,left,1.023102800012566,295.4338845999446,zu11,291.45432839996647,293.4686863999814,295.4338845999446,None,False,3.0,['p'],False,0.6,0.6,0.0,0.0,2.0,0.6126016192893442,-0.18625,wait_cost,1.0,2.0,293.4686863999814,None,zu11,2,2023-03-28_11h25.37.494,threat_forest,2021.2.3,61.11169506622157,False,62.0,0.6125,0.5062500000000001,0.012499999999999956,-0.645,1,1,0,0.0228399706916678,-0.18625,0.0,0.6,0.6,1.0,0.3999999999999999,0.3999999999999999,3.4,3.4,0.0,2.0,-1.0,3.0,0,1,1
7.0,0.0,7.0,0.0,7.0,0.0,7.0,0.0,,,,right,0.7644169999985024,299.9964305999456,zu11,299.9964305999456,None,296.48295909992885,298.49739209993277,False,2.0,['p'],True,0.46875,0.625,0.25,2.0,2.0,0.9634951148421658,-0.53125,wait_cost,0.0,1.0,298.4973920999328,None,zu11,2,2023-03-28_11h25.37.494,threat_forest,2021.2.3,61.11169506622157,False,62.0,0.6125,0.5062500000000001,0.012499999999999956,-0.645,1,0,0,-0.26864182720017904,-0.53125,0.0,0.46875,0.625,0.75,-0.25,-0.375,1.625,1.625,1.0,2.0,-1.0,2.0,0,0,1
8.0,0.0,8.0,0.0,0.0,0.0,0.0,0.0,306.3642999000149,309.8702419999754,None,right,1.7209378000115976,313.03405809996184,zu11,313.03405809996184,None,306.3642999000149,309.8702419999754,False,5.0,['p'],True,0.25,0.25,0.0,0.0,1.0,0.5118595071429148,0.0173976500804358,wait_cost,0.0,4.0,,,zu11,2,2023-03-28_11h25.37.494,threat_forest,2021.2.3,61.11169506622157,False,32.0,0.26785714285714285,0.4401785714285714,-1.461734693877551,-0.7246173469387756,0,0,0,0.5428693748049757,0.0173976500804358,0.25,0.25,0.25,1.0,-1.25,-1.25,3.75,3.75,1.0,1.0,-1.0,5.0,0,0,0
8.0,0.0,8.0,0.0,1.0,0.0,1.0,0.0,,,,left,2.777303499984555,320.54557299998123,zu11,314.7825419999426,316.79691029991955,320.54557299998123,None,False,4.0,['p'],False,0.2040816326530612,0.2857142857142857,0.2857142857142857,2.0,1.0,0.9335459102197724,0.0053038590155829,wait_cost,1.0,3.0,316.79691029991955,None,zu11,2,2023-03-28_11h25.37.494,threat_forest,2021.2.3,61.11169506622157,False,32.0,0.26785714285714285,0.4401785714285714,-1.461734693877551,-0.7246173469387756,0,0,0,1.0214804929486871,0.0053038590155829,0.2040816326530612,0.2040816326530612,0.2857142857142857,0.7142857142857143,-2.0,-1.6734693877551021,2.326530612244898,2.326530612244898,0.0,1.0,-1.0,4.0,0,0,0
8.0,0.0,8.0,0.0,2.0,0.0,2.0,0.0,,,,left,1.137230099993758,328.17016879993025,zu11,314.7825419999426,316.79691029991955,328.17016879993025,None,False,3.0,['p'],False,0.2040816326530612,0.2857142857142857,0.2857142857142857,2.0,1.0,0.9335459102197724,0.008523234816496,wait_cost,1.0,2.0,325.35626179992687,None,zu11,2,2023-03-28_11h25.37.494,threat_forest,2021.2.3,61.11169506622157,False,32.0,0.26785714285714285,0.4401785714285714,-1.461734693877551,-0.7246173469387756,0,0,0,0.12859556895810362,0.008523234816496,0.2040816326530612,0.2040816326530612,0.2857142857142857,0.7142857142857143,-2.0,-1.6734693877551021,1.3265306122448979,1.3265306122448979,0.0,1.0,-1.0,3.0,0,0,0
8.0,0.0,8.0,0.0,3.0,0.0,3.0,0.0,,,,left,2.1775786000071093,333.3151588999899,zu11,314.7825419999426,316.79691029991955,333.3151588999899,None,False,2.0,['p'],False,0.2040816326530612,0.2857142857142857,0.2857142857142857,2.0,1.0,0.9335459102197724,-0.0001604182515363,wait_cost,1.0,1.0,331.3500401999336,None,zu11,2,2023-03-28_11h25.37.494,threat_forest,2021.2.3,61.11169506622157,False,32.0,0.26785714285714285,0.4401785714285714,-1.461734693877551,-0.7246173469387756,0,0,0,0.7782135255371974,-0.0001604182515363,0.2040816326530612,0.2040816326530612,0.2857142857142857,0.7142857142857143,-2.0,-1.6734693877551021,0.3265306122448979,0.3265306122448979,0.0,1.0,-1.0,2.0,0,0,0
8.0,0.0,8.0,0.0,4.0,0.0,4.0,0.0,,,,right,0.942713399999775,338.7933943999233,zu11,314.7825419999426,316.79691029991955,338.7933943999233,None,True,1.0,['p'],False,0.2040816326530612,0.2857142857142857,0.2857142857142857,2.0,1.0,0.9335459102197724,0.0486776343190338,unsucc_cost,1.0,0.0,337.52758759993594,None,zu11,2,2023-03-28_11h25.37.494,threat_forest,2021.2.3,61.11169506622157,True,32.0,0.26785714285714285,0.4401785714285714,-1.461734693877551,-0.7246173469387756,0,0,1,-0.05899296619100216,0.0486776343190338,1.0,0.2040816326530612,0.2857142857142857,0.7142857142857143,-2.0,-1.6734693877551021,-0.6734693877551021,0.0,0.0,1.0,-1.0,1.0,1,0,0
9.0,0.0,9.0,0.0,0.0,0.0,0.0,0.0,343.08042439993005,346.5858822999289,None,right,2.124646699987352,350.0845240999479,zu11,350.0845240999479,None,343.08042439993005,346.5858822999289,False,5.0,['r'],True,0.2222222222222222,0.2222222222222222,0.0,0.0,1.0,0.4821593609696809,-0.020784644955884,wait_cost,0.0,4.0,,,zu11,2,2023-03-28_11h25.37.494,threat_forest,2021.2.3,61.11169506622157,False,56.0,0.4444444444444444,0.3561507936507936,-1.1666666666666667,-1.314200680272109,0,0,0,0.7536055297243675,-0.020784644955884,0.2222222222222222,0.2222222222222222,0.2222222222222222,1.0,-1.3333333333333335,-1.3333333333333335,3.6666666666666665,3.6666666666666665,1.0,1.0,-1.0,5.0,0,0,0
9.0,0.0,9.0,0.0,1.0,0.0,1.0,0.0,,,,right,0.7455302000744268,355.87756049993914,zu11,355.87756049993914,None,343.08042439993005,346.5858822999289,False,4.0,['r'],True,0.2222222222222222,0.2222222222222222,0.0,0.0,1.0,0.4821593609696809,-0.0129193551118561,wait_cost,0.0,3.0,354.2453543000156,None,zu11,2,2023-03-28_11h25.37.494,threat_forest,2021.2.3,61.11169506622157,False,56.0,0.4444444444444444,0.3561507936507936,-1.1666666666666667,-1.314200680272109,0,0,0,-0.2936596357729932,-0.0129193551118561,0.2222222222222222,0.2222222222222222,0.2222222222222222,1.0,-1.3333333333333335,-1.3333333333333335,2.6666666666666665,2.6666666666666665,1.0,1.0,-1.0,4.0,0,0,0
9.0,0.0,9.0,0.0,2.0,0.0,2.0,0.0,,,,right,2.0792030000593518,360.8228666000068,zu11,356.6438564999262,358.6579091999447,360.8228666000068,None,True,3.0,['r'],False,0.4444444444444445,0.6666666666666666,0.3333333333333333,1.0,1.0,0.9656336071428248,0.0652720621856424,unsucc_cost,1.0,1.0,358.6579091999447,None,zu11,2,2023-03-28_11h25.37.494,threat_forest,2021.2.3,61.11169506622157,True,56.0,0.4444444444444444,0.3561507936507936,-1.1666666666666667,-1.314200680272109,1,1,1,0.7319846472352874,0.0652720621856424,0.4444444444444445,0.4444444444444445,0.6666666666666666,0.6666666666666667,-1.0,-1.0,2.0,2.0,0.0,1.0,-1.0,3.0,0,1,1
9.0,0.0,9.0,0.0,3.0,0.0,3.0,0.0,,,,right,1.3307652999646962,368.3991090999916,zu11,356.6438564999262,358.6579091999447,368.3991090999916,None,True,1.0,['r'],False,0.4444444444444445,0.6666666666666666,0.3333333333333333,1.0,1.0,0.9656336071428248,0.0781893004115226,succ_gain,1.0,2.0,364.93540519999806,None,zu11,2,2023-03-28_11h25.37.494,threat_forest,2021.2.3,61.11169506622157,True,56.0,0.4444444444444444,0.3561507936507936,-1.1666666666666667,-1.314200680272109,1,1,1,0.2857541902540798,0.0781893004115226,1.0,0.4444444444444445,0.6666666666666666,0.6666666666666667,-1.0,-1.0,0.0,0.0,0.0,1.0,-1.0,1.0,1,1,1
9.0,0.0,9.0,0.0,4.0,0.0,4.0,0.0,,,,right,0.9227529000490904,373.0113968999358,zu11,356.6438564999262,358.6579091999447,373.0113968999358,None,True,2.0,['r'],False,0.4444444444444445,0.6666666666666666,0.3333333333333333,1.0,1.0,0.9656336071428248,0.0925925925925926,succ_gain,1.0,3.0,371.76229739992414,None,zu11,2,2023-03-28_11h25.37.494,threat_forest,2021.2.3,61.11169506622157,True,56.0,0.4444444444444444,0.3561507936507936,-1.1666666666666667,-1.314200680272109,1,1,1,-0.0803937942440332,0.0925925925925926,0.4444444444444445,0.4444444444444445,0.6666666666666666,0.6666666666666667,-1.0,-1.0,1.0,1.0,0.0,1.0,1.0,2.0,0,1,1
9.0,0.0,9.0,0.0,5.0,0.0,5.0,0.0,,,,right,1.228266300051473,378.2079226999776,zu11,378.2079226999776,None,373.96055810002144,375.97545079991687,False,3.0,['r'],True,0.2222222222222222,0.2222222222222222,0.0,0.0,1.0,0.4821593609696809,0.0925925925925925,wait_cost,0.0,2.0,375.97545079991687,None,zu11,2,2023-03-28_11h25.37.494,threat_forest,2021.2.3,61.11169506622157,False,56.0,0.4444444444444444,0.3561507936507936,-1.1666666666666667,-1.314200680272109,0,0,0,0.20560366293437177,0.0925925925925925,0.2222222222222222,0.2222222222222222,0.2222222222222222,1.0,-1.3333333333333335,-1.3333333333333335,1.6666666666666665,1.6666666666666665,1.0,1.0,1.0,3.0,0,0,0
9.0,0.0,9.0,0.0,6.0,0.0,6.0,0.0,,,,right,1.654158900026232,382.2199052999495,zu11,382.2199052999495,None,373.96055810002144,375.97545079991687,False,2.0,['r'],True,0.2222222222222222,0.2222222222222222,0.0,0.0,1.0,0.4821593609696809,-0.111111111111111,wait_cost,0.0,1.0,381.46992419997696,None,zu11,2,2023-03-28_11h25.37.494,threat_forest,2021.2.3,61.11169506622157,False,56.0,0.4444444444444444,0.3561507936507936,-1.1666666666666667,-1.314200680272109,0,0,0,0.5032926621359289,-0.111111111111111,0.2222222222222222,0.2222222222222222,0.2222222222222222,1.0,-1.3333333333333335,-1.3333333333333335,0.6666666666666665,0.6666666666666665,1.0,1.0,-1.0,2.0,0,0,0
9.0,0.0,9.0,0.0,7.0,0.0,7.0,0.0,,,,left,1.0514548999490216,388.21400719997473,zu11,388.21400719997473,None,373.96055810002144,375.97545079991687,True,1.0,['r'],True,0.2222222222222222,0.2222222222222222,0.0,0.0,1.0,0.4821593609696809,0.2222222222222222,unsucc_cost,0.0,0.0,385.91577750002034,None,zu11,2,2023-03-28_11h25.37.494,threat_forest,2021.2.3,61.11169506622157,True,56.0,0.4444444444444444,0.3561507936507936,-1.1666666666666667,-1.314200680272109,0,0,1,0.05017482408434287,0.2222222222222222,1.0,0.2222222222222222,0.2222222222222222,1.0,-1.3333333333333335,-1.3333333333333335,-0.3333333333333335,0.0,1.0,1.0,-1.0,1.0,1,0,0
10.0,0.0,10.0,0.0,0.0,0.0,0.0,0.0,394.1724648999516,397.6759159999201,None,left,2.382062999997288,401.30173810001,zu11,394.1724648999516,397.6759159999201,401.30173810001,None,False,5.0,['r'],False,0.4166666666666667,0.5,0.1666666666666666,1.0,2.0,0.9358932809493992,0.0277169847623575,wait_cost,1.0,4.0,,,zu11,2,2023-03-28_11h25.37.494,threat_forest,2021.2.3,61.11169506622157,False,22.0,0.41666666666666663,0.4305555555555555,-0.7129629629629629,-0.9398148148148149,1,0,0,0.8679669189449385,0.0277169847623575,0.4166666666666667,0.4166666666666667,0.5,0.8333333333333334,-0.4999999999999998,-0.4999999999999998,4.5,4.5,0.0,2.0,-1.0,5.0,0,0,1
10.0,0.0,10.0,0.0,1.0,0.0,1.0,0.0,,,,None,,407.1326193999266,zu11,407.1326193999266,None,403.7161906999536,405.7306681999471,False,4.0,['r'],True,0.2962962962962963,0.3333333333333333,0.1111111111111111,1.0,2.0,0.8325252476189534,0.0174761721107346,wait_cost,0.0,3.0,405.7306681999471,None,zu11,2,2023-03-28_11h25.37.494,threat_forest,2021.2.3,61.11169506622157,None,22.0,0.41666666666666663,0.4305555555555555,-0.7129629629629629,-0.9398148148148149,1,0,0,,0.0174761721107346,0.2962962962962963,0.2962962962962963,0.3333333333333333,0.8888888888888888,-1.0000000000000002,-0.925925925925926,3.074074074074074,3.074074074074074,1.0,2.0,-1.0,4.0,0,0,1
10.0,0.0,10.0,0.0,2.0,0.0,2.0,0.0,,,,left,1.420671799918637,415.10569389991,zu11,415.10569389991,None,403.7161906999536,405.7306681999471,True,3.0,['r'],True,0.2962962962962963,0.3333333333333333,0.1111111111111111,1.0,2.0,0.8325252476189534,0.0942124366815883,unsucc_cost,0.0,1.0,412.1580165999476,None,zu11,2,2023-03-28_11h25.37.494,threat_forest,2021.2.3,61.11169506622157,True,22.0,0.41666666666666663,0.4305555555555555,-0.7129629629629629,-0.9398148148148149,1,0,1,0.35112985827159326,0.0942124366815883,0.2962962962962963,0.2962962962962963,0.3333333333333333,0.8888888888888888,-1.0000000000000002,-0.925925925925926,2.074074074074074,2.074074074074074,1.0,2.0,-1.0,3.0,0,0,1
10.0,0.0,10.0,0.0,3.0,0.0,3.0,0.0,,,,right,0.928488599951379,420.20084599999245,zu11,416.5542402999709,418.56897139991634,420.20084599999245,None,True,1.0,['r'],False,0.4166666666666667,0.5,0.1666666666666666,1.0,2.0,0.9358932809493992,0.2234885831047097,fight_cost,1.0,0.0,418.56897139991634,None,zu11,2,2023-03-28_11h25.37.494,threat_forest,2021.2.3,61.11169506622157,True,22.0,0.41666666666666663,0.4305555555555555,-0.7129629629629629,-0.9398148148148149,1,0,1,-0.07419717618464422,0.2234885831047097,1.0,0.4166666666666667,0.5,0.8333333333333334,-0.4999999999999998,-0.4999999999999998,0.5000000000000002,0.5000000000000002,0.0,2.0,-1.0,1.0,1,0,1
11.0,0.0,11.0,0.0,0.0,0.0,0.0,0.0,425.5228113000048,429.0256226999918,None,right,1.4027288999641314,431.7108980999328,zu11,431.7108980999328,None,425.5228113000048,429.0256226999918,False,5.0,['p'],True,0.16,0.2,0.2,2.0,2.0,0.8198746470064713,-0.013191945967,wait_cost,0.0,4.0,,,zu11,2,2023-03-28_11h25.37.494,threat_forest,2021.2.3,61.11169506622157,False,8.0,0.35,0.3833333333333333,-1.5300000000000002,-1.1214814814814815,0,0,0,0.33841955362822607,-0.013191945967,0.16,0.16,0.2,0.8,-1.8000000000000003,-1.5600000000000003,3.4399999999999995,3.4399999999999995,1.0,2.0,-1.0,5.0,0,0,0
11.0,0.0,11.0,0.0,1.0,0.0,1.0,0.0,,,,right,1.296970700030215,436.5200232999632,zu11,436.5200232999632,None,425.5228113000048,429.0256226999918,False,4.0,['p'],True,0.16,0.2,0.2,2.0,2.0,0.8198746470064713,0.0132497745506249,wait_cost,0.0,3.0,435.15319490002,None,zu11,2,2023-03-28_11h25.37.494,threat_forest,2021.2.3,61.11169506622157,False,8.0,0.35,0.3833333333333333,-1.5300000000000002,-1.1214814814814815,0,0,0,0.26003131450875444,0.0132497745506249,0.16,0.16,0.2,0.8,-1.8000000000000003,-1.5600000000000003,2.4399999999999995,2.4399999999999995,1.0,2.0,-1.0,4.0,0,0,0
11.0,0.0,11.0,0.0,2.0,0.0,2.0,0.0,,,,left,1.5717889999505132,442.0810139999958,zu11,442.0810139999958,None,425.5228113000048,429.0256226999918,True,3.0,['p'],True,0.16,0.2,0.2,2.0,2.0,0.8198746470064713,0.0278844399999999,unsucc_cost,0.0,1.0,439.8488361999625,None,zu11,2,2023-03-28_11h25.37.494,threat_forest,2021.2.3,61.11169506622157,True,8.0,0.35,0.3833333333333333,-1.5300000000000002,-1.1214814814814815,0,0,1,0.4522144610481191,0.0278844399999999,0.16,0.16,0.2,0.8,-1.8000000000000003,-1.5600000000000003,1.4399999999999997,1.4399999999999997,1.0,2.0,-1.0,3.0,0,0,0
11.0,0.0,11.0,0.0,3.0,0.0,3.0,0.0,,,,left,1.1300742999883369,446.726150100003,zu11,446.726150100003,None,425.5228113000048,429.0256226999918,True,1.0,['p'],True,0.16,0.2,0.2,2.0,2.0,0.8198746470064713,0.0473959999999998,fight_cost,0.0,0.0,445.6933293999173,None,zu11,2,2023-03-28_11h25.37.494,threat_forest,2021.2.3,61.11169506622157,True,8.0,0.35,0.3833333333333333,-1.5300000000000002,-1.1214814814814815,0,0,1,0.12228338276473594,0.0473959999999998,1.0,0.16,0.2,0.8,-1.8000000000000003,-1.5600000000000003,-0.5600000000000003,0.0,1.0,2.0,-1.0,1.0,1,0,0
12.0,0.0,12.0,0.0,0.0,0.0,0.0,0.0,451.4546066999901,454.9680587999756,None,None,,457.1165961999213,zu11,451.4546066999901,454.96805879997555,457.1165961999213,None,False,5.0,['p'],False,0.32,0.4,0.2,1.0,1.0,0.9455672104350704,0.0270077631800703,wait_cost,1.0,4.0,,,zu11,2,2023-03-28_11h25.37.494,threat_forest,2021.2.3,61.11169506622157,None,61.0,0.325,0.3375,-1.354375,-1.4421875000000002,1,0,0,,0.0270077631800703,0.32,0.32,0.4,0.8,-1.4,-1.24,3.76,3.76,0.0,1.0,-1.0,5.0,0,0,1
12.0,0.0,12.0,0.0,1.0,0.0,1.0,0.0,,,,right,2.5292945000110194,465.51088079996407,zu11,465.51088079996407,None,460.13020469993353,462.1447198999813,False,4.0,['p'],True,0.21875,0.25,0.125,1.0,1.0,0.7908280489481783,0.0034652103126096,wait_cost,0.0,3.0,462.1447198999813,None,zu11,2,2023-03-28_11h25.37.494,threat_forest,2021.2.3,61.11169506622157,False,61.0,0.325,0.3375,-1.354375,-1.4421875000000002,0,0,0,0.9279404101019072,0.0034652103126096,0.21875,0.21875,0.25,0.875,-1.625,-1.46875,2.53125,2.53125,1.0,1.0,-1.0,4.0,0,0,0
12.0,0.0,12.0,0.0,2.0,0.0,2.0,0.0,,,,right,1.9858953999355435,471.9192926000105,zu11,471.9192926000105,None,460.13020469993353,462.1447198999813,False,3.0,['p'],True,0.21875,0.25,0.125,1.0,1.0,0.7908280489481783,0.0066109222335767,wait_cost,0.0,2.0,470.0872869999148,None,zu11,2,2023-03-28_11h25.37.494,threat_forest,2021.2.3,61.11169506622157,False,61.0,0.325,0.3375,-1.354375,-1.4421875000000002,0,0,0,0.6860698955227147,0.0066109222335767,0.21875,0.21875,0.25,0.875,-1.625,-1.46875,1.53125,1.53125,1.0,1.0,-1.0,3.0,0,0,0
12.0,0.0,12.0,0.0,3.0,0.0,3.0,0.0,,,,left,1.8594686000142249,478.0302458999213,zu11,478.0302458999213,None,460.13020469993353,462.1447198999813,True,2.0,['p'],True,0.21875,0.25,0.125,1.0,1.0,0.7908280489481783,-0.0079824741210937,succ_gain,0.0,3.0,475.94887809990905,None,zu11,2,2023-03-28_11h25.37.494,threat_forest,2021.2.3,61.11169506622157,True,61.0,0.325,0.3375,-1.354375,-1.4421875000000002,0,0,1,0.620290747988316,-0.0079824741210937,0.21875,0.21875,0.25,0.875,-1.625,-1.46875,0.53125,0.53125,1.0,1.0,-1.0,2.0,0,0,0
12.0,0.0,12.0,0.0,4.0,0.0,4.0,0.0,,,,right,1.6670778000261637,483.52495320001617,zu11,479.9121885999338,481.92625219991896,483.52495320001617,None,True,3.0,['p'],False,0.32,0.4,0.2,1.0,1.0,0.9455672104350704,0.06341559375,fight_cost,1.0,0.0,481.92625219991896,None,zu11,2,2023-03-28_11h25.37.494,threat_forest,2021.2.3,61.11169506622157,True,61.0,0.325,0.3375,-1.354375,-1.4421875000000002,1,0,1,0.5110722733611764,0.06341559375,0.32,0.32,0.4,0.8,-1.4,-1.24,1.76,1.76,0.0,1.0,1.0,3.0,0,0,1
13.0,0.0,13.0,0.0,0.0,0.0,0.0,0.0,489.0124572999776,492.5159410999622,None,left,1.9219781999709085,493.8175575999776,zu11,493.8175575999776,None,489.0124572999776,492.5159410999622,True,4.0,['p'],True,0.2592592592592592,0.3333333333333333,0.2222222222222222,2.0,2.0,0.9327883776363324,0.0060894858457368,unsucc_cost,0.0,2.0,,,zu11,2,2023-03-28_11h25.37.494,threat_forest,2021.2.3,61.11169506622157,True,31.0,0.41666666666666663,0.37083333333333335,-0.9675925925925928,-1.1609837962962963,0,0,1,0.6533549681169226,0.0060894858457368,0.2592592592592592,0.2592592592592592,0.3333333333333333,0.7777777777777778,-1.3333333333333335,-1.1851851851851856,2.8148148148148144,2.8148148148148144,1.0,2.0,-1.0,4.0,0,0,0
13.0,0.0,13.0,0.0,1.0,0.0,1.0,0.0,,,,left,1.558412800077349,499.9265257999068,zu11,499.9265257999068,None,489.0124572999776,492.5159410999622,True,2.0,['p'],True,0.2592592592592592,0.3333333333333333,0.2222222222222222,2.0,2.0,0.9327883776363324,-0.0108699945248998,fight_cost,0.0,0.0,497.7781118999701,None,zu11,2,2023-03-28_11h25.37.494,threat_forest,2021.2.3,61.11169506622157,True,31.0,0.41666666666666663,0.37083333333333335,-0.9675925925925928,-1.1609837962962963,0,0,1,0.4436678674743971,-0.0108699945248998,0.2592592592592592,0.2592592592592592,0.3333333333333333,0.7777777777777778,-1.3333333333333335,-1.1851851851851856,0.8148148148148144,0.8148148148148144,1.0,2.0,-1.0,2.0,0,0,0
14.0,0.0,14.0,0.0,0.0,0.0,0.0,0.0,505.0325988999102,508.53667659999337,None,right,2.021360000013374,509.7871401999146,zu11,509.7871401999146,None,505.0325988999102,508.53667659999337,False,5.0,['r'],True,0.2,0.2,0.0,0.0,1.0,0.4554859150035951,-0.0133483179397582,wait_cost,0.0,4.0,,,zu11,2,2023-03-28_11h25.37.494,threat_forest,2021.2.3,61.11169506622157,False,50.0,0.35,0.3833333333333333,-1.2625000000000002,-1.1150462962962964,0,0,0,0.7037705522036926,-0.0133483179397582,0.2,0.2,0.2,1.0,-1.4000000000000001,-1.4000000000000001,3.5999999999999996,3.5999999999999996,1.0,1.0,-1.0,5.0,0,0,0
14.0,0.0,14.0,0.0,1.0,0.0,1.0,0.0,,,,right,1.518954300088808,516.1446365999291,zu11,511.8321145999944,513.8465067999205,516.1446365999291,None,True,4.0,['r'],False,0.375,0.5,0.25,1.0,1.0,0.9850568223215076,0.0537241477966309,succ_gain,1.0,5.0,513.8465067999205,None,zu11,2,2023-03-28_11h25.37.494,threat_forest,2021.2.3,61.11169506622157,True,50.0,0.35,0.3833333333333333,-1.2625000000000002,-1.1150462962962964,0,0,1,0.41802213763690194,0.0537241477966309,0.375,0.375,0.5,0.75,-1.25,-1.125,2.875,2.875,0.0,1.0,-1.0,4.0,0,0,0
14.0,0.0,14.0,0.0,2.0,0.0,2.0,0.0,,,,right,1.2489011000143364,520.4593861999456,zu11,520.4593861999456,None,517.6932234999258,519.7076140999561,False,5.0,['r'],True,0.2,0.2,0.0,0.0,1.0,0.4554859150035951,-0.0514854736328124,wait_cost,0.0,4.0,519.7076140999561,None,zu11,2,2023-03-28_11h25.37.494,threat_forest,2021.2.3,61.11169506622157,False,50.0,0.35,0.3833333333333333,-1.2625000000000002,-1.1150462962962964,0,0,0,0.2222640446730758,-0.0514854736328124,0.2,0.2,0.2,1.0,-1.4000000000000001,-1.4000000000000001,3.5999999999999996,3.5999999999999996,1.0,1.0,1.0,5.0,0,0,0
14.0,0.0,14.0,0.0,3.0,0.0,3.0,0.0,,,,right,1.3934224999975413,525.2872367999516,zu11,521.739590400015,523.7538645999739,525.2872367999516,None,True,4.0,['r'],False,0.375,0.5,0.25,1.0,1.0,0.9850568223215076,0.0777746582031249,fight_cost,1.0,1.0,523.7538645999739,None,zu11,2,2023-03-28_11h25.37.494,threat_forest,2021.2.3,61.11169506622157,True,50.0,0.35,0.3833333333333333,-1.2625000000000002,-1.1150462962962964,0,0,1,0.3317629510344953,0.0777746582031249,0.375,0.375,0.5,0.75,-1.25,-1.125,2.875,2.875,0.0,1.0,-1.0,4.0,0,0,0
14.0,0.0,14.0,0.0,4.0,0.0,4.0,0.0,,,,left,0.7486462000524625,530.2328083999455,zu11,530.2328083999455,None,526.7014326999197,528.7158993999474,True,1.0,['r'],True,0.2,0.2,0.0,0.0,1.0,0.4554859150035951,0.0662499999999999,unsucc_cost,0.0,0.0,528.7158993999474,None,zu11,2,2023-03-28_11h25.37.494,threat_forest,2021.2.3,61.11169506622157,True,50.0,0.35,0.3833333333333333,-1.2625000000000002,-1.1150462962962964,0,0,1,-0.2894887701443268,0.0662499999999999,1.0,0.2,0.2,1.0,-1.4000000000000001,-1.4000000000000001,-0.40000000000000013,0.0,1.0,1.0,-1.0,1.0,1,0,0
15.0,0.0,15.0,0.0,0.0,0.0,0.0,0.0,535.8139667999931,539.3226615999592,None,left,1.6886587999761105,540.3387195999967,zu11,535.8139667999931,539.3226615999592,540.3387195999967,None,False,5.0,['p'],False,0.3333333333333333,0.3333333333333333,0.0,0.0,2.0,0.5793801642856949,0.0435920879685414,wait_cost,1.0,4.0,,,zu11,2,2023-03-28_11h25.37.494,threat_forest,2021.2.3,61.11169506622157,False,46.0,0.3666666666666667,0.35833333333333334,-1.0533333333333335,-1.157916666666667,1,0,0,0.5239346043786774,0.0435920879685414,0.3333333333333333,0.3333333333333333,0.3333333333333333,1.0,-0.6666666666666669,-0.6666666666666669,4.333333333333333,4.333333333333333,0.0,2.0,-1.0,5.0,0,0,1
15.0,0.0,15.0,0.0,1.0,0.0,1.0,0.0,,,,right,1.5523686000378802,547.0323975000065,zu11,535.8139667999931,539.3226615999592,547.0323975000065,None,True,4.0,['p'],False,0.3333333333333333,0.3333333333333333,0.0,0.0,2.0,0.5793801642856949,0.0728093491358023,succ_gain,1.0,6.0,544.068273599958,None,zu11,2,2023-03-28_11h25.37.494,threat_forest,2021.2.3,61.11169506622157,True,46.0,0.3666666666666667,0.35833333333333334,-1.0533333333333335,-1.157916666666667,1,0,1,0.4397818935867683,0.0728093491358023,0.3333333333333333,0.3333333333333333,0.3333333333333333,1.0,-0.6666666666666669,-0.6666666666666669,3.333333333333333,3.333333333333333,0.0,2.0,-1.0,4.0,0,0,1
15.0,0.0,15.0,0.0,2.0,0.0,2.0,0.0,,,,left,0.5705529999686405,554.3589083999395,zu11,535.8139667999931,539.3226615999592,554.3589083999395,None,False,6.0,['p'],False,0.3333333333333333,0.3333333333333333,0.0,0.0,2.0,0.5793801642856949,0.0865786666666665,wait_cost,1.0,5.0,550.6287870999658,None,zu11,2,2023-03-28_11h25.37.494,threat_forest,2021.2.3,61.11169506622157,False,46.0,0.3666666666666667,0.35833333333333334,-1.0533333333333335,-1.157916666666667,1,0,0,-0.5611492130859308,0.0865786666666665,0.3333333333333333,0.3333333333333333,0.3333333333333333,1.0,-0.6666666666666669,-0.6666666666666669,5.333333333333333,5.333333333333333,0.0,2.0,1.0,6.0,0,0,1
15.0,0.0,15.0,0.0,3.0,0.0,3.0,0.0,,,,left,0.933425800059922,558.6382276999066,zu11,535.8139667999931,539.3226615999592,558.6382276999066,None,False,5.0,['p'],False,0.3333333333333333,0.3333333333333333,0.0,0.0,2.0,0.5793801642856949,0.1194148148148148,wait_cost,1.0,4.0,556.9729710000101,None,zu11,2,2023-03-28_11h25.37.494,threat_forest,2021.2.3,61.11169506622157,False,46.0,0.3666666666666667,0.35833333333333334,-1.0533333333333335,-1.157916666666667,1,0,0,-0.06889380490143407,0.1194148148148148,0.3333333333333333,0.3333333333333333,0.3333333333333333,1.0,-0.6666666666666669,-0.6666666666666669,4.333333333333333,4.333333333333333,0.0,2.0,-1.0,5.0,0,0,1
15.0,0.0,15.0,0.0,4.0,0.0,4.0,0.0,,,,right,1.3989656999474391,562.5178739000112,zu11,535.8139667999931,539.3226615999592,562.5178739000112,None,True,4.0,['p'],False,0.3333333333333333,0.3333333333333333,0.0,0.0,2.0,0.5793801642856949,0.1061777777777778,unsucc_cost,1.0,2.0,561.61896230001,None,zu11,2,2023-03-28_11h25.37.494,threat_forest,2021.2.3,61.11169506622157,True,46.0,0.3666666666666667,0.35833333333333334,-1.0533333333333335,-1.157916666666667,1,0,1,0.33573317783270484,0.1061777777777778,0.3333333333333333,0.3333333333333333,0.3333333333333333,1.0,-0.6666666666666669,-0.6666666666666669,3.333333333333333,3.333333333333333,0.0,2.0,-1.0,4.0,0,0,1
15.0,0.0,15.0,0.0,5.0,0.0,5.0,0.0,,,,right,0.9094291999936104,567.3801120999269,zu11,535.8139667999931,539.3226615999592,567.3801120999269,None,True,2.0,['p'],False,0.3333333333333333,0.3333333333333333,0.0,0.0,2.0,0.5793801642856949,0.0466666666666666,succ_gain,1.0,4.0,565.9485408000182,None,zu11,2,2023-03-28_11h25.37.494,threat_forest,2021.2.3,61.11169506622157,True,46.0,0.3666666666666667,0.35833333333333334,-1.0533333333333335,-1.157916666666667,1,0,1,-0.09493812903082659,0.0466666666666666,0.3333333333333333,0.3333333333333333,0.3333333333333333,1.0,-0.6666666666666669,-0.6666666666666669,1.333333333333333,1.333333333333333,0.0,2.0,-1.0,2.0,0,0,1
