miniblock.thisRepN,miniblock.thisTrialN,miniblock.thisN,miniblock.thisIndex,day.thisRepN,day.thisTrialN,day.thisN,day.thisIndex,welcoming.started,welcoming.stopped,key_resp_2.keys,key_resp_2.rt,key_resp_2.started,key_resp_2.stopped,forest.started,fixation_forest.started,fixation_forest.stopped,key_resp.keys,key_resp.rt,key_resp.started,Subject_ID,weather_left.started,weather_left.stopped,weather_right.started,weather_right.stopped,foraging T/F,in_LP,p/r heuristic,good_weather.T/F,p_succ_correct,p_succ_uncorrected,r_threat,n_oponents,gain_if_succ,weather_entropy,OP_value_difference,action_outcome,forest_side_L=0_R=1,out_LP,fixation_day.started,fixation_day.stopped,n_day-1.out_LP.,participant,session,date,expName,psychopyVersion,frameRate,
,,,,,,,,16.931462499996996,None,space,3.266314499996952,16.931462499996996,None,,,,,,,,,,,,,,,,,,,,,,,,,,,,,rn14,3,2023-03-30_11h45.20.502,threat_forest,2021.2.3,60.22032207244942,
0,0,0,0,0,0,0,0,,,,,,,20.266219199998886,23.775489599996945,None,right,1.028294999996433,27.41914800000086,rn14,20.266219199998886,23.775489599996945,27.41914800000086,None,True,4,['p'],False,0.36,0.6,0.4,2.0,1.0,0.9801625908629508,0.0,succ_gain,1,5,,,,rn14,3,2023-03-30_11h45.20.502,threat_forest,2021.2.3,60.22032207244942,
0,0,0,0,1,0,1,0,,,,,,,,,,right,0.7137859999929788,32.051813300000504,rn14,20.266219199998886,23.775489599996945,32.051813300000504,None,True,5,['p'],False,0.36,0.6,0.4,2.0,1.0,0.9801625908629508,0.0,succ_gain,1,6,30.485921499988763,None,5,rn14,3,2023-03-30_11h45.20.502,threat_forest,2021.2.3,60.22032207244942,
0,0,0,0,2,0,2,0,,,,,,,,,,right,0.7863484999979846,36.168413799998234,rn14,36.168413799998234,None,32.78411769999366,34.79880740000226,False,6,['p'],True,0.5,0.5,0.0,0.0,1.0,0.6309297535714574,0.0,wait_cost,0,5,34.79880740000226,None,6,rn14,3,2023-03-30_11h45.20.502,threat_forest,2021.2.3,60.22032207244942,
0,0,0,0,3,0,3,0,,,,,,,,,,right,0.6880445000133477,40.66135619999841,rn14,36.980210399997304,38.99456979999377,40.66135619999841,None,True,5,['p'],False,0.36,0.6,0.4,2.0,1.0,0.9801625908629508,0.0,unsucc_cost,1,3,38.99456979999377,None,5,rn14,3,2023-03-30_11h45.20.502,threat_forest,2021.2.3,60.22032207244942,
0,0,0,0,4,0,4,0,,,,,,,,,,right,1.3723265000007814,47.004087599998456,rn14,47.004087599998456,None,41.375997399998596,43.39058569999179,False,3,['p'],True,0.5,0.5,0.0,0.0,1.0,0.6309297535714574,0.0,wait_cost,0,2,43.39058569999179,None,3,rn14,3,2023-03-30_11h45.20.502,threat_forest,2021.2.3,60.22032207244942,
0,0,0,0,5,0,5,0,,,,,,,,,,left,1.2676080000092043,52.0661007000017,rn14,52.0661007000017,None,41.375997399998596,43.39058569999179,True,2,['p'],True,0.5,0.5,0.0,0.0,1.0,0.6309297535714574,-0.5,fight_cost,0,0,50.41741689998889,None,2,rn14,3,2023-03-30_11h45.20.502,threat_forest,2021.2.3,60.22032207244942,
0,0,0,0,,,,,,,,,,,,,,,,,,,,,,,,,,,,,,,,,,,,55.38320539999404,None,0,rn14,3,2023-03-30_11h45.20.502,threat_forest,2021.2.3,60.22032207244942,
1,0,1,0,0,0,0,0,,,,,,,57.80970069998875,61.30708449998929,None,left,1.6129901000094833,64.40739300000132,rn14,57.80970069998875,61.30708449998929,64.40739300000132,None,False,5,['r'],False,0.1975308641975308,0.2222222222222222,0.1111111111111111,1.0,2.0,0.7461067557824965,0.0,wait_cost,1,4,,,,rn14,3,2023-03-30_11h45.20.502,threat_forest,2021.2.3,60.22032207244942,
1,0,1,0,1,0,1,0,,,,,,,,,,left,0.745974200006458,69.78293439999106,rn14,69.78293439999106,None,66.05309839999245,68.06745649999357,True,4,['r'],True,0.32,0.4,0.2,1.0,2.0,0.9455672104350704,0.0,unsucc_cost,0,2,68.06745649999357,None,4,rn14,3,2023-03-30_11h45.20.502,threat_forest,2021.2.3,60.22032207244942,
1,0,1,0,2,0,2,0,,,,,,,,,,right,1.4293168000003789,75.27878889998829,rn14,70.54885259999719,72.5633308999968,75.27878889998829,None,True,2,['r'],False,0.1975308641975308,0.2222222222222222,0.1111111111111111,1.0,2.0,0.7461067557824965,-0.8024691358024691,unsucc_cost,1,0,72.5633308999968,None,2,rn14,3,2023-03-30_11h45.20.502,threat_forest,2021.2.3,60.22032207244942,
1,0,1,0,,,,,,,,,,,,,,,,,,,,,,,,,,,,,,,,,,,,78.74098849999427,None,0,rn14,3,2023-03-30_11h45.20.502,threat_forest,2021.2.3,60.22032207244942,
2,0,2,0,0,0,0,0,,,,,,,81.60881479999807,85.11821190000046,None,right,0.8561236999958055,87.66638959999545,rn14,81.60881479999807,85.11821190000046,87.66638959999545,None,True,5,['r'],False,0.25,0.5,0.5,2.0,1.0,0.9463946303571862,0.0,unsucc_cost,1,3,,,,rn14,3,2023-03-30_11h45.20.502,threat_forest,2021.2.3,60.22032207244942,
2,0,2,0,1,0,1,0,,,,,,,,,,right,1.1237229000107618,91.71269519999623,rn14,81.60881479999807,85.11821190000046,91.71269519999623,None,True,3,['r'],False,0.25,0.5,0.5,2.0,1.0,0.9463946303571862,-0.5,unsucc_cost,1,1,90.56320899999992,None,3,rn14,3,2023-03-30_11h45.20.502,threat_forest,2021.2.3,60.22032207244942,
2,0,2,0,2,0,2,0,,,,,,,,,,right,0.5586715999961598,97.77362539999012,rn14,81.60881479999807,85.11821190000046,97.77362539999012,None,True,1,['r'],False,0.25,0.5,0.5,2.0,1.0,0.9463946303571862,0.25,succ_gain,1,2,94.87578469999426,None,1,rn14,3,2023-03-30_11h45.20.502,threat_forest,2021.2.3,60.22032207244942,
2,0,2,0,3,0,3,0,,,,,,,,,,left,2.3982000999967568,103.83481590000156,rn14,103.83481590000156,None,98.35606789999292,100.37060919999203,True,2,['r'],True,0.3333333333333333,0.3333333333333333,0.0,0.0,1.0,0.5793801642856949,-0.6666666666666667,succ_gain,0,3,100.37060919999203,None,2,rn14,3,2023-03-30_11h45.20.502,threat_forest,2021.2.3,60.22032207244942,
2,0,2,0,4,0,4,0,,,,,,,,,,left,1.455482799996389,109.82882969999628,rn14,106.26548039999034,108.28024729999015,109.82882969999628,None,False,3,['r'],False,0.25,0.5,0.5,2.0,1.0,0.9463946303571862,-0.5,wait_cost,1,2,108.28024729999015,None,3,rn14,3,2023-03-30_11h45.20.502,threat_forest,2021.2.3,60.22032207244942,
2,0,2,0,5,0,5,0,,,,,,,,,,right,0.7175453999952879,113.95821139999316,rn14,106.26548039999034,108.28024729999015,113.95821139999316,None,True,2,['r'],False,0.25,0.5,0.5,2.0,1.0,0.9463946303571862,-0.75,unsucc_cost,1,0,113.32525579999492,None,2,rn14,3,2023-03-30_11h45.20.502,threat_forest,2021.2.3,60.22032207244942,
2,0,2,0,,,,,,,,,,,,,,,,,,,,,,,,,,,,,,,,,,,,116.72214800000074,None,0,rn14,3,2023-03-30_11h45.20.502,threat_forest,2021.2.3,60.22032207244942,
3,0,3,0,0,0,0,0,,,,,,,118.76350059999095,122.26687779999338,None,right,0.8565394000033848,123.44979639998928,rn14,118.76350059999095,122.26687779999338,123.44979639998928,None,True,4,['r'],False,0.2,0.2,0.0,0.0,1.0,0.4554859150035951,0.0,unsucc_cost,1,2,,,,rn14,3,2023-03-30_11h45.20.502,threat_forest,2021.2.3,60.22032207244942,
3,0,3,0,1,0,1,0,,,,,,,,,,right,0.8282782999885967,129.7270814999938,rn14,118.76350059999095,122.26687779999338,129.7270814999938,None,True,2,['r'],False,0.2,0.2,0.0,0.0,1.0,0.4554859150035951,-0.8,unsucc_cost,1,0,126.34630350000225,None,2,rn14,3,2023-03-30_11h45.20.502,threat_forest,2021.2.3,60.22032207244942,
3,0,3,0,,,,,,,,,,,,,,,,,,,,,,,,,,,,,,,,,,,,132.59069440000167,None,0,rn14,3,2023-03-30_11h45.20.502,threat_forest,2021.2.3,60.22032207244942,
4,0,4,0,0,0,0,0,,,,,,,134.96406769999885,138.46841839999252,None,right,1.004900700005237,140.85194239999691,rn14,134.96406769999885,138.46841839999252,140.85194239999691,None,True,5,['p'],False,0.4081632653061224,0.5714285714285714,0.2857142857142857,2.0,1.0,0.9885754083994552,0.0,succ_gain,1,6,,,,rn14,3,2023-03-30_11h45.20.502,threat_forest,2021.2.3,60.22032207244942,
4,0,4,0,1,0,1,0,,,,,,,,,,left,0.5741910000069765,145.06296440000006,rn14,134.96406769999885,138.46841839999252,145.06296440000006,None,False,6,['p'],False,0.4081632653061224,0.5714285714285714,0.2857142857142857,2.0,1.0,0.9885754083994552,0.0,wait_cost,1,5,143.8966386999964,None,6,rn14,3,2023-03-30_11h45.20.502,threat_forest,2021.2.3,60.22032207244942,
4,0,4,0,2,0,2,0,,,,,,,,,,right,0.8051315000047907,148.24323839999852,rn14,134.96406769999885,138.46841839999252,148.24323839999852,None,True,5,['p'],False,0.4081632653061224,0.5714285714285714,0.2857142857142857,2.0,1.0,0.9885754083994552,0.0,succ_gain,1,6,147.6764051999926,None,5,rn14,3,2023-03-30_11h45.20.502,threat_forest,2021.2.3,60.22032207244942,
4,0,4,0,3,0,3,0,,,,,,,,,,right,0.7649632999964524,153.7044603999966,rn14,153.7044603999966,None,149.07778639999742,151.08996519999346,False,6,['p'],True,0.5,0.5,0.0,0.0,1.0,0.6309297535714574,0.0,wait_cost,0,5,151.08996519999346,None,6,rn14,3,2023-03-30_11h45.20.502,threat_forest,2021.2.3,60.22032207244942,
4,0,4,0,4,0,4,0,,,,,,,,,,left,0.4619002000108594,158.15178919999744,rn14,154.48708589999296,156.50147629999265,158.15178919999744,None,False,5,['p'],False,0.4081632653061224,0.5714285714285714,0.2857142857142857,2.0,1.0,0.9885754083994552,0.0,wait_cost,1,4,156.50147629999265,None,5,rn14,3,2023-03-30_11h45.20.502,threat_forest,2021.2.3,60.22032207244942,
4,0,4,0,5,0,5,0,,,,,,,,,,left,0.4851751999958651,163.04584599999362,rn14,154.48708589999296,156.50147629999265,163.04584599999362,None,False,4,['p'],False,0.4081632653061224,0.5714285714285714,0.2857142857142857,2.0,1.0,0.9885754083994552,0.0,wait_cost,1,3,160.64765579999948,None,4,rn14,3,2023-03-30_11h45.20.502,threat_forest,2021.2.3,60.22032207244942,
4,0,4,0,6,0,6,0,,,,,,,,,,left,0.7064355999900727,168.09108939999714,rn14,154.48708589999296,156.50147629999265,168.09108939999714,None,False,3,['p'],False,0.4081632653061224,0.5714285714285714,0.2857142857142857,2.0,1.0,0.9885754083994552,-0.2857142857142857,wait_cost,1,2,165.5764000999916,None,3,rn14,3,2023-03-30_11h45.20.502,threat_forest,2021.2.3,60.22032207244942,
4,0,4,0,7,0,7,0,,,,,,,,,,right,0.5237019000051077,172.5537275999959,rn14,172.5537275999959,None,168.82363089999126,170.8380771999946,False,2,['p'],True,0.5,0.5,0.0,0.0,1.0,0.6309297535714574,-0.5,wait_cost,0,1,170.8380771999946,None,2,rn14,3,2023-03-30_11h45.20.502,threat_forest,2021.2.3,60.22032207244942,
4,0,4,0,,,,,,,,,,,,,,,,,,,,,,,,,,,,,,,,,,,,175.1174680999975,None,1,rn14,3,2023-03-30_11h45.20.502,threat_forest,2021.2.3,60.22032207244942,
5,0,5,0,0,0,0,0,,,,,,,176.14181799998914,179.6465068999969,None,right,1.4143702000001213,181.4969526999921,rn14,176.14181799998914,179.6465068999969,181.4969526999921,None,True,4,['p'],False,0.4081632653061224,0.5714285714285714,0.2857142857142857,2.0,2.0,0.9885754083994552,0.0,succ_gain,1,6,,,,rn14,3,2023-03-30_11h45.20.502,threat_forest,2021.2.3,60.22032207244942,
5,0,5,0,1,0,1,0,,,,,,,,,,left,0.834703400003491,187.18994719999318,rn14,176.14181799998914,179.6465068999969,187.18994719999318,None,False,6,['p'],False,0.4081632653061224,0.5714285714285714,0.2857142857142857,2.0,2.0,0.9885754083994552,0.0,wait_cost,1,5,184.95828989999427,None,6,rn14,3,2023-03-30_11h45.20.502,threat_forest,2021.2.3,60.22032207244942,
5,0,5,0,2,0,2,0,,,,,,,,,,left,0.9580762000114191,191.26938369999698,rn14,191.26938369999698,None,188.0558008999942,190.07022460000007,True,5,['p'],True,0.5,0.5,0.0,0.0,2.0,0.6309297535714574,0.0,succ_gain,0,6,190.07022460000007,None,5,rn14,3,2023-03-30_11h45.20.502,threat_forest,2021.2.3,60.22032207244942,
5,0,5,0,3,0,3,0,,,,,,,,,,left,0.5452923999982886,195.56727829999,rn14,192.25191489999997,194.26626499999838,195.56727829999,None,False,6,['p'],False,0.4081632653061224,0.5714285714285714,0.2857142857142857,2.0,2.0,0.9885754083994552,0.0,wait_cost,1,5,194.26626499999838,None,6,rn14,3,2023-03-30_11h45.20.502,threat_forest,2021.2.3,60.22032207244942,
5,0,5,0,4,0,4,0,,,,,,,,,,left,0.7080943999899318,201.7932531999977,rn14,192.25191489999997,194.26626499999838,201.7932531999977,None,False,5,['p'],False,0.4081632653061224,0.5714285714285714,0.2857142857142857,2.0,2.0,0.9885754083994552,0.0,wait_cost,1,4,198.1459230999899,None,5,rn14,3,2023-03-30_11h45.20.502,threat_forest,2021.2.3,60.22032207244942,
5,0,5,0,5,0,5,0,,,,,,,,,,left,0.5726710000017192,206.5717680999951,rn14,192.25191489999997,194.26626499999838,206.5717680999951,None,False,4,['p'],False,0.4081632653061224,0.5714285714285714,0.2857142857142857,2.0,2.0,0.9885754083994552,0.0,wait_cost,1,3,204.53998299999512,None,4,rn14,3,2023-03-30_11h45.20.502,threat_forest,2021.2.3,60.22032207244942,
5,0,5,0,6,0,6,0,,,,,,,,,,left,0.5633216999995057,211.23444089999248,rn14,192.25191489999997,194.26626499999838,211.23444089999248,None,False,3,['p'],False,0.4081632653061224,0.5714285714285714,0.2857142857142857,2.0,2.0,0.9885754083994552,-0.2857142857142857,wait_cost,1,2,209.18554849999782,None,3,rn14,3,2023-03-30_11h45.20.502,threat_forest,2021.2.3,60.22032207244942,
5,0,5,0,7,0,7,0,,,,,,,,,,right,0.45962449999933597,215.5133891000005,rn14,215.5133891000005,None,211.81687650000094,213.8313075999904,False,2,['p'],True,0.5,0.5,0.0,0.0,2.0,0.6309297535714574,-0.5,wait_cost,0,1,213.8313075999904,None,2,rn14,3,2023-03-30_11h45.20.502,threat_forest,2021.2.3,60.22032207244942,
5,0,5,0,,,,,,,,,,,,,,,,,,,,,,,,,,,,,,,,,,,,218.01081479999993,None,1,rn14,3,2023-03-30_11h45.20.502,threat_forest,2021.2.3,60.22032207244942,
6,0,6,0,0,0,0,0,,,,,,,218.66768839998986,222.17347949999385,None,right,1.2943123000004562,224.47300669999095,rn14,218.66768839998986,222.17347949999385,224.47300669999095,None,True,4,['p'],False,0.4081632653061224,0.5714285714285714,0.2857142857142857,2.0,2.0,0.9885754083994552,0.0,fight_cost,1,1,,,,rn14,3,2023-03-30_11h45.20.502,threat_forest,2021.2.3,60.22032207244942,
6,0,6,0,1,0,1,0,,,,,,,,,,left,0.6437960000039311,230.54964939999627,rn14,230.54964939999627,None,225.787133299993,227.80147409999336,True,1,['p'],True,0.5,0.5,0.0,0.0,2.0,0.6309297535714574,0.5,unsucc_cost,0,0,227.80147409999336,None,1,rn14,3,2023-03-30_11h45.20.502,threat_forest,2021.2.3,60.22032207244942,
6,0,6,0,,,,,,,,,,,,,,,,,,,,,,,,,,,,,,,,,,,,233.22986510000192,None,0,rn14,3,2023-03-30_11h45.20.502,threat_forest,2021.2.3,60.22032207244942,
7,0,7,0,0,0,0,0,,,,,,,236.56361739999556,240.07344659999944,None,right,0.5736289000051329,243.38735439999436,rn14,236.56361739999556,240.07344659999944,243.38735439999436,None,True,4,['p'],False,0.2222222222222222,0.6666666666666666,0.6666666666666666,2.0,2.0,0.77250688571426,0.0,unsucc_cost,1,2,,,,rn14,3,2023-03-30_11h45.20.502,threat_forest,2021.2.3,60.22032207244942,
7,0,7,0,1,0,1,0,,,,,,,,,,right,0.7307704000122612,247.93328099999053,rn14,236.56361739999556,240.07344659999944,247.93328099999053,None,True,2,['p'],False,0.2222222222222222,0.6666666666666666,0.6666666666666666,2.0,2.0,0.77250688571426,-0.7777777777777778,unsucc_cost,1,0,246.00124509999296,None,2,rn14,3,2023-03-30_11h45.20.502,threat_forest,2021.2.3,60.22032207244942,
7,0,7,0,,,,,,,,,,,,,,,,,,,,,,,,,,,,,,,,,,,,250.69685159999062,None,0,rn14,3,2023-03-30_11h45.20.502,threat_forest,2021.2.3,60.22032207244942,
8,0,8,0,0,0,0,0,,,,,,,252.241400599989,255.7420495999977,None,right,0.7870200000033947,257.4575230999908,rn14,252.241400599989,255.7420495999977,257.4575230999908,None,True,4,['r'],False,0.21875,0.25,0.125,1.0,1.0,0.7908280489481783,0.0,unsucc_cost,1,2,,,,rn14,3,2023-03-30_11h45.20.502,threat_forest,2021.2.3,60.22032207244942,
8,0,8,0,1,0,1,0,,,,,,,,,,right,0.6065116999961901,261.1540057999955,rn14,252.241400599989,255.7420495999977,261.1540057999955,None,True,2,['r'],False,0.21875,0.25,0.125,1.0,1.0,0.7908280489481783,-0.78125,fight_cost,1,0,260.28782579999825,None,2,rn14,3,2023-03-30_11h45.20.502,threat_forest,2021.2.3,60.22032207244942,
8,0,8,0,,,,,,,,,,,,,,,,,,,,,,,,,,,,,,,,,,,,263.80129899999883,None,0,rn14,3,2023-03-30_11h45.20.502,threat_forest,2021.2.3,60.22032207244942,
9,0,9,0,0,0,0,0,,,,,,,265.6784304999892,269.1692886999954,None,right,0.7233905000030063,269.8295865999971,rn14,265.6784304999892,269.1692886999954,269.8295865999971,None,True,5,['p'],False,0.46875,0.625,0.25,2.0,2.0,0.9634951148421658,0.0,unsucc_cost,1,3,,,,rn14,3,2023-03-30_11h45.20.502,threat_forest,2021.2.3,60.22032207244942,
9,0,9,0,1,0,1,0,,,,,,,,,,right,0.8974659999948926,275.1414526000008,rn14,265.6784304999892,269.1692886999954,275.1414526000008,None,True,3,['p'],False,0.46875,0.625,0.25,2.0,2.0,0.9634951148421658,-0.25,succ_gain,1,5,272.5930451999884,None,3,rn14,3,2023-03-30_11h45.20.502,threat_forest,2021.2.3,60.22032207244942,
9,0,9,0,2,0,2,0,,,,,,,,,,left,1.4189761000016006,280.6893628999969,rn14,280.6893628999969,None,276.05685809999704,278.0711919000023,True,5,['p'],True,0.5714285714285714,0.5714285714285714,0.0,0.0,2.0,0.6216097450797566,0.0,fight_cost,0,2,278.0711919000023,None,5,rn14,3,2023-03-30_11h45.20.502,threat_forest,2021.2.3,60.22032207244942,
9,0,9,0,3,0,3,0,,,,,,,,,,left,0.7158759000012651,284.8987177999952,rn14,284.8987177999952,None,276.05685809999704,278.0711919000023,True,2,['p'],True,0.5714285714285714,0.5714285714285714,0.0,0.0,2.0,0.6216097450797566,-0.4285714285714286,succ_gain,0,4,284.1489150999987,None,2,rn14,3,2023-03-30_11h45.20.502,threat_forest,2021.2.3,60.22032207244942,
9,0,9,0,4,0,4,0,,,,,,,,,,right,0.8294032999983756,289.52793219999876,rn14,289.52793219999876,None,276.05685809999704,278.0711919000023,False,4,['p'],True,0.5714285714285714,0.5714285714285714,0.0,0.0,2.0,0.6216097450797566,0.0,wait_cost,0,3,287.64554859999043,None,4,rn14,3,2023-03-30_11h45.20.502,threat_forest,2021.2.3,60.22032207244942,
9,0,9,0,5,0,5,0,,,,,,,,,,right,0.7968805999989854,293.2412192999909,rn14,290.37676829998964,292.3911733999994,293.2412192999909,None,True,3,['p'],False,0.46875,0.625,0.25,2.0,2.0,0.9634951148421658,-0.25,succ_gain,1,5,292.3911733999994,None,3,rn14,3,2023-03-30_11h45.20.502,threat_forest,2021.2.3,60.22032207244942,
9,0,9,0,6,0,6,0,,,,,,,,,,right,0.625976700001047,298.4392220000009,rn14,298.4392220000009,None,294.0565803999925,296.07144079999125,False,5,['p'],True,0.5714285714285714,0.5714285714285714,0.0,0.0,2.0,0.6216097450797566,0.0,wait_cost,0,4,296.07144079999125,None,5,rn14,3,2023-03-30_11h45.20.502,threat_forest,2021.2.3,60.22032207244942,
9,0,9,0,7,0,7,0,,,,,,,,,,left,0.6506988999899477,304.81314349999593,rn14,299.08522389999416,301.0996480999893,304.81314349999593,None,False,4,['p'],False,0.46875,0.625,0.25,2.0,2.0,0.9634951148421658,0.0,wait_cost,1,3,301.0996480999893,None,4,rn14,3,2023-03-30_11h45.20.502,threat_forest,2021.2.3,60.22032207244942,
9,0,9,0,,,,,,,,,,,,,,,,,,,,,,,,,,,,,,,,,,,,307.5103431999887,None,3,rn14,3,2023-03-30_11h45.20.502,threat_forest,2021.2.3,60.22032207244942,
10,0,10,0,0,0,0,0,,,,,,,309.7507360000018,313.25503429998935,None,left,1.5673913000064204,315.55698290000146,rn14,309.7507360000018,313.25503429998935,315.55698290000146,None,False,5,['r'],False,0.27,0.3,0.1,1.0,1.0,0.7963326591781347,0.0,wait_cost,1,4,,,,rn14,3,2023-03-30_11h45.20.502,threat_forest,2021.2.3,60.22032207244942,
10,0,10,0,1,0,1,0,,,,,,,,,,left,1.8885717999946792,321.46468549998826,rn14,309.7507360000018,313.25503429998935,321.46468549998826,None,False,4,['r'],False,0.27,0.3,0.1,1.0,1.0,0.7963326591781347,0.0,wait_cost,1,3,319.16608019999694,None,4,rn14,3,2023-03-30_11h45.20.502,threat_forest,2021.2.3,60.22032207244942,
10,0,10,0,2,0,2,0,,,,,,,,,,left,0.7329026999941561,326.02662269999564,rn14,326.02662269999564,None,323.37923559999035,325.393582699995,True,3,['r'],True,0.4444444444444445,0.6666666666666666,0.3333333333333333,1.0,1.0,0.9656336071428248,-0.3333333333333333,succ_gain,0,4,325.393582699995,None,3,rn14,3,2023-03-30_11h45.20.502,threat_forest,2021.2.3,60.22032207244942,
10,0,10,0,3,0,3,0,,,,,,,,,,left,0.7114536000008229,330.5561960999912,rn14,330.5561960999912,None,323.37923559999035,325.393582699995,True,4,['r'],True,0.4444444444444445,0.6666666666666666,0.3333333333333333,1.0,1.0,0.9656336071428248,0.0,fight_cost,0,1,328.79045499999484,None,4,rn14,3,2023-03-30_11h45.20.502,threat_forest,2021.2.3,60.22032207244942,
10,0,10,0,4,0,4,0,,,,,,,,,,right,0.4594518999947468,336.61809649999486,rn14,331.28841339999053,333.30297150000115,336.61809649999486,None,True,1,['r'],False,0.27,0.3,0.1,1.0,1.0,0.7963326591781347,0.27,unsucc_cost,1,0,333.30297150000115,None,1,rn14,3,2023-03-30_11h45.20.502,threat_forest,2021.2.3,60.22032207244942,
10,0,10,0,,,,,,,,,,,,,,,,,,,,,,,,,,,,,,,,,,,,339.11420240000007,None,0,rn14,3,2023-03-30_11h45.20.502,threat_forest,2021.2.3,60.22032207244942,
11,0,11,0,0,0,0,0,,,,,,,340.72075120000227,344.22602599998936,None,right,0.9570303000073181,344.7928743999946,rn14,340.72075120000227,344.22602599998936,344.7928743999946,None,True,5,['r'],False,0.2222222222222222,0.2222222222222222,0.0,0.0,2.0,0.4821593609696809,0.0,fight_cost,1,2,,,,rn14,3,2023-03-30_11h45.20.502,threat_forest,2021.2.3,60.22032207244942,
11,0,11,0,1,0,1,0,,,,,,,,,,right,1.118556699992041,349.50457269999606,rn14,340.72075120000227,344.22602599998936,349.50457269999606,None,True,2,['r'],False,0.2222222222222222,0.2222222222222222,0.0,0.0,2.0,0.4821593609696809,-0.7777777777777778,unsucc_cost,1,0,347.78930519999994,None,2,rn14,3,2023-03-30_11h45.20.502,threat_forest,2021.2.3,60.22032207244942,
11,0,11,0,,,,,,,,,,,,,,,,,,,,,,,,,,,,,,,,,,,,352.66819679999026,None,0,rn14,3,2023-03-30_11h45.20.502,threat_forest,2021.2.3,60.22032207244942,
12,0,12,0,0,0,0,0,,,,,,,356.05757509999967,359.5616399999999,None,left,1.1137622999958694,360.14607909999904,rn14,360.14607909999904,None,356.05757509999967,359.5616399999999,True,5,['r'],True,0.4444444444444445,0.6666666666666666,0.3333333333333333,1.0,2.0,0.9656336071428248,0.0,unsucc_cost,0,3,,,,rn14,3,2023-03-30_11h45.20.502,threat_forest,2021.2.3,60.22032207244942,
12,0,12,0,1,0,1,0,,,,,,,,,,right,0.8434848000033526,366.55558989998826,rn14,361.27709740000137,363.29145089999656,366.55558989998826,None,True,3,['r'],False,0.2448979591836734,0.2857142857142857,0.1428571428571428,1.0,2.0,0.8400769154957735,-0.1428571428571428,fight_cost,1,0,363.29145089999656,None,3,rn14,3,2023-03-30_11h45.20.502,threat_forest,2021.2.3,60.22032207244942,
12,0,12,0,,,,,,,,,,,,,,,,,,,,,,,,,,,,,,,,,,,,369.4358857999905,None,0,rn14,3,2023-03-30_11h45.20.502,threat_forest,2021.2.3,60.22032207244942,
13,0,13,0,0,0,0,0,,,,,,,370.50321019999683,374.01481709998916,None,right,1.4375037999998312,376.22996599999897,rn14,376.22996599999897,None,370.50321019999683,374.01481709998916,False,4,['r'],True,0.5,0.5,0.0,0.0,1.0,0.6309297535714574,0.0,wait_cost,0,3,,,,rn14,3,2023-03-30_11h45.20.502,threat_forest,2021.2.3,60.22032207244942,
13,0,13,0,1,0,1,0,,,,,,,,,,right,0.6983199999958742,382.24075929999526,rn14,377.6949503999931,379.70956399998977,382.24075929999526,None,True,3,['r'],False,0.2222222222222222,0.6666666666666666,0.6666666666666666,2.0,1.0,0.77250688571426,-0.6666666666666666,unsucc_cost,1,1,379.70956399998977,None,3,rn14,3,2023-03-30_11h45.20.502,threat_forest,2021.2.3,60.22032207244942,
13,0,13,0,2,0,2,0,,,,,,,,,,left,0.7344103999930667,387.43620640000154,rn14,387.43620640000154,None,382.9566477999906,384.97123289998854,True,1,['r'],True,0.5,0.5,0.0,0.0,1.0,0.6309297535714574,0.5,succ_gain,0,2,384.97123289998854,None,1,rn14,3,2023-03-30_11h45.20.502,threat_forest,2021.2.3,60.22032207244942,
13,0,13,0,3,0,3,0,,,,,,,,,,right,1.1434595000027912,392.3984056999907,rn14,392.3984056999907,None,382.9566477999906,384.97123289998854,False,2,['r'],True,0.5,0.5,0.0,0.0,1.0,0.6309297535714574,-0.5,wait_cost,0,1,390.216465599995,None,2,rn14,3,2023-03-30_11h45.20.502,threat_forest,2021.2.3,60.22032207244942,
13,0,13,0,4,0,4,0,,,,,,,,,,left,1.2258945999928983,398.02634070000204,rn14,398.02634070000204,None,382.9566477999906,384.97123289998854,True,1,['r'],True,0.5,0.5,0.0,0.0,1.0,0.6309297535714574,0.5,fight_cost,0,0,395.57800439999846,None,1,rn14,3,2023-03-30_11h45.20.502,threat_forest,2021.2.3,60.22032207244942,
13,0,13,0,,,,,,,,,,,,,,,,,,,,,,,,,,,,,,,,,,,,401.28978229999484,None,0,rn14,3,2023-03-30_11h45.20.502,threat_forest,2021.2.3,60.22032207244942,
14,0,14,0,0,0,0,0,,,,,,,402.8087574999954,406.3179450000025,None,left,1.1009931000007782,407.1679246999993,rn14,407.1679246999993,None,402.8087574999954,406.3179450000025,True,4,['r'],True,0.3333333333333333,0.3333333333333333,0.0,0.0,2.0,0.5793801642856949,0.0,succ_gain,0,6,,,,rn14,3,2023-03-30_11h45.20.502,threat_forest,2021.2.3,60.22032207244942,
14,0,14,0,1,0,1,0,,,,,,,,,,left,1.260305799994967,411.2137490999885,rn14,408.29985199999646,410.3143083999894,411.2137490999885,None,False,6,['r'],False,0.25,0.5,0.5,2.0,2.0,0.9463946303571862,0.0,wait_cost,1,5,410.3143083999894,None,6,rn14,3,2023-03-30_11h45.20.502,threat_forest,2021.2.3,60.22032207244942,
14,0,14,0,2,0,2,0,,,,,,,,,,right,1.7949904999986757,415.17666389999795,rn14,415.17666389999795,None,412.4958547999995,414.5103565999889,False,5,['r'],True,0.3333333333333333,0.3333333333333333,0.0,0.0,2.0,0.5793801642856949,0.0,wait_cost,0,4,414.5103565999889,None,5,rn14,3,2023-03-30_11h45.20.502,threat_forest,2021.2.3,60.22032207244942,
14,0,14,0,3,0,3,0,,,,,,,,,,right,0.6756642999971518,420.55494799998996,rn14,416.9916876999923,419.00617349999084,420.55494799998996,None,True,4,['r'],False,0.25,0.5,0.5,2.0,2.0,0.9463946303571862,0.0,succ_gain,1,6,419.00617349999084,None,4,rn14,3,2023-03-30_11h45.20.502,threat_forest,2021.2.3,60.22032207244942,
14,0,14,0,4,0,4,0,,,,,,,,,,left,0.6193220999994082,424.40137510000204,rn14,416.9916876999923,419.00617349999084,424.40137510000204,None,False,6,['r'],False,0.25,0.5,0.5,2.0,2.0,0.9463946303571862,0.0,wait_cost,1,5,423.26878109999234,None,6,rn14,3,2023-03-30_11h45.20.502,threat_forest,2021.2.3,60.22032207244942,
14,0,14,0,5,0,5,0,,,,,,,,,,right,0.8548879000009038,430.7290195999958,rn14,430.7290195999958,None,425.05074259999674,427.0652871999919,False,5,['r'],True,0.3333333333333333,0.3333333333333333,0.0,0.0,2.0,0.5793801642856949,0.0,wait_cost,0,4,427.0652871999919,None,5,rn14,3,2023-03-30_11h45.20.502,threat_forest,2021.2.3,60.22032207244942,
14,0,14,0,6,0,6,0,,,,,,,,,,left,0.4842369000107283,436.9395119999972,rn14,431.6112700999947,433.6258070999902,436.9395119999972,None,False,4,['r'],False,0.25,0.5,0.5,2.0,2.0,0.9463946303571862,0.0,wait_cost,1,3,433.6258070999902,None,4,rn14,3,2023-03-30_11h45.20.502,threat_forest,2021.2.3,60.22032207244942,
14,0,14,0,7,0,7,0,,,,,,,,,,left,0.42328919999999925,442.3516732999997,rn14,431.6112700999947,433.6258070999902,442.3516732999997,None,False,3,['r'],False,0.25,0.5,0.5,2.0,2.0,0.9463946303571862,-0.5,wait_cost,1,2,439.4703284999996,None,3,rn14,3,2023-03-30_11h45.20.502,threat_forest,2021.2.3,60.22032207244942,
14,0,14,0,,,,,,,,,,,,,,,,,,,,,,,,,,,,,,,,,,,,444.8155078999989,None,2,rn14,3,2023-03-30_11h45.20.502,threat_forest,2021.2.3,60.22032207244942,
15,0,15,0,0,0,0,0,,,,,,,446.3025187999883,449.81068969999615,None,right,1.0084307999932207,450.59389669999655,rn14,446.3025187999883,449.81068969999615,450.59389669999655,None,True,4,['r'],False,0.36,0.6,0.4,2.0,2.0,0.9801625908629508,0.0,fight_cost,1,1,,,,rn14,3,2023-03-30_11h45.20.502,threat_forest,2021.2.3,60.22032207244942,
15,0,15,0,1,0,1,0,,,,,,,,,,left,0.9072532999998657,455.87184039999556,rn14,455.87184039999556,None,451.6259626999963,453.6403796999948,True,1,['r'],True,0.5,0.5,0.0,0.0,2.0,0.6309297535714574,0.5,succ_gain,0,3,453.6403796999948,None,1,rn14,3,2023-03-30_11h45.20.502,threat_forest,2021.2.3,60.22032207244942,
15,0,15,0,2,0,2,0,,,,,,,,,,left,2.1900254000065615,462.24930830000085,rn14,456.80437929999607,458.8188608999917,462.24930830000085,None,False,3,['r'],False,0.36,0.6,0.4,2.0,2.0,0.9801625908629508,-0.4,wait_cost,1,2,458.8188608999917,None,3,rn14,3,2023-03-30_11h45.20.502,threat_forest,2021.2.3,60.22032207244942,
15,0,15,0,3,0,3,0,,,,,,,,,,left,0.8347421999933431,469.7089560999884,rn14,469.7089560999884,None,464.4639645999996,466.4783293999935,True,2,['r'],True,0.5,0.5,0.0,0.0,2.0,0.6309297535714574,-0.5,unsucc_cost,0,0,466.4783293999935,None,2,rn14,3,2023-03-30_11h45.20.502,threat_forest,2021.2.3,60.22032207244942,
15,0,15,0,,,,,,,,,,,,,,,,,,,,,,,,,,,,,,,,,,,,472.58940399999847,None,0,rn14,3,2023-03-30_11h45.20.502,threat_forest,2021.2.3,60.22032207244942,
16,0,16,0,0,0,0,0,,,,,,,475.1809221000003,478.68365579999227,None,right,0.7394230000063544,481.21520849999797,rn14,475.1809221000003,478.68365579999227,481.21520849999797,None,True,5,['p'],False,0.46875,0.625,0.25,2.0,2.0,0.9634951148421658,0.0,succ_gain,1,6,,,,rn14,3,2023-03-30_11h45.20.502,threat_forest,2021.2.3,60.22032207244942,
16,0,16,0,1,0,1,0,,,,,,,,,,right,0.8111863000085577,485.3984570999892,rn14,485.3984570999892,None,481.9808706999902,483.9953555999964,False,6,['p'],True,0.6,0.6,0.0,0.0,2.0,0.6126016192893442,0.0,wait_cost,0,5,483.9953555999964,None,6,rn14,3,2023-03-30_11h45.20.502,threat_forest,2021.2.3,60.22032207244942,
16,0,16,0,2,0,2,0,,,,,,,,,,left,0.9664121999958297,491.85521609999705,rn14,491.85521609999705,None,481.9808706999902,483.9953555999964,True,5,['p'],True,0.6,0.6,0.0,0.0,2.0,0.6126016192893442,0.0,succ_gain,0,6,488.2413624999899,None,5,rn14,3,2023-03-30_11h45.20.502,threat_forest,2021.2.3,60.22032207244942,
16,0,16,0,3,0,3,0,,,,,,,,,,left,1.3513383999961661,496.51744659998803,rn14,492.8541819999955,494.8686405999906,496.51744659998803,None,False,6,['p'],False,0.46875,0.625,0.25,2.0,2.0,0.9634951148421658,0.0,wait_cost,1,5,494.8686405999906,None,6,rn14,3,2023-03-30_11h45.20.502,threat_forest,2021.2.3,60.22032207244942,
16,0,16,0,4,0,4,0,,,,,,,,,,left,0.4312491000018781,502.7449212999927,rn14,492.8541819999955,494.8686405999906,502.7449212999927,None,False,5,['p'],False,0.46875,0.625,0.25,2.0,2.0,0.9634951148421658,0.0,wait_cost,1,4,499.9139243999962,None,5,rn14,3,2023-03-30_11h45.20.502,threat_forest,2021.2.3,60.22032207244942,
16,0,16,0,5,0,5,0,,,,,,,,,,right,0.6773845999996411,506.7767119999917,rn14,506.7767119999917,None,503.19446849999076,505.20892509999976,False,4,['p'],True,0.6,0.6,0.0,0.0,2.0,0.6126016192893442,0.0,wait_cost,0,3,505.20892509999976,None,4,rn14,3,2023-03-30_11h45.20.502,threat_forest,2021.2.3,60.22032207244942,
16,0,16,0,6,0,6,0,,,,,,,,,,right,0.6399275000003399,511.43711749999784,rn14,511.43711749999784,None,503.19446849999076,505.20892509999976,False,3,['p'],True,0.6,0.6,0.0,0.0,2.0,0.6126016192893442,0.0,wait_cost,0,2,509.4882718000008,None,3,rn14,3,2023-03-30_11h45.20.502,threat_forest,2021.2.3,60.22032207244942,
16,0,16,0,7,0,7,0,,,,,,,,,,left,0.618518999996013,515.4829954000015,rn14,512.1028731999977,514.1173044000025,515.4829954000015,None,False,2,['p'],False,0.46875,0.625,0.25,2.0,2.0,0.9634951148421658,-0.53125,wait_cost,1,1,514.1173044000025,None,2,rn14,3,2023-03-30_11h45.20.502,threat_forest,2021.2.3,60.22032207244942,
16,0,16,0,,,,,,,,,,,,,,,,,,,,,,,,,,,,,,,,,,,,518.1468843999901,None,1,rn14,3,2023-03-30_11h45.20.502,threat_forest,2021.2.3,60.22032207244942,
17,0,17,0,0,0,0,0,,,,,,,519.4001283999969,522.9089858999941,None,right,0.9533915000065463,523.9752448999934,rn14,519.4001283999969,522.9089858999941,523.9752448999934,None,True,4,['r'],False,0.24,0.4,0.4,2.0,1.0,0.9801625908629508,0.0,succ_gain,1,5,,,,rn14,3,2023-03-30_11h45.20.502,threat_forest,2021.2.3,60.22032207244942,
17,0,17,0,1,0,1,0,,,,,,,,,,right,0.9504454000125406,529.7531307999889,rn14,519.4001283999969,522.9089858999941,529.7531307999889,None,True,5,['r'],False,0.24,0.4,0.4,2.0,1.0,0.9801625908629508,0.0,succ_gain,1,6,526.9717786999972,None,5,rn14,3,2023-03-30_11h45.20.502,threat_forest,2021.2.3,60.22032207244942,
17,0,17,0,2,0,2,0,,,,,,,,,,right,0.9205158000113443,533.4336099999928,rn14,533.4336099999928,None,530.7353079999884,532.7497543999925,False,6,['r'],True,0.3333333333333333,0.3333333333333333,0.0,0.0,1.0,0.5793801642856949,0.0,wait_cost,0,5,532.7497543999925,None,6,rn14,3,2023-03-30_11h45.20.502,threat_forest,2021.2.3,60.22032207244942,
17,0,17,0,3,0,3,0,,,,,,,,,,left,2.4836612999934005,539.5107622999931,rn14,539.5107622999931,None,530.7353079999884,532.7497543999925,True,5,['r'],True,0.3333333333333333,0.3333333333333333,0.0,0.0,1.0,0.5793801642856949,0.0,fight_cost,0,2,536.3964298999927,None,5,rn14,3,2023-03-30_11h45.20.502,threat_forest,2021.2.3,60.22032207244942,
17,0,17,0,4,0,4,0,,,,,,,,,,right,0.6770083000010345,545.6713213999901,rn14,542.0247336999892,544.0392003000015,545.6713213999901,None,True,2,['r'],False,0.24,0.4,0.4,2.0,1.0,0.9801625908629508,-0.76,succ_gain,1,3,544.0392003000015,None,2,rn14,3,2023-03-30_11h45.20.502,threat_forest,2021.2.3,60.22032207244942,
17,0,17,0,5,0,5,0,,,,,,,,,,right,0.7399425000039628,548.8849233999936,rn14,542.0247336999892,544.0392003000015,548.8849233999936,None,True,3,['r'],False,0.24,0.4,0.4,2.0,1.0,0.9801625908629508,-0.4,succ_gain,1,4,548.385269499995,None,3,rn14,3,2023-03-30_11h45.20.502,threat_forest,2021.2.3,60.22032207244942,
17,0,17,0,6,0,6,0,,,,,,,,,,left,0.7587789999961387,554.5463432999968,rn14,542.0247336999892,544.0392003000015,554.5463432999968,None,False,4,['r'],False,0.24,0.4,0.4,2.0,1.0,0.9801625908629508,0.0,wait_cost,1,3,551.6654524999904,None,4,rn14,3,2023-03-30_11h45.20.502,threat_forest,2021.2.3,60.22032207244942,
17,0,17,0,7,0,7,0,,,,,,,,,,left,0.5854759000067133,559.5082817999937,rn14,542.0247336999892,544.0392003000015,559.5082817999937,None,False,3,['r'],False,0.24,0.4,0.4,2.0,1.0,0.9801625908629508,-0.4,wait_cost,1,2,557.3433910999884,None,3,rn14,3,2023-03-30_11h45.20.502,threat_forest,2021.2.3,60.22032207244942,
17,0,17,0,,,,,,,,,,,,,,,,,,,,,,,,,,,,,,,,,,,,562.1389857999893,None,2,rn14,3,2023-03-30_11h45.20.502,threat_forest,2021.2.3,60.22032207244942,
