miniblock.thisRepN,miniblock.thisTrialN,miniblock.thisN,miniblock.thisIndex,day.thisRepN,day.thisTrialN,day.thisN,day.thisIndex,welcoming.started,welcoming.stopped,key_resp_2.keys,key_resp_2.rt,key_resp_2.started,key_resp_2.stopped,forest.started,fixation_forest.started,fixation_forest.stopped,key_resp.keys,key_resp.rt,key_resp.started,Subject_ID,weather_left.started,weather_left.stopped,weather_right.started,weather_right.stopped,foraging T/F,in_LP,p/r heuristic,good_weather.T/F,p_succ_correct,p_succ_uncorrected,r_threat,n_oponents,gain_if_succ,weather_entropy,OP_value_difference,action_outcome,forest_side_L=0_R=1,out_LP,fixation_day.started,fixation_day.stopped,participant,session,date,expName,psychopyVersion,frameRate,
,,,,,,,,19.855122900102288,None,space,3.4877439998090267,19.855122900102288,None,,,,,,,,,,,,,,,,,,,,,,,,,,,,ox19,1,2022-05-11_14h35.22.606,threat_forest,2021.2.3,60.05461373201944,
0,0,0,0,0,0,0,0,,,,,,,23.402617500163615,26.915409500245005,None,right,0.8391558998264372,28.01119070034474,ox19,23.402617500163615,26.915409500245005,28.01119070034474,None,True,4,['p'],False,0.2,0.2,0.0,0.0,1.0,0.4554859150035951,0.0,unsucc_cost,1,2,,,ox19,1,2022-05-11_14h35.22.606,threat_forest,2021.2.3,60.05461373201944,
0,0,0,0,1,0,1,0,,,,,,,,,,left,1.807318499777466,31.916043300181627,ox19,23.402617500163615,26.915409500245005,31.916043300181627,None,False,2,['p'],False,0.2,0.2,0.0,0.0,1.0,0.4554859150035951,-0.8,wait_cost,1,1,30.88215640000999,None,ox19,1,2022-05-11_14h35.22.606,threat_forest,2021.2.3,60.05461373201944,
0,0,0,0,2,0,2,0,,,,,,,,,,left,2.536435700021684,36.617549600079656,ox19,36.617549600079656,None,33.74925110023469,35.748948600143194,True,1,['p'],True,0.375,0.5,0.25,1.0,1.0,0.9850568223215076,0.375,succ_gain,0,2,35.748948600143194,None,ox19,1,2022-05-11_14h35.22.606,threat_forest,2021.2.3,60.05461373201944,
0,0,0,0,3,0,3,0,,,,,,,,,,right,2.0883315997198224,41.89917240012437,ox19,39.18257560022175,41.18235780019313,41.89917240012437,None,True,2,['p'],False,0.2,0.2,0.0,0.0,1.0,0.4554859150035951,-0.8,succ_gain,1,3,41.18235780019313,None,ox19,1,2022-05-11_14h35.22.606,threat_forest,2021.2.3,60.05461373201944,
0,0,0,0,4,0,4,0,,,,,,,,,,right,1.9384313998743892,49.516093800310045,ox19,49.516093800310045,None,44.01605400023982,46.01575730042532,False,3,['p'],True,0.375,0.5,0.25,1.0,1.0,0.9850568223215076,-0.25,wait_cost,0,2,46.01575730042532,None,ox19,1,2022-05-11_14h35.22.606,threat_forest,2021.2.3,60.05461373201944,
0,0,0,0,5,0,5,0,,,,,,,,,,right,1.3795872000046074,54.166084200143814,ox19,51.482851800043136,53.482390800025314,54.166084200143814,None,True,2,['p'],False,0.2,0.2,0.0,0.0,1.0,0.4554859150035951,-0.8,figh_cost,1,0,53.482390800025314,None,ox19,1,2022-05-11_14h35.22.606,threat_forest,2021.2.3,60.05461373201944,
0,0,0,0,,,,,,,,,,,,,,,,,,,,,,,,,,,,,,,,,,,,57.578105700202286,None,ox19,1,2022-05-11_14h35.22.606,threat_forest,2021.2.3,60.05461373201944,
1,0,1,0,0,0,0,0,,,,,,,59.46129730017856,62.95404590014368,None,right,0.9476671000011265,65.2668207003735,ox19,59.46129730017856,62.95404590014368,65.2668207003735,None,True,4,['r'],False,0.4081632653061224,0.5714285714285714,0.2857142857142857,2.0,2.0,0.9885754083994552,0.0,succ_gain,1,6,,,ox19,1,2022-05-11_14h35.22.606,threat_forest,2021.2.3,60.05461373201944,
1,0,1,0,1,0,1,0,,,,,,,,,,right,2.0093219000846148,69.31808930030093,ox19,69.31808930030093,None,66.23306810017675,68.23267750022933,False,6,['r'],True,0.5,0.5,0.0,0.0,2.0,0.6309297535714574,0.0,wait_cost,0,5,68.23267750022933,None,ox19,1,2022-05-11_14h35.22.606,threat_forest,2021.2.3,60.05461373201944,
1,0,1,0,2,0,2,0,,,,,,,,,,right,0.9865858997218311,76.95009120041505,ox19,71.34995960025117,73.34939109999686,76.95009120041505,None,True,5,['r'],False,0.4081632653061224,0.5714285714285714,0.2857142857142857,2.0,2.0,0.9885754083994552,0.0,succ_gain,1,6,73.34939109999686,None,ox19,1,2022-05-11_14h35.22.606,threat_forest,2021.2.3,60.05461373201944,
1,0,1,0,3,0,3,0,,,,,,,,,,right,1.1403760998509824,83.50035310024396,ox19,83.50035310024396,None,77.96646330039948,79.96618990041316,False,6,['r'],True,0.5,0.5,0.0,0.0,2.0,0.6309297535714574,0.0,wait_cost,0,5,79.96618990041316,None,ox19,1,2022-05-11_14h35.22.606,threat_forest,2021.2.3,60.05461373201944,
1,0,1,0,4,0,4,0,,,,,,,,,,left,2.4792776997201145,88.41647640010342,ox19,84.66668130038306,86.66637250036001,88.41647640010342,None,False,5,['r'],False,0.4081632653061224,0.5714285714285714,0.2857142857142857,2.0,2.0,0.9885754083994552,0.0,wait_cost,1,4,86.66637250036001,None,ox19,1,2022-05-11_14h35.22.606,threat_forest,2021.2.3,60.05461373201944,
1,0,1,0,5,0,5,0,,,,,,,,,,left,2.105773599818349,93.68343470012769,ox19,84.66668130038306,86.66637250036001,93.68343470012769,None,False,4,['r'],False,0.4081632653061224,0.5714285714285714,0.2857142857142857,2.0,2.0,0.9885754083994552,0.0,wait_cost,1,3,92.91649090033025,None,ox19,1,2022-05-11_14h35.22.606,threat_forest,2021.2.3,60.05461373201944,
1,0,1,0,6,0,6,0,,,,,,,,,,right,1.9604870001785457,99.58488270035014,ox19,99.58488270035014,None,95.81672280002385,97.81667540036142,False,3,['r'],True,0.5,0.5,0.0,0.0,2.0,0.6309297535714574,0.0,wait_cost,0,2,97.81667540036142,None,ox19,1,2022-05-11_14h35.22.606,threat_forest,2021.2.3,60.05461373201944,
1,0,1,0,7,0,7,0,,,,,,,,,,left,2.4940813998691738,105.75032100034878,ox19,101.56698470003903,103.56693350011483,105.75032100034878,None,False,2,['r'],False,0.4081632653061224,0.5714285714285714,0.2857142857142857,2.0,2.0,0.9885754083994552,-0.5918367346938775,wait_cost,1,1,103.56693350011483,None,ox19,1,2022-05-11_14h35.22.606,threat_forest,2021.2.3,60.05461373201944,
1,0,1,0,,,,,,,,,,,,,,,,,,,,,,,,,,,,,,,,,,,,110.2666851002723,None,ox19,1,2022-05-11_14h35.22.606,threat_forest,2021.2.3,60.05461373201944,
2,0,2,0,0,0,0,0,,,,,,,111.24257560027763,114.74999140016735,None,left,2.3974608997814357,115.38415500009432,ox19,115.38415500009432,None,111.24257560027763,114.74999140016735,True,4,['p'],True,0.24,0.4,0.4,2.0,2.0,0.9801625908629508,0.0,succ_gain,0,6,,,ox19,1,2022-05-11_14h35.22.606,threat_forest,2021.2.3,60.05461373201944,
2,0,2,0,1,0,1,0,,,,,,,,,,left,1.4727239003404975,123.43685570033267,ox19,117.80042010033503,119.79998980043456,123.43685570033267,None,False,6,['p'],False,0.16,0.2,0.2,2.0,2.0,0.8198746470064713,0.0,wait_cost,1,5,119.79998980043456,None,ox19,1,2022-05-11_14h35.22.606,threat_forest,2021.2.3,60.05461373201944,
2,0,2,0,2,0,2,0,,,,,,,,,,left,1.1934930002316833,130.1008690004237,ox19,117.80042010033503,119.79998980043456,130.1008690004237,None,False,5,['p'],False,0.16,0.2,0.2,2.0,2.0,0.8198746470064713,0.0,wait_cost,1,4,126.93354390002787,None,ox19,1,2022-05-11_14h35.22.606,threat_forest,2021.2.3,60.05461373201944,
2,0,2,0,3,0,3,0,,,,,,,,,,left,1.427751800045371,135.08413820015267,ox19,117.80042010033503,119.79998980043456,135.08413820015267,None,False,4,['p'],False,0.16,0.2,0.2,2.0,2.0,0.8198746470064713,0.0,wait_cost,1,3,133.31693620001897,None,ox19,1,2022-05-11_14h35.22.606,threat_forest,2021.2.3,60.05461373201944,
2,0,2,0,4,0,4,0,,,,,,,,,,right,1.7251201998442411,141.3010802003555,ox19,117.80042010033503,119.79998980043456,141.3010802003555,None,True,3,['p'],False,0.16,0.2,0.2,2.0,2.0,0.8198746470064713,-0.2,unsucc_cost,1,1,138.53377120010555,None,ox19,1,2022-05-11_14h35.22.606,threat_forest,2021.2.3,60.05461373201944,
2,0,2,0,5,0,5,0,,,,,,,,,,left,1.1610855995677412,147.60121680004522,ox19,147.60121680004522,None,143.05075300019234,145.05047340039164,True,1,['p'],True,0.24,0.4,0.4,2.0,2.0,0.9801625908629508,0.24,figh_cost,0,0,145.05047340039164,None,ox19,1,2022-05-11_14h35.22.606,threat_forest,2021.2.3,60.05461373201944,
2,0,2,0,,,,,,,,,,,,,,,,,,,,,,,,,,,,,,,,,,,,150.7841097000055,None,ox19,1,2022-05-11_14h35.22.606,threat_forest,2021.2.3,60.05461373201944,
3,0,3,0,0,0,0,0,,,,,,,153.97764010028914,157.48047910025343,None,left,1.7239247998222709,160.086870000232,ox19,153.97764010028914,157.48047910025343,160.086870000232,None,False,5,['p'],False,0.27,0.3,0.1,1.0,1.0,0.7963326591781347,0.0,wait_cost,1,4,,,ox19,1,2022-05-11_14h35.22.606,threat_forest,2021.2.3,60.05461373201944,
3,0,3,0,1,0,1,0,,,,,,,,,,left,1.2598843001760542,164.93532650033012,ox19,164.93532650033012,None,161.83440440008417,163.83414790034294,True,4,['p'],True,0.4166666666666667,0.5,0.1666666666666666,1.0,1.0,0.9358932809493992,0.0,succ_gain,0,5,163.83414790034294,None,ox19,1,2022-05-11_14h35.22.606,threat_forest,2021.2.3,60.05461373201944,
3,0,3,0,2,0,2,0,,,,,,,,,,left,1.954171400051564,171.0845355000347,ox19,171.0845355000347,None,161.83440440008417,163.83414790034294,True,5,['p'],True,0.4166666666666667,0.5,0.1666666666666666,1.0,1.0,0.9358932809493992,0.0,unsucc_cost,0,3,168.21782110026106,None,ox19,1,2022-05-11_14h35.22.606,threat_forest,2021.2.3,60.05461373201944,
3,0,3,0,3,0,3,0,,,,,,,,,,left,1.505747300107032,176.15208480041474,ox19,173.0679170000367,175.06762640038505,176.15208480041474,None,False,3,['p'],False,0.27,0.3,0.1,1.0,1.0,0.7963326591781347,-0.1,wait_cost,1,2,175.06762640038505,None,ox19,1,2022-05-11_14h35.22.606,threat_forest,2021.2.3,60.05461373201944,
3,0,3,0,4,0,4,0,,,,,,,,,,right,1.428410999942571,181.06801190041006,ox19,173.0679170000367,175.06762640038505,181.06801190041006,None,True,2,['p'],False,0.27,0.3,0.1,1.0,1.0,0.7963326591781347,-0.73,succ_gain,1,3,179.68433810025454,None,ox19,1,2022-05-11_14h35.22.606,threat_forest,2021.2.3,60.05461373201944,
3,0,3,0,5,0,5,0,,,,,,,,,,right,1.7769867000170052,188.25167390005663,ox19,173.0679170000367,175.06762640038505,188.25167390005663,None,True,3,['p'],False,0.27,0.3,0.1,1.0,1.0,0.7963326591781347,-0.1,unsucc_cost,1,1,184.51778450002894,None,ox19,1,2022-05-11_14h35.22.606,threat_forest,2021.2.3,60.05461373201944,
3,0,3,0,6,0,6,0,,,,,,,,,,left,0.8591253999620676,194.36808430030942,ox19,194.36808430030942,None,190.05168260028586,192.05124360043555,True,1,['p'],True,0.4166666666666667,0.5,0.1666666666666666,1.0,1.0,0.9358932809493992,0.4166666666666667,figh_cost,0,0,192.05124360043555,None,ox19,1,2022-05-11_14h35.22.606,threat_forest,2021.2.3,60.05461373201944,
3,0,3,0,,,,,,,,,,,,,,,,,,,,,,,,,,,,,,,,,,,,197.25142380036414,None,ox19,1,2022-05-11_14h35.22.606,threat_forest,2021.2.3,60.05461373201944,
4,0,4,0,0,0,0,0,,,,,,,200.82869320036843,204.33479320025072,None,right,1.0722444001585245,207.35239670006558,ox19,200.82869320036843,204.33479320025072,207.35239670006558,None,True,4,['p'],False,0.2962962962962963,0.3333333333333333,0.1111111111111111,1.0,2.0,0.8325252476189534,0.0,succ_gain,1,6,,,ox19,1,2022-05-11_14h35.22.606,threat_forest,2021.2.3,60.05461373201944,
4,0,4,0,1,0,1,0,,,,,,,,,,right,1.2897513997741044,213.10560500016436,ox19,213.10560500016436,None,208.45174150029197,210.45139490021393,False,6,['p'],True,0.4166666666666667,0.5,0.1666666666666666,1.0,2.0,0.9358932809493992,0.0,wait_cost,0,5,210.45139490021393,None,ox19,1,2022-05-11_14h35.22.606,threat_forest,2021.2.3,60.05461373201944,
4,0,4,0,2,0,2,0,,,,,,,,,,left,1.8093536999076605,219.1353399003856,ox19,219.1353399003856,None,208.45174150029197,210.45139490021393,True,5,['p'],True,0.4166666666666667,0.5,0.1666666666666666,1.0,2.0,0.9358932809493992,0.0,figh_cost,0,2,216.41823710035533,None,ox19,1,2022-05-11_14h35.22.606,threat_forest,2021.2.3,60.05461373201944,
4,0,4,0,3,0,3,0,,,,,,,,,,right,0.736252199858427,225.82015320006758,ox19,220.9684303002432,222.9682494001463,225.82015320006758,None,True,2,['p'],False,0.2962962962962963,0.3333333333333333,0.1111111111111111,1.0,2.0,0.8325252476189534,-0.7037037037037037,figh_cost,1,0,222.9682494001463,None,ox19,1,2022-05-11_14h35.22.606,threat_forest,2021.2.3,60.05461373201944,
4,0,4,0,,,,,,,,,,,,,,,,,,,,,,,,,,,,,,,,,,,,228.58546410035342,None,ox19,1,2022-05-11_14h35.22.606,threat_forest,2021.2.3,60.05461373201944,
5,0,5,0,0,0,0,0,,,,,,,230.17698039999232,233.68526870012283,None,right,1.2365627000108361,237.0021025002934,ox19,230.17698039999232,233.68526870012283,237.0021025002934,None,True,4,['p'],False,0.2962962962962963,0.3333333333333333,0.1111111111111111,1.0,1.0,0.8325252476189534,0.0,unsucc_cost,1,2,,,ox19,1,2022-05-11_14h35.22.606,threat_forest,2021.2.3,60.05461373201944,
5,0,5,0,1,0,1,0,,,,,,,,,,right,1.94139500008896,241.7043868000619,ox19,241.7043868000619,None,238.26887610042468,240.26859039999545,False,2,['p'],True,0.48,0.6,0.2,1.0,1.0,0.9455672104350704,-0.52,wait_cost,0,1,240.26859039999545,None,ox19,1,2022-05-11_14h35.22.606,threat_forest,2021.2.3,60.05461373201944,
5,0,5,0,2,0,2,0,,,,,,,,,,right,1.087898500263691,248.85286070033908,ox19,248.85286070033908,None,238.26887610042468,240.26859039999545,False,1,['p'],True,0.48,0.6,0.2,1.0,1.0,0.9455672104350704,0.48,wait_cost,0,0,245.66871740017086,None,ox19,1,2022-05-11_14h35.22.606,threat_forest,2021.2.3,60.05461373201944,
5,0,5,0,,,,,,,,,,,,,,,,,,,,,,,,,,,,,,,,,,,,251.96898520039394,None,ox19,1,2022-05-11_14h35.22.606,threat_forest,2021.2.3,60.05461373201944,
6,0,6,0,0,0,0,0,,,,,,,254.1942816004157,257.70218520006165,None,left,1.8635940002277493,260.05364440009,ox19,254.1942816004157,257.70218520006165,260.05364440009,None,False,5,['p'],False,0.21875,0.25,0.125,1.0,1.0,0.7908280489481783,0.0,wait_cost,1,4,,,ox19,1,2022-05-11_14h35.22.606,threat_forest,2021.2.3,60.05461373201944,
6,0,6,0,1,0,1,0,,,,,,,,,,right,2.6774810003116727,264.88638000003994,ox19,254.1942816004157,257.70218520006165,264.88638000003994,None,True,4,['p'],False,0.21875,0.25,0.125,1.0,1.0,0.7908280489481783,0.0,succ_gain,1,5,263.93566670035943,None,ox19,1,2022-05-11_14h35.22.606,threat_forest,2021.2.3,60.05461373201944,
6,0,6,0,2,0,2,0,,,,,,,,,,right,2.233612200245261,270.60270910011604,ox19,270.60270910011604,None,267.5859530000016,269.5857549002394,False,5,['p'],True,0.32,0.4,0.2,1.0,1.0,0.9455672104350704,0.0,wait_cost,0,4,269.5857549002394,None,ox19,1,2022-05-11_14h35.22.606,threat_forest,2021.2.3,60.05461373201944,
6,0,6,0,3,0,3,0,,,,,,,,,,right,2.823028600309044,276.48787730000913,ox19,272.85284110018983,274.85250860033557,276.48787730000913,None,True,4,['p'],False,0.21875,0.25,0.125,1.0,1.0,0.7908280489481783,0.0,succ_gain,1,5,274.85250860033557,None,ox19,1,2022-05-11_14h35.22.606,threat_forest,2021.2.3,60.05461373201944,
6,0,6,0,4,0,4,0,,,,,,,,,,left,1.458066999912262,283.41960340039805,ox19,272.85284110018983,274.85250860033557,283.41960340039805,None,False,5,['p'],False,0.21875,0.25,0.125,1.0,1.0,0.7908280489481783,0.0,wait_cost,1,4,281.3358615003526,None,ox19,1,2022-05-11_14h35.22.606,threat_forest,2021.2.3,60.05461373201944,
6,0,6,0,5,0,5,0,,,,,,,,,,left,0.9953040000982583,289.119732900057,ox19,272.85284110018983,274.85250860033557,289.119732900057,None,False,4,['p'],False,0.21875,0.25,0.125,1.0,1.0,0.7908280489481783,0.0,wait_cost,1,3,286.90266760019585,None,ox19,1,2022-05-11_14h35.22.606,threat_forest,2021.2.3,60.05461373201944,
6,0,6,0,6,0,6,0,,,,,,,,,,left,1.509633700363338,295.4698813003488,ox19,272.85284110018983,274.85250860033557,295.4698813003488,None,False,3,['p'],False,0.21875,0.25,0.125,1.0,1.0,0.7908280489481783,-0.125,wait_cost,1,2,292.1360673001036,None,ox19,1,2022-05-11_14h35.22.606,threat_forest,2021.2.3,60.05461373201944,
6,0,6,0,7,0,7,0,,,,,,,,,,right,1.1908249002881348,301.2197937001474,ox19,301.2197937001474,None,297.0042936000973,299.019462400116,False,2,['p'],True,0.32,0.4,0.2,1.0,1.0,0.9455672104350704,-0.6799999999999999,wait_cost,0,1,299.019462400116,None,ox19,1,2022-05-11_14h35.22.606,threat_forest,2021.2.3,60.05461373201944,
6,0,6,0,,,,,,,,,,,,,,,,,,,,,,,,,,,,,,,,,,,,304.4362519001588,None,ox19,1,2022-05-11_14h35.22.606,threat_forest,2021.2.3,60.05461373201944,
7,0,7,0,0,0,0,0,,,,,,,308.1570685002953,311.6696560001001,None,left,2.3802155000157654,312.67008380033076,ox19,308.1570685002953,311.6696560001001,312.67008380033076,None,False,4,['p'],False,0.2448979591836734,0.2857142857142857,0.1428571428571428,1.0,1.0,0.8400769154957735,0.0,wait_cost,1,3,,,ox19,1,2022-05-11_14h35.22.606,threat_forest,2021.2.3,60.05461373201944,
7,0,7,0,1,0,1,0,,,,,,,,,,left,1.1373870000243187,320.68669870030135,ox19,320.68669870030135,None,315.07003480009735,317.0697319000028,True,3,['p'],True,0.4444444444444445,0.6666666666666666,0.3333333333333333,1.0,1.0,0.9656336071428248,-0.3333333333333333,figh_cost,0,0,317.0697319000028,None,ox19,1,2022-05-11_14h35.22.606,threat_forest,2021.2.3,60.05461373201944,
7,0,7,0,,,,,,,,,,,,,,,,,,,,,,,,,,,,,,,,,,,,323.8532797000371,None,ox19,1,2022-05-11_14h35.22.606,threat_forest,2021.2.3,60.05461373201944,
8,0,8,0,0,0,0,0,,,,,,,326.72493430040777,330.2366153001785,None,left,1.8590305000543594,332.47042130026966,ox19,326.72493430040777,330.2366153001785,332.47042130026966,None,False,4,['r'],False,0.36,0.6,0.4,2.0,1.0,0.9801625908629508,0.0,wait_cost,1,3,,,ox19,1,2022-05-11_14h35.22.606,threat_forest,2021.2.3,60.05461373201944,
8,0,8,0,1,0,1,0,,,,,,,,,,left,1.835975700058043,337.2870990000665,ox19,337.2870990000665,None,334.35362160019577,336.35343560017645,True,3,['r'],True,0.5,0.5,0.0,0.0,1.0,0.6309297535714574,0.0,succ_gain,0,4,336.35343560017645,None,ox19,1,2022-05-11_14h35.22.606,threat_forest,2021.2.3,60.05461373201944,
8,0,8,0,2,0,2,0,,,,,,,,,,left,1.8264191001653671,344.65388810029253,ox19,339.15372330043465,341.15359890041873,344.65388810029253,None,False,4,['r'],False,0.36,0.6,0.4,2.0,1.0,0.9801625908629508,0.0,wait_cost,1,3,341.15359890041873,None,ox19,1,2022-05-11_14h35.22.606,threat_forest,2021.2.3,60.05461373201944,
8,0,8,0,3,0,3,0,,,,,,,,,,left,1.0958304000087082,350.537161400076,ox19,350.537161400076,None,346.50384250003844,348.5036373003386,True,3,['r'],True,0.5,0.5,0.0,0.0,1.0,0.6309297535714574,0.0,unsucc_cost,0,1,348.5036373003386,None,ox19,1,2022-05-11_14h35.22.606,threat_forest,2021.2.3,60.05461373201944,
8,0,8,0,4,0,4,0,,,,,,,,,,left,0.834472400136292,356.1706374003552,ox19,356.1706374003552,None,346.50384250003844,348.5036373003386,True,1,['r'],True,0.5,0.5,0.0,0.0,1.0,0.6309297535714574,0.5,unsucc_cost,0,0,353.6536251003854,None,ox19,1,2022-05-11_14h35.22.606,threat_forest,2021.2.3,60.05461373201944,
8,0,8,0,,,,,,,,,,,,,,,,,,,,,,,,,,,,,,,,,,,,359.0371554000303,None,ox19,1,2022-05-11_14h35.22.606,threat_forest,2021.2.3,60.05461373201944,
9,0,9,0,0,0,0,0,,,,,,,360.660218000412,364.17048650002107,None,right,1.4462748002260923,367.2710669999942,ox19,360.660218000412,364.17048650002107,367.2710669999942,None,True,5,['p'],False,0.2448979591836734,0.2857142857142857,0.1428571428571428,1.0,2.0,0.8400769154957735,0.0,unsucc_cost,1,3,,,ox19,1,2022-05-11_14h35.22.606,threat_forest,2021.2.3,60.05461373201944,
9,0,9,0,1,0,1,0,,,,,,,,,,right,1.0074485000222921,373.4713020999916,ox19,360.660218000412,364.17048650002107,373.4713020999916,None,True,3,['p'],False,0.2448979591836734,0.2857142857142857,0.1428571428571428,1.0,2.0,0.8400769154957735,-0.1428571428571428,figh_cost,1,0,370.7373919002712,None,ox19,1,2022-05-11_14h35.22.606,threat_forest,2021.2.3,60.05461373201944,
9,0,9,0,,,,,,,,,,,,,,,,,,,,,,,,,,,,,,,,,,,,376.50397210009396,None,ox19,1,2022-05-11_14h35.22.606,threat_forest,2021.2.3,60.05461373201944,
10,0,10,0,0,0,0,0,,,,,,,379.27857750002295,382.7874825000763,None,left,1.7408874998800457,383.85675969999284,ox19,379.27857750002295,382.7874825000763,383.85675969999284,None,False,4,['p'],False,0.24,0.3,0.2,2.0,2.0,0.9003120349047065,0.0,wait_cost,1,3,,,ox19,1,2022-05-11_14h35.22.606,threat_forest,2021.2.3,60.05461373201944,
10,0,10,0,1,0,1,0,,,,,,,,,,left,0.9612663998268545,388.1380453002639,ox19,388.1380453002639,None,385.6212495001964,387.62094769999385,True,3,['p'],True,0.4444444444444445,0.6666666666666666,0.3333333333333333,1.0,2.0,0.9656336071428248,-0.3333333333333333,unsucc_cost,0,1,387.62094769999385,None,ox19,1,2022-05-11_14h35.22.606,threat_forest,2021.2.3,60.05461373201944,
10,0,10,0,2,0,2,0,,,,,,,,,,left,1.2526631001383066,393.68772860011086,ox19,393.68772860011086,None,385.6212495001964,387.62094769999385,True,1,['p'],True,0.4444444444444445,0.6666666666666666,0.3333333333333333,1.0,2.0,0.9656336071428248,0.4444444444444444,unsucc_cost,0,0,391.1209129001945,None,ox19,1,2022-05-11_14h35.22.606,threat_forest,2021.2.3,60.05461373201944,
10,0,10,0,,,,,,,,,,,,,,,,,,,,,,,,,,,,,,,,,,,,396.9710070001893,None,ox19,1,2022-05-11_14h35.22.606,threat_forest,2021.2.3,60.05461373201944,
11,0,11,0,0,0,0,0,,,,,,,399.5092143001966,403.02100670011714,None,right,1.8537713000550866,404.8395906002261,ox19,399.5092143001966,403.02100670011714,404.8395906002261,None,True,5,['r'],False,0.4081632653061224,0.5714285714285714,0.2857142857142857,2.0,1.0,0.9885754083994552,0.0,succ_gain,1,6,,,ox19,1,2022-05-11_14h35.22.606,threat_forest,2021.2.3,60.05461373201944,
11,0,11,0,1,0,1,0,,,,,,,,,,left,1.5057274997234344,411.47189530031756,ox19,399.5092143001966,403.02100670011714,411.47189530031756,None,False,6,['r'],False,0.4081632653061224,0.5714285714285714,0.2857142857142857,2.0,1.0,0.9885754083994552,0.0,wait_cost,1,5,408.72121710004285,None,ox19,1,2022-05-11_14h35.22.606,threat_forest,2021.2.3,60.05461373201944,
11,0,11,0,2,0,2,0,,,,,,,,,,right,1.2167728003114462,416.88865830004215,ox19,399.5092143001966,403.02100670011714,416.88865830004215,None,True,5,['r'],False,0.4081632653061224,0.5714285714285714,0.2857142857142857,2.0,1.0,0.9885754083994552,0.0,succ_gain,1,6,415.00455120019615,None,ox19,1,2022-05-11_14h35.22.606,threat_forest,2021.2.3,60.05461373201944,
11,0,11,0,3,0,3,0,,,,,,,,,,right,1.5183345000259578,420.82187930028886,ox19,420.82187930028886,None,418.13813910027966,420.13797220028937,False,6,['r'],True,0.5,0.5,0.0,0.0,1.0,0.6309297535714574,0.0,wait_cost,0,5,420.13797220028937,None,ox19,1,2022-05-11_14h35.22.606,threat_forest,2021.2.3,60.05461373201944,
11,0,11,0,4,0,4,0,,,,,,,,,,right,0.957630000077188,427.3384449002333,ox19,427.3384449002333,None,418.13813910027966,420.13797220028937,False,5,['r'],True,0.5,0.5,0.0,0.0,1.0,0.6309297535714574,0.0,wait_cost,0,4,424.37133020022884,None,ox19,1,2022-05-11_14h35.22.606,threat_forest,2021.2.3,60.05461373201944,
11,0,11,0,5,0,5,0,,,,,,,,,,left,0.7927474998869002,433.48902780003846,ox19,428.3216512002982,430.32167700026184,433.48902780003846,None,False,4,['r'],False,0.4081632653061224,0.5714285714285714,0.2857142857142857,2.0,1.0,0.9885754083994552,0.0,wait_cost,1,3,430.32167700026184,None,ox19,1,2022-05-11_14h35.22.606,threat_forest,2021.2.3,60.05461373201944,
11,0,11,0,6,0,6,0,,,,,,,,,,left,0.9881295999512076,439.48879790026695,ox19,428.3216512002982,430.32167700026184,439.48879790026695,None,False,3,['r'],False,0.4081632653061224,0.5714285714285714,0.2857142857142857,2.0,1.0,0.9885754083994552,-0.2857142857142857,wait_cost,1,2,436.30488050030544,None,ox19,1,2022-05-11_14h35.22.606,threat_forest,2021.2.3,60.05461373201944,
11,0,11,0,7,0,7,0,,,,,,,,,,right,0.9506979999132454,445.5718946000561,ox19,445.5718946000561,None,440.5052028000355,442.5049464004114,False,2,['r'],True,0.5,0.5,0.0,0.0,1.0,0.6309297535714574,-0.5,wait_cost,0,1,442.5049464004114,None,ox19,1,2022-05-11_14h35.22.606,threat_forest,2021.2.3,60.05461373201944,
11,0,11,0,,,,,,,,,,,,,,,,,,,,,,,,,,,,,,,,,,,,448.55511260032654,None,ox19,1,2022-05-11_14h35.22.606,threat_forest,2021.2.3,60.05461373201944,
12,0,12,0,0,0,0,0,,,,,,,450.3672104002908,453.86949680000544,None,right,1.6630652002058923,457.4096870999783,ox19,457.4096870999783,None,450.3672104002908,453.86949680000544,False,5,['p'],True,0.2222222222222222,0.3333333333333333,0.3333333333333333,2.0,2.0,0.9656336071428248,0.0,wait_cost,0,4,,,ox19,1,2022-05-11_14h35.22.606,threat_forest,2021.2.3,60.05461373201944,
12,0,12,0,1,0,1,0,,,,,,,,,,left,1.575434099882841,462.3757961001247,ox19,459.10580960009247,461.1052668001503,462.3757961001247,None,False,4,['p'],False,0.16,0.2,0.2,2.0,2.0,0.8198746470064713,0.0,wait_cost,1,3,461.1052668001503,None,ox19,1,2022-05-11_14h35.22.606,threat_forest,2021.2.3,60.05461373201944,
12,0,12,0,2,0,2,0,,,,,,,,,,left,1.420305300038308,469.53935720026493,ox19,469.53935720026493,None,463.97226550010964,465.9725021002814,True,3,['p'],True,0.2222222222222222,0.3333333333333333,0.3333333333333333,2.0,2.0,0.9656336071428248,-0.3333333333333333,figh_cost,0,0,465.9725021002814,None,ox19,1,2022-05-11_14h35.22.606,threat_forest,2021.2.3,60.05461373201944,
12,0,12,0,,,,,,,,,,,,,,,,,,,,,,,,,,,,,,,,,,,,472.9889219002798,None,ox19,1,2022-05-11_14h35.22.606,threat_forest,2021.2.3,60.05461373201944,
13,0,13,0,0,0,0,0,,,,,,,474.3800041000359,477.8888062001206,None,right,1.7103285999037325,479.2058112001978,ox19,479.2058112001978,None,474.3800041000359,477.8888062001206,False,5,['r'],True,0.3333333333333333,0.3333333333333333,0.0,0.0,2.0,0.5793801642856949,0.0,wait_cost,0,4,,,ox19,1,2022-05-11_14h35.22.606,threat_forest,2021.2.3,60.05461373201944,
13,0,13,0,1,0,1,0,,,,,,,,,,right,1.5899471999146044,483.94123700028285,ox19,480.93927660025656,482.93885980034247,483.94123700028285,None,True,4,['r'],False,0.28125,0.375,0.25,2.0,2.0,0.9634951148421658,0.0,figh_cost,1,1,482.93885980034247,None,ox19,1,2022-05-11_14h35.22.606,threat_forest,2021.2.3,60.05461373201944,
13,0,13,0,2,0,2,0,,,,,,,,,,left,1.2187275001779199,489.43927159998566,ox19,489.43927159998566,None,485.5558050000109,487.55557530000806,True,1,['r'],True,0.3333333333333333,0.3333333333333333,0.0,0.0,2.0,0.5793801642856949,0.3333333333333332,unsucc_cost,0,0,487.55557530000806,None,ox19,1,2022-05-11_14h35.22.606,threat_forest,2021.2.3,60.05461373201944,
13,0,13,0,,,,,,,,,,,,,,,,,,,,,,,,,,,,,,,,,,,,492.68914910033345,None,ox19,1,2022-05-11_14h35.22.606,threat_forest,2021.2.3,60.05461373201944,
14,0,14,0,0,0,0,0,,,,,,,493.4976598001085,497.00576349999756,None,right,1.0819056998007,500.4416912002489,ox19,493.4976598001085,497.00576349999756,500.4416912002489,None,True,5,['r'],False,0.46875,0.625,0.25,2.0,2.0,0.9634951148421658,0.0,figh_cost,1,2,,,ox19,1,2022-05-11_14h35.22.606,threat_forest,2021.2.3,60.05461373201944,
14,0,14,0,1,0,1,0,,,,,,,,,,left,0.9289941000752151,505.8061911002733,ox19,505.8061911002733,None,501.55605250038207,503.5558428000659,True,2,['r'],True,0.6,0.6,0.0,0.0,2.0,0.6126016192893442,-0.4,unsucc_cost,0,0,503.5558428000659,None,ox19,1,2022-05-11_14h35.22.606,threat_forest,2021.2.3,60.05461373201944,
14,0,14,0,,,,,,,,,,,,,,,,,,,,,,,,,,,,,,,,,,,,508.7560092001222,None,ox19,1,2022-05-11_14h35.22.606,threat_forest,2021.2.3,60.05461373201944,
15,0,15,0,0,0,0,0,,,,,,,509.8140108999796,513.3226296002977,None,left,1.2739129001274705,516.2067190003581,ox19,516.2067190003581,None,509.8140108999796,513.3226296002977,True,4,['r'],True,0.5,0.5,0.0,0.0,2.0,0.6309297535714574,0.0,succ_gain,0,6,,,ox19,1,2022-05-11_14h35.22.606,threat_forest,2021.2.3,60.05461373201944,
15,0,15,0,1,0,1,0,,,,,,,,,,right,2.571850299835205,520.2899176999927,ox19,520.2899176999927,None,509.8140108999796,513.3226296002977,False,6,['r'],True,0.5,0.5,0.0,0.0,2.0,0.6309297535714574,0.0,wait_cost,0,5,519.5061184000224,None,ox19,1,2022-05-11_14h35.22.606,threat_forest,2021.2.3,60.05461373201944,
15,0,15,0,2,0,2,0,,,,,,,,,,right,2.341686800122261,528.3565393001772,ox19,522.8896883004345,524.889445700217,528.3565393001772,None,True,5,['r'],False,0.36,0.6,0.4,2.0,2.0,0.9801625908629508,0.0,unsucc_cost,1,3,524.889445700217,None,ox19,1,2022-05-11_14h35.22.606,threat_forest,2021.2.3,60.05461373201944,
15,0,15,0,3,0,3,0,,,,,,,,,,right,1.2224703999236226,534.6734188999981,ox19,522.8896883004345,524.889445700217,534.6734188999981,None,True,3,['r'],False,0.36,0.6,0.4,2.0,2.0,0.9801625908629508,-0.4,succ_gain,1,5,532.7229426000267,None,ox19,1,2022-05-11_14h35.22.606,threat_forest,2021.2.3,60.05461373201944,
15,0,15,0,4,0,4,0,,,,,,,,,,left,1.4967168001458049,540.1404291000217,ox19,522.8896883004345,524.889445700217,540.1404291000217,None,False,5,['r'],False,0.36,0.6,0.4,2.0,2.0,0.9801625908629508,0.0,wait_cost,1,4,537.9230790003203,None,ox19,1,2022-05-11_14h35.22.606,threat_forest,2021.2.3,60.05461373201944,
15,0,15,0,5,0,5,0,,,,,,,,,,left,1.2255792999640107,546.173867800273,ox19,522.8896883004345,524.889445700217,546.173867800273,None,False,4,['r'],False,0.36,0.6,0.4,2.0,2.0,0.9801625908629508,0.0,wait_cost,1,3,543.6565149002708,None,ox19,1,2022-05-11_14h35.22.606,threat_forest,2021.2.3,60.05461373201944,
15,0,15,0,6,0,6,0,,,,,,,,,,left,0.9496990996412933,550.6738647003658,ox19,522.8896883004345,524.889445700217,550.6738647003658,None,False,3,['r'],False,0.36,0.6,0.4,2.0,2.0,0.9801625908629508,-0.4,wait_cost,1,2,549.4231744003482,None,ox19,1,2022-05-11_14h35.22.606,threat_forest,2021.2.3,60.05461373201944,
15,0,15,0,7,0,7,0,,,,,,,,,,left,1.169561400078237,555.2574840001762,ox19,522.8896883004345,524.889445700217,555.2574840001762,None,False,2,['r'],False,0.36,0.6,0.4,2.0,2.0,0.9801625908629508,-0.64,wait_cost,1,1,553.6403267001733,None,ox19,1,2022-05-11_14h35.22.606,threat_forest,2021.2.3,60.05461373201944,
15,0,15,0,,,,,,,,,,,,,,,,,,,,,,,,,,,,,,,,,,,,558.456728100311,None,ox19,1,2022-05-11_14h35.22.606,threat_forest,2021.2.3,60.05461373201944,
16,0,16,0,0,0,0,0,,,,,,,560.9283735002391,564.440032100305,None,left,1.6300029000267386,565.9406734001823,ox19,560.9283735002391,564.440032100305,565.9406734001823,None,False,5,['r'],False,0.24,0.4,0.4,2.0,2.0,0.9801625908629508,0.0,wait_cost,1,4,,,ox19,1,2022-05-11_14h35.22.606,threat_forest,2021.2.3,60.05461373201944,
16,0,16,0,1,0,1,0,,,,,,,,,,right,2.318067899905145,570.2408978003077,ox19,560.9283735002391,564.440032100305,570.2408978003077,None,True,4,['r'],False,0.24,0.4,0.4,2.0,2.0,0.9801625908629508,0.0,unsucc_cost,1,2,569.5902442000806,None,ox19,1,2022-05-11_14h35.22.606,threat_forest,2021.2.3,60.05461373201944,
16,0,16,0,2,0,2,0,,,,,,,,,,right,1.6579156001098454,576.023983000312,ox19,576.023983000312,None,572.5905675003305,574.5902539002709,False,2,['r'],True,0.3333333333333333,0.3333333333333333,0.0,0.0,2.0,0.5793801642856949,-0.6666666666666667,wait_cost,0,1,574.5902539002709,None,ox19,1,2022-05-11_14h35.22.606,threat_forest,2021.2.3,60.05461373201944,
16,0,16,0,3,0,3,0,,,,,,,,,,right,1.1230203998275101,583.4075031001121,ox19,577.7071977001615,579.7075081001967,583.4075031001121,None,True,1,['r'],False,0.24,0.4,0.4,2.0,2.0,0.9801625908629508,0.24,succ_gain,1,3,579.7075081001967,None,ox19,1,2022-05-11_14h35.22.606,threat_forest,2021.2.3,60.05461373201944,
16,0,16,0,4,0,4,0,,,,,,,,,,right,1.3570407000370324,589.024378800299,ox19,577.7071977001615,579.7075081001967,589.024378800299,None,True,3,['r'],False,0.24,0.4,0.4,2.0,2.0,0.9801625908629508,-0.4,figh_cost,1,0,586.5570765002631,None,ox19,1,2022-05-11_14h35.22.606,threat_forest,2021.2.3,60.05461373201944,
16,0,16,0,,,,,,,,,,,,,,,,,,,,,,,,,,,,,,,,,,,,592.4074587002397,None,ox19,1,2022-05-11_14h35.22.606,threat_forest,2021.2.3,60.05461373201944,
17,0,17,0,0,0,0,0,,,,,,,593.5467598000541,597.0573196001351,None,right,1.6035716002807021,599.9413152001798,ox19,599.9413152001798,None,593.5467598000541,597.0573196001351,False,4,['r'],True,0.4,0.4,0.0,0.0,2.0,0.6126016192893442,0.0,wait_cost,0,3,,,ox19,1,2022-05-11_14h35.22.606,threat_forest,2021.2.3,60.05461373201944,
17,0,17,0,1,0,1,0,,,,,,,,,,right,1.5308754998259246,605.9745638002641,ox19,601.5743242003955,603.5740673001856,605.9745638002641,None,True,3,['r'],False,0.3333333333333333,0.5,0.3333333333333333,2.0,2.0,1.0,-0.3333333333333333,figh_cost,1,0,603.5740673001856,None,ox19,1,2022-05-11_14h35.22.606,threat_forest,2021.2.3,60.05461373201944,
17,0,17,0,,,,,,,,,,,,,,,,,,,,,,,,,,,,,,,,,,,,609.5245240000077,None,ox19,1,2022-05-11_14h35.22.606,threat_forest,2021.2.3,60.05461373201944,
