miniblock.thisRepN,miniblock.thisTrialN,miniblock.thisN,miniblock.thisIndex,day.thisRepN,day.thisTrialN,day.thisN,day.thisIndex,welcoming.started,welcoming.stopped,key_resp_2.keys,key_resp_2.rt,key_resp_2.started,key_resp_2.stopped,forest.started,fixation_forest.started,fixation_forest.stopped,key_resp.keys,key_resp.rt,key_resp.started,Subject_ID,weather_left.started,weather_left.stopped,weather_right.started,weather_right.stopped,foraging T/F,in_LP,p/r heuristic,good_weather.T/F,p_succ_correct,p_succ_uncorrected,r_threat,n_oponents,gain_if_succ,weather_entropy,OP_value_difference,action_outcome,forest_side_L=0_R=1,out_LP,fixation_day.started,fixation_day.stopped,n_day-1.out_LP.,participant,session,date,expName,psychopyVersion,frameRate,
,,,,,,,,10.526585900224745,None,space,3.0919530000537634,10.526585900224745,None,,,,,,,,,,,,,,,,,,,,,,,,,,,,,ox19,2,2022-05-11_14h45.45.574,threat_forest,2021.2.3,59.95832888144586,
0,0,0,0,0,0,0,0,,,,,,,13.675573700107634,17.186587600037456,None,left,1.292418200057,18.081798300147057,ox19,18.081798300147057,None,13.675573700107634,17.186587600037456,True,5,['p'],True,0.4444444444444445,0.6666666666666666,0.3333333333333333,1.0,2.0,0.9656336071428248,0.0,fight_cost,0,2,,,,ox19,2,2022-05-11_14h45.45.574,threat_forest,2021.2.3,59.95832888144586,
0,0,0,0,1,0,1,0,,,,,,,,,,left,1.3009967003017664,23.904136400204152,ox19,23.904136400204152,None,13.675573700107634,17.186587600037456,True,2,['p'],True,0.4444444444444445,0.6666666666666666,0.3333333333333333,1.0,2.0,0.9656336071428248,-0.5555555555555556,succ_gain,0,4,21.403484399896115,None,2,ox19,2,2022-05-11_14h45.45.574,threat_forest,2021.2.3,59.95832888144586,
0,0,0,0,2,0,2,0,,,,,,,,,,left,2.4619209999218583,28.22539609996602,ox19,25.23757220013067,27.23693950008601,28.22539609996602,None,False,4,['p'],False,0.2592592592592592,0.3333333333333333,0.2222222222222222,2.0,2.0,0.9327883776363324,0.0,wait_cost,1,3,27.23693950008601,None,4,ox19,2,2022-05-11_14h45.45.574,threat_forest,2021.2.3,59.95832888144586,
0,0,0,0,3,0,3,0,,,,,,,,,,left,1.0022761998698115,34.3540433999151,ox19,34.3540433999151,None,30.703916000202298,32.70471560023725,True,3,['p'],True,0.4444444444444445,0.6666666666666666,0.3333333333333333,1.0,2.0,0.9656336071428248,-0.3333333333333333,fight_cost,0,0,32.70471560023725,None,3,ox19,2,2022-05-11_14h45.45.574,threat_forest,2021.2.3,59.95832888144586,
0,0,0,0,,,,,,,,,,,,,,,,,,,,,,,,,,,,,,,,,,,,37.39053640002385,None,0,ox19,2,2022-05-11_14h45.45.574,threat_forest,2021.2.3,59.95832888144586,
1,0,1,0,0,0,0,0,,,,,,,38.49371760012582,42.00361429993063,None,right,0.9522897000424564,45.28806779999286,ox19,38.49371760012582,42.00361429993063,45.28806779999286,None,True,4,['r'],False,0.2222222222222222,0.6666666666666666,0.6666666666666666,2.0,2.0,0.77250688571426,0.0,fight_cost,1,1,,,,ox19,2,2022-05-11_14h45.45.574,threat_forest,2021.2.3,59.95832888144586,
1,0,1,0,1,0,1,0,,,,,,,,,,right,0.9716335996054113,50.720754500012845,ox19,38.49371760012582,42.00361429993063,50.720754500012845,None,True,1,['r'],False,0.2222222222222222,0.6666666666666666,0.6666666666666666,2.0,2.0,0.77250688571426,0.2222222222222222,fight_cost,1,0,48.270563799887896,None,1,ox19,2,2022-05-11_14h45.45.574,threat_forest,2021.2.3,59.95832888144586,
1,0,1,0,,,,,,,,,,,,,,,,,,,,,,,,,,,,,,,,,,,,53.72068449994549,None,0,ox19,2,2022-05-11_14h45.45.574,threat_forest,2021.2.3,59.95832888144586,
2,0,2,0,0,0,0,0,,,,,,,56.86143490020186,60.370705500245094,None,left,1.5239832000806928,63.22287579998374,ox19,56.86143490020186,60.370705500245094,63.22287579998374,None,False,5,['p'],False,0.2,0.2,0.0,0.0,1.0,0.4554859150035951,0.0,wait_cost,1,4,,,,ox19,2,2022-05-11_14h45.45.574,threat_forest,2021.2.3,59.95832888144586,
2,0,2,0,1,0,1,0,,,,,,,,,,right,1.4106314000673592,69.43787300027907,ox19,56.86143490020186,60.370705500245094,69.43787300027907,None,True,4,['p'],False,0.2,0.2,0.0,0.0,1.0,0.4554859150035951,0.0,unsucc_cost,1,2,66.7708045002073,None,4,ox19,2,2022-05-11_14h45.45.574,threat_forest,2021.2.3,59.95832888144586,
2,0,2,0,2,0,2,0,,,,,,,,,,left,1.1673537995666265,76.3045659000054,ox19,56.86143490020186,60.370705500245094,76.3045659000054,None,False,2,['p'],False,0.2,0.2,0.0,0.0,1.0,0.4554859150035951,-0.8,wait_cost,1,1,72.87083860021085,None,2,ox19,2,2022-05-11_14h45.45.574,threat_forest,2021.2.3,59.95832888144586,
2,0,2,0,3,0,3,0,,,,,,,,,,left,2.132993499748409,80.57162309996784,ox19,80.57162309996784,None,77.50451580015942,79.5043366998434,True,1,['p'],True,0.4444444444444445,0.6666666666666666,0.3333333333333333,1.0,1.0,0.9656336071428248,0.4444444444444444,succ_gain,0,2,79.5043366998434,None,1,ox19,2,2022-05-11_14h45.45.574,threat_forest,2021.2.3,59.95832888144586,
2,0,2,0,4,0,4,0,,,,,,,,,,left,1.9013208001852036,88.0461757001467,ox19,82.72168199997395,84.72105260007083,88.0461757001467,None,False,2,['p'],False,0.2,0.2,0.0,0.0,1.0,0.4554859150035951,-0.8,wait_cost,1,1,84.72105260007083,None,2,ox19,2,2022-05-11_14h45.45.574,threat_forest,2021.2.3,59.95832888144586,
2,0,2,0,5,0,5,0,,,,,,,,,,left,1.2655162997543812,95.37186500011012,ox19,95.37186500011012,None,89.9714517001994,91.97107740025967,True,1,['p'],True,0.4444444444444445,0.6666666666666666,0.3333333333333333,1.0,1.0,0.9656336071428248,0.4444444444444444,succ_gain,0,2,91.97107740025967,None,1,ox19,2,2022-05-11_14h45.45.574,threat_forest,2021.2.3,59.95832888144586,
2,0,2,0,6,0,6,0,,,,,,,,,,left,1.592511999886483,101.8927187002264,ox19,96.6552889002487,98.65458620013669,101.8927187002264,None,False,2,['p'],False,0.2,0.2,0.0,0.0,1.0,0.4554859150035951,-0.8,wait_cost,1,1,98.65458620013669,None,2,ox19,2,2022-05-11_14h45.45.574,threat_forest,2021.2.3,59.95832888144586,
2,0,2,0,7,0,7,0,,,,,,,,,,left,1.2651015999726951,107.67218670016155,ox19,107.67218670016155,None,103.5050766998902,105.504657600075,True,1,['p'],True,0.4444444444444445,0.6666666666666666,0.3333333333333333,1.0,1.0,0.9656336071428248,0.4444444444444444,unsucc_cost,0,0,105.504657600075,None,1,ox19,2,2022-05-11_14h45.45.574,threat_forest,2021.2.3,59.95832888144586,
2,0,2,0,,,,,,,,,,,,,,,,,,,,,,,,,,,,,,,,,,,,110.95477760024369,None,0,ox19,2,2022-05-11_14h45.45.574,threat_forest,2021.2.3,59.95832888144586,
3,0,3,0,0,0,0,0,,,,,,,111.69774940004572,115.2048110999167,None,right,1.7949808998964727,117.67226530006155,ox19,111.69774940004572,115.2048110999167,117.67226530006155,None,True,5,['r'],False,0.2592592592592592,0.3333333333333333,0.2222222222222222,2.0,2.0,0.9327883776363324,0.0,unsucc_cost,1,3,,,,ox19,2,2022-05-11_14h45.45.574,threat_forest,2021.2.3,59.95832888144586,
3,0,3,0,1,0,1,0,,,,,,,,,,right,1.0784403001889586,122.05513260001317,ox19,111.69774940004572,115.2048110999167,122.05513260001317,None,True,3,['r'],False,0.2592592592592592,0.3333333333333333,0.2222222222222222,2.0,2.0,0.9327883776363324,-0.2222222222222222,succ_gain,1,5,121.48830260010436,None,3,ox19,2,2022-05-11_14h45.45.574,threat_forest,2021.2.3,59.95832888144586,
3,0,3,0,2,0,2,0,,,,,,,,,,right,1.0423479001037776,128.17171340016648,ox19,111.69774940004572,115.2048110999167,128.17171340016648,None,True,5,['r'],False,0.2592592592592592,0.3333333333333333,0.2222222222222222,2.0,2.0,0.9327883776363324,0.0,unsucc_cost,1,3,125.15485499985516,None,5,ox19,2,2022-05-11_14h45.45.574,threat_forest,2021.2.3,59.95832888144586,
3,0,3,0,3,0,3,0,,,,,,,,,,right,1.6941946996375918,133.6403394001536,ox19,133.6403394001536,None,129.23857300030068,131.2383157000877,False,3,['r'],True,0.375,0.5,0.25,1.0,2.0,0.9850568223215076,-0.25,wait_cost,0,2,131.2383157000877,None,3,ox19,2,2022-05-11_14h45.45.574,threat_forest,2021.2.3,59.95832888144586,
3,0,3,0,4,0,4,0,,,,,,,,,,right,0.8546531000174582,140.55540629988536,ox19,135.35526539990678,137.35506400000304,140.55540629988536,None,True,2,['r'],False,0.2592592592592592,0.3333333333333333,0.2222222222222222,2.0,2.0,0.9327883776363324,-0.7407407407407408,unsucc_cost,1,0,137.35506400000304,None,2,ox19,2,2022-05-11_14h45.45.574,threat_forest,2021.2.3,59.95832888144586,
3,0,3,0,,,,,,,,,,,,,,,,,,,,,,,,,,,,,,,,,,,,143.43855710001662,None,0,ox19,2,2022-05-11_14h45.45.574,threat_forest,2021.2.3,59.95832888144586,
4,0,4,0,0,0,0,0,,,,,,,145.06239950004965,148.5719717000611,None,left,1.7082567000761628,150.9561538998969,ox19,145.06239950004965,148.5719717000611,150.9561538998969,None,False,4,['r'],False,0.1875,0.25,0.25,2.0,1.0,0.895754137500101,0.0,wait_cost,1,3,,,,ox19,2,2022-05-11_14h45.45.574,threat_forest,2021.2.3,59.95832888144586,
4,0,4,0,1,0,1,0,,,,,,,,,,left,1.1469187997281551,157.37276680022478,ox19,157.37276680022478,None,152.6912584998645,154.70544160017744,True,3,['r'],True,0.4444444444444445,0.6666666666666666,0.3333333333333333,1.0,1.0,0.9656336071428248,-0.3333333333333333,unsucc_cost,0,1,154.70544160017744,None,3,ox19,2,2022-05-11_14h45.45.574,threat_forest,2021.2.3,59.95832888144586,
4,0,4,0,2,0,2,0,,,,,,,,,,left,1.1905968002974987,163.00573430024087,ox19,163.00573430024087,None,152.6912584998645,154.70544160017744,True,1,['r'],True,0.4444444444444445,0.6666666666666666,0.3333333333333333,1.0,1.0,0.9656336071428248,0.4444444444444444,succ_gain,0,2,160.5390453999862,None,1,ox19,2,2022-05-11_14h45.45.574,threat_forest,2021.2.3,59.95832888144586,
4,0,4,0,3,0,3,0,,,,,,,,,,left,1.8517636000178754,167.85644100001082,ox19,164.22260509990156,166.2223192001693,167.85644100001082,None,False,2,['r'],False,0.1875,0.25,0.25,2.0,1.0,0.895754137500101,-0.8125,wait_cost,1,1,166.2223192001693,None,2,ox19,2,2022-05-11_14h45.45.574,threat_forest,2021.2.3,59.95832888144586,
4,0,4,0,4,0,4,0,,,,,,,,,,right,1.0839205998927355,174.45653290022165,ox19,164.22260509990156,166.2223192001693,174.45653290022165,None,True,1,['r'],False,0.1875,0.25,0.25,2.0,1.0,0.895754137500101,0.1875,unsucc_cost,1,0,171.73949060030282,None,1,ox19,2,2022-05-11_14h45.45.574,threat_forest,2021.2.3,59.95832888144586,
4,0,4,0,,,,,,,,,,,,,,,,,,,,,,,,,,,,,,,,,,,,177.5728845000267,None,0,ox19,2,2022-05-11_14h45.45.574,threat_forest,2021.2.3,59.95832888144586,
5,0,5,0,0,0,0,0,,,,,,,181.1942143002525,184.70578359998763,None,left,1.8596773999743164,187.0732879000716,ox19,181.1942143002525,184.70578359998763,187.0732879000716,None,False,4,['p'],False,0.2040816326530612,0.2857142857142857,0.2857142857142857,2.0,2.0,0.9335459102197724,0.0,wait_cost,1,3,,,,ox19,2,2022-05-11_14h45.45.574,threat_forest,2021.2.3,59.95832888144586,
5,0,5,0,1,0,1,0,,,,,,,,,,left,1.8692262996919453,193.7228677002713,ox19,181.1942143002525,184.70578359998763,193.7228677002713,None,False,3,['p'],False,0.2040816326530612,0.2857142857142857,0.2857142857142857,2.0,2.0,0.9335459102197724,-0.2857142857142857,wait_cost,1,2,190.9560936000198,None,3,ox19,2,2022-05-11_14h45.45.574,threat_forest,2021.2.3,59.95832888144586,
5,0,5,0,2,0,2,0,,,,,,,,,,right,1.628670800011605,200.4731111000292,ox19,181.1942143002525,184.70578359998763,200.4731111000292,None,True,2,['p'],False,0.2040816326530612,0.2857142857142857,0.2857142857142857,2.0,2.0,0.9335459102197724,-0.7959183673469388,unsucc_cost,1,0,197.62267909990624,None,2,ox19,2,2022-05-11_14h45.45.574,threat_forest,2021.2.3,59.95832888144586,
5,0,5,0,,,,,,,,,,,,,,,,,,,,,,,,,,,,,,,,,,,,204.1231471998617,None,0,ox19,2,2022-05-11_14h45.45.574,threat_forest,2021.2.3,59.95832888144586,
6,0,6,0,0,0,0,0,,,,,,,205.1788838999346,208.68951759999618,None,left,1.683355299755931,209.35705590015277,ox19,209.35705590015277,None,205.1788838999346,208.68951759999618,True,4,['p'],True,0.4444444444444445,0.6666666666666666,0.3333333333333333,1.0,1.0,0.9656336071428248,0.0,succ_gain,0,5,,,,ox19,2,2022-05-11_14h45.45.574,threat_forest,2021.2.3,59.95832888144586,
6,0,6,0,1,0,1,0,,,,,,,,,,left,1.5600413996726274,216.69329999992624,ox19,211.07333040004596,213.07284349994734,216.69329999992624,None,False,5,['p'],False,0.27,0.3,0.1,1.0,1.0,0.7963326591781347,0.0,wait_cost,1,4,213.07284349994734,None,5,ox19,2,2022-05-11_14h45.45.574,threat_forest,2021.2.3,59.95832888144586,
6,0,6,0,2,0,2,0,,,,,,,,,,left,1.140334699768573,223.0566611001268,ox19,223.0566611001268,None,218.27341319993138,220.2730487002991,True,4,['p'],True,0.4444444444444445,0.6666666666666666,0.3333333333333333,1.0,1.0,0.9656336071428248,0.0,fight_cost,0,1,220.2730487002991,None,4,ox19,2,2022-05-11_14h45.45.574,threat_forest,2021.2.3,59.95832888144586,
6,0,6,0,3,0,3,0,,,,,,,,,,left,1.1979550002142787,229.7405852000229,ox19,229.7405852000229,None,218.27341319993138,220.2730487002991,True,1,['p'],True,0.4444444444444445,0.6666666666666666,0.3333333333333333,1.0,1.0,0.9656336071428248,0.4444444444444444,fight_cost,0,0,226.22331700008363,None,1,ox19,2,2022-05-11_14h45.45.574,threat_forest,2021.2.3,59.95832888144586,
6,0,6,0,,,,,,,,,,,,,,,,,,,,,,,,,,,,,,,,,,,,232.95670340023935,None,0,ox19,2,2022-05-11_14h45.45.574,threat_forest,2021.2.3,59.95832888144586,
7,0,7,0,0,0,0,0,,,,,,,234.5623042001389,238.07324759988114,None,left,1.219800100196153,240.90750620001927,ox19,240.90750620001927,None,234.5623042001389,238.07324759988114,True,4,['p'],True,0.6,0.6,0.0,0.0,2.0,0.6126016192893442,0.0,unsucc_cost,0,2,,,,ox19,2,2022-05-11_14h45.45.574,threat_forest,2021.2.3,59.95832888144586,
7,0,7,0,1,0,1,0,,,,,,,,,,left,1.0205232999287546,247.20743580022827,ox19,247.20743580022827,None,234.5623042001389,238.07324759988114,True,2,['p'],True,0.6,0.6,0.0,0.0,2.0,0.6126016192893442,-0.4,succ_gain,0,4,244.15692500025034,None,2,ox19,2,2022-05-11_14h45.45.574,threat_forest,2021.2.3,59.95832888144586,
7,0,7,0,2,0,2,0,,,,,,,,,,left,1.0597365000285208,252.3071653000079,ox19,252.3071653000079,None,234.5623042001389,238.07324759988114,True,4,['p'],True,0.6,0.6,0.0,0.0,2.0,0.6126016192893442,0.0,succ_gain,0,6,250.25685340026394,None,4,ox19,2,2022-05-11_14h45.45.574,threat_forest,2021.2.3,59.95832888144586,
7,0,7,0,3,0,3,0,,,,,,,,,,right,1.3102710000239313,259.1241494999267,ox19,259.1241494999267,None,234.5623042001389,238.07324759988114,False,6,['p'],True,0.6,0.6,0.0,0.0,2.0,0.6126016192893442,0.0,wait_cost,0,5,255.39020729996264,None,6,ox19,2,2022-05-11_14h45.45.574,threat_forest,2021.2.3,59.95832888144586,
7,0,7,0,4,0,4,0,,,,,,,,,,right,0.8372649000957608,265.12407749984413,ox19,265.12407749984413,None,234.5623042001389,238.07324759988114,False,5,['p'],True,0.6,0.6,0.0,0.0,2.0,0.6126016192893442,0.0,wait_cost,0,4,262.4570627002977,None,5,ox19,2,2022-05-11_14h45.45.574,threat_forest,2021.2.3,59.95832888144586,
7,0,7,0,5,0,5,0,,,,,,,,,,left,1.3598172003403306,269.624861900229,ox19,265.9909973000176,267.9904868998565,269.624861900229,None,False,4,['p'],False,0.4444444444444445,0.6666666666666666,0.3333333333333333,2.0,2.0,0.9656336071428248,0.0,wait_cost,1,3,267.9904868998565,None,4,ox19,2,2022-05-11_14h45.45.574,threat_forest,2021.2.3,59.95832888144586,
7,0,7,0,6,0,6,0,,,,,,,,,,right,1.278031099587679,274.87460590014234,ox19,274.87460590014234,None,271.0073728002608,273.00716330017895,False,3,['p'],True,0.6,0.6,0.0,0.0,2.0,0.6126016192893442,0.0,wait_cost,0,2,273.00716330017895,None,3,ox19,2,2022-05-11_14h45.45.574,threat_forest,2021.2.3,59.95832888144586,
7,0,7,0,7,0,7,0,,,,,,,,,,right,0.8990545999258757,279.65815800009295,ox19,279.65815800009295,None,271.0073728002608,273.00716330017895,False,2,['p'],True,0.6,0.6,0.0,0.0,2.0,0.6126016192893442,-0.4,wait_cost,0,1,278.1739087002352,None,2,ox19,2,2022-05-11_14h45.45.574,threat_forest,2021.2.3,59.95832888144586,
7,0,7,0,,,,,,,,,,,,,,,,,,,,,,,,,,,,,,,,,,,,282.5739239999093,None,1,ox19,2,2022-05-11_14h45.45.574,threat_forest,2021.2.3,59.95832888144586,
8,0,8,0,0,0,0,0,,,,,,,283.32703260006383,286.8407545001246,None,left,1.0761335999704897,289.9413799000904,ox19,283.32703260006383,286.8407545001246,289.9413799000904,None,False,5,['p'],False,0.2222222222222222,0.6666666666666666,0.6666666666666666,2.0,2.0,0.77250688571426,0.0,wait_cost,1,4,,,,ox19,2,2022-05-11_14h45.45.574,threat_forest,2021.2.3,59.95832888144586,
8,0,8,0,1,0,1,0,,,,,,,,,,left,1.038259600289166,294.8078125999309,ox19,294.8078125999309,None,291.0411300002597,293.0407767998986,True,4,['p'],True,0.3333333333333333,0.3333333333333333,0.0,0.0,2.0,0.5793801642856949,0.0,unsucc_cost,0,2,293.0407767998986,None,4,ox19,2,2022-05-11_14h45.45.574,threat_forest,2021.2.3,59.95832888144586,
8,0,8,0,2,0,2,0,,,,,,,,,,left,1.595158000010997,298.9250002000481,ox19,298.9250002000481,None,291.0411300002597,293.0407767998986,True,2,['p'],True,0.3333333333333333,0.3333333333333333,0.0,0.0,2.0,0.5793801642856949,-0.6666666666666667,fight_cost,0,0,297.87422110000625,None,2,ox19,2,2022-05-11_14h45.45.574,threat_forest,2021.2.3,59.95832888144586,
8,0,8,0,,,,,,,,,,,,,,,,,,,,,,,,,,,,,,,,,,,,302.5411895001307,None,0,ox19,2,2022-05-11_14h45.45.574,threat_forest,2021.2.3,59.95832888144586,
9,0,9,0,0,0,0,0,,,,,,,305.8301548999734,309.34101819992065,None,right,1.5282492996193469,310.4746473999694,ox19,310.4746473999694,None,305.8301548999734,309.34101819992065,False,5,['p'],True,0.3333333333333333,0.3333333333333333,0.0,0.0,2.0,0.5793801642856949,0.0,wait_cost,0,4,,,,ox19,2,2022-05-11_14h45.45.574,threat_forest,2021.2.3,59.95832888144586,
9,0,9,0,1,0,1,0,,,,,,,,,,left,2.147016800008714,314.5746884001419,ox19,314.5746884001419,None,305.8301548999734,309.34101819992065,True,4,['p'],True,0.3333333333333333,0.3333333333333333,0.0,0.0,2.0,0.5793801642856949,0.0,succ_gain,0,6,314.0249168998562,None,4,ox19,2,2022-05-11_14h45.45.574,threat_forest,2021.2.3,59.95832888144586,
9,0,9,0,2,0,2,0,,,,,,,,,,right,1.491214099805802,319.6749919001013,ox19,319.6749919001013,None,305.8301548999734,309.34101819992065,False,6,['p'],True,0.3333333333333333,0.3333333333333333,0.0,0.0,2.0,0.5793801642856949,0.0,wait_cost,0,5,318.74115480016917,None,6,ox19,2,2022-05-11_14h45.45.574,threat_forest,2021.2.3,59.95832888144586,
9,0,9,0,3,0,3,0,,,,,,,,,,left,0.9305994999594986,326.82513070013374,ox19,326.82513070013374,None,305.8301548999734,309.34101819992065,True,5,['p'],True,0.3333333333333333,0.3333333333333333,0.0,0.0,2.0,0.5793801642856949,0.0,unsucc_cost,0,3,323.1911809002049,None,5,ox19,2,2022-05-11_14h45.45.574,threat_forest,2021.2.3,59.95832888144586,
9,0,9,0,4,0,4,0,,,,,,,,,,left,1.2411668999120593,330.4253138001077,ox19,330.4253138001077,None,305.8301548999734,309.34101819992065,True,3,['p'],True,0.3333333333333333,0.3333333333333333,0.0,0.0,2.0,0.5793801642856949,0.0,unsucc_cost,0,1,329.77505439985543,None,3,ox19,2,2022-05-11_14h45.45.574,threat_forest,2021.2.3,59.95832888144586,
9,0,9,0,5,0,5,0,,,,,,,,,,left,0.647594400215894,335.25889520021155,ox19,335.25889520021155,None,305.8301548999734,309.34101819992065,True,1,['p'],True,0.3333333333333333,0.3333333333333333,0.0,0.0,2.0,0.5793801642856949,0.3333333333333332,unsucc_cost,0,0,333.6913821999915,None,1,ox19,2,2022-05-11_14h45.45.574,threat_forest,2021.2.3,59.95832888144586,
9,0,9,0,,,,,,,,,,,,,,,,,,,,,,,,,,,,,,,,,,,,337.9249229002744,None,0,ox19,2,2022-05-11_14h45.45.574,threat_forest,2021.2.3,59.95832888144586,
10,0,10,0,0,0,0,0,,,,,,,339.6014141999185,343.10830620024353,None,right,2.2231848002411425,344.6423968998715,ox19,344.6423968998715,None,339.6014141999185,343.10830620024353,False,4,['p'],True,0.375,0.5,0.25,1.0,1.0,0.9850568223215076,0.0,wait_cost,0,3,,,,ox19,2,2022-05-11_14h45.45.574,threat_forest,2021.2.3,59.95832888144586,
10,0,10,0,1,0,1,0,,,,,,,,,,left,1.5446625002659857,349.67555060004815,ox19,349.67555060004815,None,339.6014141999185,343.10830620024353,True,3,['p'],True,0.375,0.5,0.25,1.0,1.0,0.9850568223215076,-0.25,fight_cost,0,0,348.8915754999034,None,3,ox19,2,2022-05-11_14h45.45.574,threat_forest,2021.2.3,59.95832888144586,
10,0,10,0,,,,,,,,,,,,,,,,,,,,,,,,,,,,,,,,,,,,353.24170950008556,None,0,ox19,2,2022-05-11_14h45.45.574,threat_forest,2021.2.3,59.95832888144586,
11,0,11,0,0,0,0,0,,,,,,,354.32599289994687,357.82507580006495,None,right,1.4731228998862207,359.2593404999934,ox19,359.2593404999934,None,354.32599289994687,357.82507580006495,False,5,['p'],True,0.3333333333333333,0.3333333333333333,0.0,0.0,1.0,0.5793801642856949,0.0,wait_cost,0,4,,,,ox19,2,2022-05-11_14h45.45.574,threat_forest,2021.2.3,59.95832888144586,
11,0,11,0,1,0,1,0,,,,,,,,,,right,1.9067410002462566,365.025778000243,ox19,365.025778000243,None,354.32599289994687,357.82507580006495,False,4,['p'],True,0.3333333333333333,0.3333333333333333,0.0,0.0,1.0,0.5793801642856949,0.0,wait_cost,0,3,362.75864320015535,None,4,ox19,2,2022-05-11_14h45.45.574,threat_forest,2021.2.3,59.95832888144586,
11,0,11,0,2,0,2,0,,,,,,,,,,right,1.5233064000494778,370.4423747002147,ox19,366.9590414999984,368.95860380027443,370.4423747002147,None,True,3,['p'],False,0.2222222222222222,0.6666666666666666,0.6666666666666666,2.0,1.0,0.77250688571426,-0.6666666666666666,fight_cost,1,0,368.95860380027443,None,3,ox19,2,2022-05-11_14h45.45.574,threat_forest,2021.2.3,59.95832888144586,
11,0,11,0,,,,,,,,,,,,,,,,,,,,,,,,,,,,,,,,,,,,373.9921311000362,None,0,ox19,2,2022-05-11_14h45.45.574,threat_forest,2021.2.3,59.95832888144586,
12,0,12,0,0,0,0,0,,,,,,,377.42235120013356,380.9112114002928,None,left,1.2482723998837173,381.72640739986673,ox19,381.72640739986673,None,377.42235120013356,380.9112114002928,True,4,['r'],True,0.625,0.625,0.0,0.0,2.0,0.6021808102656677,0.0,succ_gain,0,6,,,,ox19,2,2022-05-11_14h45.45.574,threat_forest,2021.2.3,59.95832888144586,
12,0,12,0,1,0,1,0,,,,,,,,,,right,2.3030419000424445,388.3430722998455,ox19,388.3430722998455,None,377.42235120013356,380.9112114002928,False,6,['r'],True,0.625,0.625,0.0,0.0,2.0,0.6021808102656677,0.0,wait_cost,0,5,384.99215009994805,None,6,ox19,2,2022-05-11_14h45.45.574,threat_forest,2021.2.3,59.95832888144586,
12,0,12,0,2,0,2,0,,,,,,,,,,right,1.062939700204879,394.14311349997297,ox19,390.67597310012206,392.6756806001067,394.14311349997297,None,True,5,['r'],False,0.5185185185185185,0.6666666666666666,0.2222222222222222,2.0,2.0,0.9327883776363328,0.0,succ_gain,1,6,392.6756806001067,None,5,ox19,2,2022-05-11_14h45.45.574,threat_forest,2021.2.3,59.95832888144586,
12,0,12,0,3,0,3,0,,,,,,,,,,left,1.611486699897796,398.09272269997746,ox19,390.67597310012206,392.6756806001067,398.09272269997746,None,False,6,['r'],False,0.5185185185185185,0.6666666666666666,0.2222222222222222,2.0,2.0,0.9327883776363328,0.0,wait_cost,1,5,397.2257441999391,None,6,ox19,2,2022-05-11_14h45.45.574,threat_forest,2021.2.3,59.95832888144586,
12,0,12,0,4,0,4,0,,,,,,,,,,right,1.0830542999319732,403.3796597002074,ox19,403.3796597002074,None,399.7261590003036,401.725849899929,False,5,['r'],True,0.625,0.625,0.0,0.0,2.0,0.6021808102656677,0.0,wait_cost,0,4,401.725849899929,None,5,ox19,2,2022-05-11_14h45.45.574,threat_forest,2021.2.3,59.95832888144586,
12,0,12,0,5,0,5,0,,,,,,,,,,left,1.1193609000183642,407.9430984002538,ox19,404.49283799994737,406.49253020016477,407.9430984002538,None,False,4,['r'],False,0.5185185185185185,0.6666666666666666,0.2222222222222222,2.0,2.0,0.9327883776363328,0.0,wait_cost,1,3,406.49253020016477,None,4,ox19,2,2022-05-11_14h45.45.574,threat_forest,2021.2.3,59.95832888144586,
12,0,12,0,6,0,6,0,,,,,,,,,,left,0.6688490998931229,412.97649080026895,ox19,404.49283799994737,406.49253020016477,412.97649080026895,None,False,3,['r'],False,0.5185185185185185,0.6666666666666666,0.2222222222222222,2.0,2.0,0.9327883776363328,-0.2222222222222222,wait_cost,1,2,411.09262110013515,None,3,ox19,2,2022-05-11_14h45.45.574,threat_forest,2021.2.3,59.95832888144586,
12,0,12,0,7,0,7,0,,,,,,,,,,left,0.6854495001025498,419.10994670027867,ox19,404.49283799994737,406.49253020016477,419.10994670027867,None,False,2,['r'],False,0.5185185185185185,0.6666666666666666,0.2222222222222222,2.0,2.0,0.9327883776363328,-0.4814814814814815,wait_cost,1,1,415.6760706002824,None,2,ox19,2,2022-05-11_14h45.45.574,threat_forest,2021.2.3,59.95832888144586,
12,0,12,0,,,,,,,,,,,,,,,,,,,,,,,,,,,,,,,,,,,,421.82617689995095,None,1,ox19,2,2022-05-11_14h45.45.574,threat_forest,2021.2.3,59.95832888144586,
13,0,13,0,0,0,0,0,,,,,,,424.16657690005377,427.6761841000989,None,right,1.3069286001846194,428.94309280021116,ox19,424.16657690005377,427.6761841000989,428.94309280021116,None,True,4,['r'],False,0.4081632653061224,0.5714285714285714,0.2857142857142857,2.0,2.0,0.9885754083994552,0.0,fight_cost,1,1,,,,ox19,2,2022-05-11_14h45.45.574,threat_forest,2021.2.3,59.95832888144586,
13,0,13,0,1,0,1,0,,,,,,,,,,left,1.35025139991194,434.91022520000115,ox19,434.91022520000115,None,430.2768576000817,432.2763630002737,True,1,['r'],True,0.5,0.5,0.0,0.0,2.0,0.6309297535714574,0.5,succ_gain,0,3,432.2763630002737,None,1,ox19,2,2022-05-11_14h45.45.574,threat_forest,2021.2.3,59.95832888144586,
13,0,13,0,2,0,2,0,,,,,,,,,,right,1.5061119999736547,439.9269175999798,ox19,436.29324290016666,438.2930298000574,439.9269175999798,None,True,3,['r'],False,0.4081632653061224,0.5714285714285714,0.2857142857142857,2.0,2.0,0.9885754083994552,-0.2857142857142857,fight_cost,1,0,438.2930298000574,None,3,ox19,2,2022-05-11_14h45.45.574,threat_forest,2021.2.3,59.95832888144586,
13,0,13,0,,,,,,,,,,,,,,,,,,,,,,,,,,,,,,,,,,,,443.4598217001185,None,0,ox19,2,2022-05-11_14h45.45.574,threat_forest,2021.2.3,59.95832888144586,
14,0,14,0,0,0,0,0,,,,,,,445.41942710010335,448.92649149987847,None,right,1.5500737996771932,449.9440009999089,ox19,449.9440009999089,None,445.41942710010335,448.92649149987847,False,5,['p'],True,0.32,0.4,0.2,1.0,1.0,0.9455672104350704,0.0,wait_cost,0,4,,,,ox19,2,2022-05-11_14h45.45.574,threat_forest,2021.2.3,59.95832888144586,
14,0,14,0,1,0,1,0,,,,,,,,,,left,1.6586450999602675,454.095242400188,ox19,451.5268349000253,453.52660660026595,454.095242400188,None,False,4,['p'],False,0.1975308641975308,0.2222222222222222,0.1111111111111111,1.0,1.0,0.7461067557824965,0.0,wait_cost,1,3,453.52660660026595,None,4,ox19,2,2022-05-11_14h45.45.574,threat_forest,2021.2.3,59.95832888144586,
14,0,14,0,2,0,2,0,,,,,,,,,,left,1.5861920998431742,461.16086120018736,ox19,461.16086120018736,None,455.776887900196,457.7766908002086,True,3,['p'],True,0.32,0.4,0.2,1.0,1.0,0.9455672104350704,-0.2,unsucc_cost,0,1,457.7766908002086,None,3,ox19,2,2022-05-11_14h45.45.574,threat_forest,2021.2.3,59.95832888144586,
14,0,14,0,3,0,3,0,,,,,,,,,,right,1.6594229997135699,467.77708620019257,ox19,462.7769527998753,464.77679869998246,467.77708620019257,None,True,1,['p'],False,0.1975308641975308,0.2222222222222222,0.1111111111111111,1.0,1.0,0.7461067557824965,0.1975308641975308,unsucc_cost,1,0,464.77679869998246,None,1,ox19,2,2022-05-11_14h45.45.574,threat_forest,2021.2.3,59.95832888144586,
14,0,14,0,,,,,,,,,,,,,,,,,,,,,,,,,,,,,,,,,,,,471.4602198000066,None,0,ox19,2,2022-05-11_14h45.45.574,threat_forest,2021.2.3,59.95832888144586,
15,0,15,0,0,0,0,0,,,,,,,472.32963200006634,475.84348700009286,None,left,1.4848023001104593,478.8608889998868,ox19,472.32963200006634,475.84348700009286,478.8608889998868,None,False,5,['p'],False,0.2222222222222222,0.6666666666666666,0.6666666666666666,2.0,1.0,0.77250688571426,0.0,wait_cost,1,4,,,,ox19,2,2022-05-11_14h45.45.574,threat_forest,2021.2.3,59.95832888144586,
15,0,15,0,1,0,1,0,,,,,,,,,,left,2.0825887001119554,483.66054109996185,ox19,472.32963200006634,475.84348700009286,483.66054109996185,None,False,4,['p'],False,0.2222222222222222,0.6666666666666666,0.6666666666666666,2.0,1.0,0.77250688571426,0.0,wait_cost,1,3,482.3771446002647,None,4,ox19,2,2022-05-11_14h45.45.574,threat_forest,2021.2.3,59.95832888144586,
15,0,15,0,2,0,2,0,,,,,,,,,,right,2.6282100998796523,490.24426779989153,ox19,472.32963200006634,475.84348700009286,490.24426779989153,None,True,3,['p'],False,0.2222222222222222,0.6666666666666666,0.6666666666666666,2.0,1.0,0.77250688571426,-0.6666666666666666,unsucc_cost,1,1,487.76042940001935,None,3,ox19,2,2022-05-11_14h45.45.574,threat_forest,2021.2.3,59.95832888144586,
15,0,15,0,3,0,3,0,,,,,,,,,,right,0.8108064997941256,497.3779821000062,ox19,472.32963200006634,475.84348700009286,497.3779821000062,None,True,1,['p'],False,0.2222222222222222,0.6666666666666666,0.6666666666666666,2.0,1.0,0.77250688571426,0.2222222222222222,unsucc_cost,1,0,494.8938680002466,None,1,ox19,2,2022-05-11_14h45.45.574,threat_forest,2021.2.3,59.95832888144586,
15,0,15,0,,,,,,,,,,,,,,,,,,,,,,,,,,,,,,,,,,,,500.2107319999486,None,0,ox19,2,2022-05-11_14h45.45.574,threat_forest,2021.2.3,59.95832888144586,
16,0,16,0,0,0,0,0,,,,,,,503.75079450011253,507.26057070028037,None,left,1.7296327999792993,510.7952459002845,ox19,510.7952459002845,None,503.75079450011253,507.26057070028037,True,5,['r'],True,0.5,0.5,0.0,0.0,2.0,0.6309297535714574,0.0,succ_gain,0,6,,,,ox19,2,2022-05-11_14h45.45.574,threat_forest,2021.2.3,59.95832888144586,
16,0,16,0,1,0,1,0,,,,,,,,,,right,1.325447800103575,516.4277985999361,ox19,516.4277985999361,None,503.75079450011253,507.26057070028037,False,6,['r'],True,0.5,0.5,0.0,0.0,2.0,0.6309297535714574,0.0,wait_cost,0,5,514.5441046999767,None,6,ox19,2,2022-05-11_14h45.45.574,threat_forest,2021.2.3,59.95832888144586,
16,0,16,0,2,0,2,0,,,,,,,,,,left,0.8975454000756145,521.7783241001889,ox19,521.7783241001889,None,503.75079450011253,507.26057070028037,True,5,['r'],True,0.5,0.5,0.0,0.0,2.0,0.6309297535714574,0.0,fight_cost,0,2,519.7775437003002,None,5,ox19,2,2022-05-11_14h45.45.574,threat_forest,2021.2.3,59.95832888144586,
16,0,16,0,3,0,3,0,,,,,,,,,,left,1.1143759996630251,527.2281458000652,ox19,527.2281458000652,None,503.75079450011253,507.26057070028037,True,2,['r'],True,0.5,0.5,0.0,0.0,2.0,0.6309297535714574,-0.5,fight_cost,0,0,524.694327800069,None,2,ox19,2,2022-05-11_14h45.45.574,threat_forest,2021.2.3,59.95832888144586,
16,0,16,0,,,,,,,,,,,,,,,,,,,,,,,,,,,,,,,,,,,,530.3612494999543,None,0,ox19,2,2022-05-11_14h45.45.574,threat_forest,2021.2.3,59.95832888144586,
17,0,17,0,0,0,0,0,,,,,,,533.5314428000711,537.0445936000906,None,right,1.5911879003979266,540.6286784000695,ox19,533.5314428000711,537.0445936000906,540.6286784000695,None,True,5,['r'],False,0.2222222222222222,0.6666666666666666,0.6666666666666666,2.0,2.0,0.77250688571426,0.0,fight_cost,1,2,,,,ox19,2,2022-05-11_14h45.45.574,threat_forest,2021.2.3,59.95832888144586,
17,0,17,0,1,0,1,0,,,,,,,,,,right,2.513322100043297,545.8121366002597,ox19,533.5314428000711,537.0445936000906,545.8121366002597,None,True,2,['r'],False,0.2222222222222222,0.6666666666666666,0.6666666666666666,2.0,2.0,0.77250688571426,-0.7777777777777778,fight_cost,1,0,544.244570299983,None,2,ox19,2,2022-05-11_14h45.45.574,threat_forest,2021.2.3,59.95832888144586,
17,0,17,0,,,,,,,,,,,,,,,,,,,,,,,,,,,,,,,,,,,,550.3447245000862,None,0,ox19,2,2022-05-11_14h45.45.574,threat_forest,2021.2.3,59.95832888144586,
