miniblock.thisRepN,miniblock.thisTrialN,miniblock.thisN,miniblock.thisIndex,day.thisRepN,day.thisTrialN,day.thisN,day.thisIndex,welcoming.started,welcoming.stopped,key_resp_2.keys,key_resp_2.rt,key_resp_2.started,key_resp_2.stopped,forest.started,fixation_forest.started,fixation_forest.stopped,key_resp.keys,key_resp.rt,key_resp.started,Subject_ID,weather_left.started,weather_left.stopped,weather_right.started,weather_right.stopped,foraging T/F,in_LP,p/r heuristic,good_weather.T/F,p_succ_correct,p_succ_uncorrected,r_threat,n_oponents,gain_if_succ,weather_entropy,OP_value_difference,action_outcome,forest_side_L=0_R=1,out_LP,fixation_day.started,fixation_day.stopped,n_day-1.out_LP.,participant,session,date,expName,psychopyVersion,frameRate,
,,,,,,,,10.006542999763042,None,space,3.164485599845648,10.006542999763042,None,,,,,,,,,,,,,,,,,,,,,,,,,,,,,ae11,2,2022-04-29_14h41.34.857,threat_forest,2021.2.3,59.91044588103704,
0,0,0,0,0,0,0,0,,,,,,,13.24880569986999,16.760542399715632,None,left,0.6842039003968239,17.798444699961692,ae11,17.798444699961692,None,13.24880569986999,16.760542399715632,True,4,['p'],True,0.25,0.25,0.0,0.0,1.0,0.5118595071429148,0.0,unsucc_cost,0,2,,,,ae11,2,2022-04-29_14h41.34.857,threat_forest,2021.2.3,59.91044588103704,
0,0,0,0,1,0,1,0,,,,,,,,,,left,0.8026390001177788,21.19642119994387,ae11,21.19642119994387,None,13.24880569986999,16.760542399715632,True,2,['p'],True,0.25,0.25,0.0,0.0,1.0,0.5118595071429148,-0.75,succ_gain,0,3,20.51015209965408,None,2,ae11,2,2022-04-29_14h41.34.857,threat_forest,2021.2.3,59.91044588103704,
0,0,0,0,2,0,2,0,,,,,,,,,,left,0.934628099668771,25.234337999951094,ae11,22.030359100084752,24.043845999985933,25.234337999951094,None,False,3,['p'],False,0.2222222222222222,0.6666666666666666,0.6666666666666666,2.0,1.0,0.77250688571426,-0.6666666666666666,wait_cost,1,2,24.043845999985933,None,3,ae11,2,2022-04-29_14h41.34.857,threat_forest,2021.2.3,59.91044588103704,
0,0,0,0,3,0,3,0,,,,,,,,,,left,0.6785250999964774,29.550618999637663,ae11,29.550618999637663,None,26.194108999799937,28.193795599974692,True,2,['p'],True,0.25,0.25,0.0,0.0,1.0,0.5118595071429148,-0.75,unsucc_cost,0,0,28.193795599974692,None,2,ae11,2,2022-04-29_14h41.34.857,threat_forest,2021.2.3,59.91044588103704,
0,0,0,0,,,,,,,,,,,,,,,,,,,,,,,,,,,,,,,,,,,,32.265045600011945,None,0,ae11,2,2022-04-29_14h41.34.857,threat_forest,2021.2.3,59.91044588103704,
1,0,1,0,0,0,0,0,,,,,,,35.75745359994471,39.26100849965587,None,left,0.3348689000122249,41.10311529971659,ae11,41.10311529971659,None,35.75745359994471,39.26100849965587,True,4,['p'],True,0.3333333333333333,0.3333333333333333,0.0,0.0,1.0,0.5793801642856949,0.0,succ_gain,0,5,,,,ae11,2,2022-04-29_14h41.34.857,threat_forest,2021.2.3,59.91044588103704,
1,0,1,0,1,0,1,0,,,,,,,,,,left,0.5933988001197577,45.94862450007349,ae11,45.94862450007349,None,35.75745359994471,39.26100849965587,True,5,['p'],True,0.3333333333333333,0.3333333333333333,0.0,0.0,1.0,0.5793801642856949,0.0,unsucc_cost,0,3,43.46078359987587,None,5,ae11,2,2022-04-29_14h41.34.857,threat_forest,2021.2.3,59.91044588103704,
1,0,1,0,2,0,2,0,,,,,,,,,,left,0.6866859002038836,50.09428839990869,ae11,50.09428839990869,None,35.75745359994471,39.26100849965587,True,3,['p'],True,0.3333333333333333,0.3333333333333333,0.0,0.0,1.0,0.5793801642856949,0.0,unsucc_cost,0,1,48.560957099776715,None,3,ae11,2,2022-04-29_14h41.34.857,threat_forest,2021.2.3,59.91044588103704,
1,0,1,0,3,0,3,0,,,,,,,,,,left,0.6693830001167953,56.59475669963285,ae11,56.59475669963285,None,35.75745359994471,39.26100849965587,True,1,['p'],True,0.3333333333333333,0.3333333333333333,0.0,0.0,1.0,0.5793801642856949,0.3333333333333332,unsucc_cost,0,0,52.81082409992814,None,1,ae11,2,2022-04-29_14h41.34.857,threat_forest,2021.2.3,59.91044588103704,
1,0,1,0,,,,,,,,,,,,,,,,,,,,,,,,,,,,,,,,,,,,59.294384399894625,None,0,ae11,2,2022-04-29_14h41.34.857,threat_forest,2021.2.3,59.91044588103704,
2,0,2,0,0,0,0,0,,,,,,,62.125104799866676,65.61692979978397,None,None,,67.17096709972247,ae11,62.125104799866676,65.61692979978397,67.17096709972247,None,None,4,['p'],False,0.1975308641975308,0.2222222222222222,0.1111111111111111,1.0,2.0,0.7461067557824965,0.0,wait_cost,1,3,,,,ae11,2,2022-04-29_14h41.34.857,threat_forest,2021.2.3,59.91044588103704,
2,0,2,0,1,0,1,0,,,,,,,,,,left,0.6457458999939263,73.45206749998033,ae11,73.45206749998033,None,70.17809979990125,72.17794719990343,True,3,['p'],True,0.2777777777777778,0.3333333333333333,0.1666666666666666,1.0,2.0,0.8929352898779304,-0.1666666666666666,unsucc_cost,0,1,72.17794719990343,None,3,ae11,2,2022-04-29_14h41.34.857,threat_forest,2021.2.3,59.91044588103704,
2,0,2,0,2,0,2,0,,,,,,,,,,left,0.7984720002859831,76.81176669988781,ae11,76.81176669988781,None,70.17809979990125,72.17794719990343,True,1,['p'],True,0.2777777777777778,0.3333333333333333,0.1666666666666666,1.0,2.0,0.8929352898779304,0.2777777777777777,unsucc_cost,0,0,76.128149099648,None,1,ae11,2,2022-04-29_14h41.34.857,threat_forest,2021.2.3,59.91044588103704,
2,0,2,0,,,,,,,,,,,,,,,,,,,,,,,,,,,,,,,,,,,,79.62824259977788,None,0,ae11,2,2022-04-29_14h41.34.857,threat_forest,2021.2.3,59.91044588103704,
3,0,3,0,0,0,0,0,,,,,,,82.4314572000876,85.9214932997711,None,right,0.6859030001796782,86.93966750008985,ae11,82.4314572000876,85.9214932997711,86.93966750008985,None,True,5,['p'],False,0.3950617283950617,0.4444444444444444,0.1111111111111111,1.0,2.0,0.8733423231021583,0.0,succ_gain,1,6,,,,ae11,2,2022-04-29_14h41.34.857,threat_forest,2021.2.3,59.91044588103704,
3,0,3,0,1,0,1,0,,,,,,,,,,left,0.6984923998825252,92.56728779990226,ae11,82.4314572000876,85.9214932997711,92.56728779990226,None,False,6,['p'],False,0.3950617283950617,0.4444444444444444,0.1111111111111111,1.0,2.0,0.8733423231021583,0.0,wait_cost,1,5,89.645043999888,None,6,ae11,2,2022-04-29_14h41.34.857,threat_forest,2021.2.3,59.91044588103704,
3,0,3,0,2,0,2,0,,,,,,,,,,left,0.7781499000266194,97.2315752999857,ae11,82.4314572000876,85.9214932997711,97.2315752999857,None,False,5,['p'],False,0.3950617283950617,0.4444444444444444,0.1111111111111111,1.0,2.0,0.8733423231021583,0.0,wait_cost,1,4,95.29531249962747,None,5,ae11,2,2022-04-29_14h41.34.857,threat_forest,2021.2.3,59.91044588103704,
3,0,3,0,3,0,3,0,,,,,,,,,,right,1.4033873002044857,102.98640079982579,ae11,102.98640079982579,None,98.028656499926,100.0283991000615,False,4,['p'],True,0.5555555555555556,0.6666666666666666,0.1666666666666666,1.0,2.0,0.8929352898779306,0.0,wait_cost,0,3,100.0283991000615,None,4,ae11,2,2022-04-29_14h41.34.857,threat_forest,2021.2.3,59.91044588103704,
3,0,3,0,4,0,4,0,,,,,,,,,,right,0.6276491996832192,110.08554330002517,ae11,104.41177950007841,106.41146710002795,110.08554330002517,None,True,3,['p'],False,0.3950617283950617,0.4444444444444444,0.1111111111111111,1.0,2.0,0.8733423231021583,-0.1111111111111111,succ_gain,1,5,106.41146710002795,None,3,ae11,2,2022-04-29_14h41.34.857,threat_forest,2021.2.3,59.91044588103704,
3,0,3,0,5,0,5,0,,,,,,,,,,right,0.668649900238961,114.08991409977898,ae11,114.08991409977898,None,110.74543830007315,112.74481040006503,False,5,['p'],True,0.5555555555555556,0.6666666666666666,0.1666666666666666,1.0,2.0,0.8929352898779306,0.0,wait_cost,0,4,112.74481040006503,None,5,ae11,2,2022-04-29_14h41.34.857,threat_forest,2021.2.3,59.91044588103704,
3,0,3,0,6,0,6,0,,,,,,,,,,right,0.6283599999733269,119.11764539964497,ae11,119.11764539964497,None,110.74543830007315,112.74481040006503,False,4,['p'],True,0.5555555555555556,0.6666666666666666,0.1666666666666666,1.0,2.0,0.8929352898779306,0.0,wait_cost,0,3,116.778525499627,None,4,ae11,2,2022-04-29_14h41.34.857,threat_forest,2021.2.3,59.91044588103704,
3,0,3,0,7,0,7,0,,,,,,,,,,right,0.6009363001212478,122.44693979993463,ae11,122.44693979993463,None,110.74543830007315,112.74481040006503,False,3,['p'],True,0.5555555555555556,0.6666666666666666,0.1666666666666666,1.0,2.0,0.8929352898779306,-0.1666666666666666,wait_cost,0,2,121.76201479975134,None,3,ae11,2,2022-04-29_14h41.34.857,threat_forest,2021.2.3,59.91044588103704,
3,0,3,0,,,,,,,,,,,,,,,,,,,,,,,,,,,,,,,,,,,,125.07877769973129,None,2,ae11,2,2022-04-29_14h41.34.857,threat_forest,2021.2.3,59.91044588103704,
4,0,4,0,0,0,0,0,,,,,,,126.50132460007444,130.01214829972014,None,left,0.7374839000403881,133.5785610000603,ae11,133.5785610000603,None,126.50132460007444,130.01214829972014,True,4,['r'],True,0.5,0.5,0.0,0.0,1.0,0.6309297535714574,0.0,succ_gain,0,5,,,,ae11,2,2022-04-29_14h41.34.857,threat_forest,2021.2.3,59.91044588103704,
4,0,4,0,1,0,1,0,,,,,,,,,,left,0.7316169999539852,137.4457062999718,ae11,137.4457062999718,None,126.50132460007444,130.01214829972014,True,5,['r'],True,0.5,0.5,0.0,0.0,1.0,0.6309297535714574,0.0,succ_gain,0,6,136.34540029987693,None,5,ae11,2,2022-04-29_14h41.34.857,threat_forest,2021.2.3,59.91044588103704,
4,0,4,0,2,0,2,0,,,,,,,,,,right,0.9736874997615814,142.08009349973872,ae11,142.08009349973872,None,126.50132460007444,130.01214829972014,False,6,['r'],True,0.5,0.5,0.0,0.0,1.0,0.6309297535714574,0.0,wait_cost,0,5,140.19563909992576,None,6,ae11,2,2022-04-29_14h41.34.857,threat_forest,2021.2.3,59.91044588103704,
4,0,4,0,3,0,3,0,,,,,,,,,,left,0.8413081001490355,146.41831369977444,ae11,143.07896779989824,145.0788131998852,146.41831369977444,None,False,5,['r'],False,0.2222222222222222,0.6666666666666666,0.6666666666666666,2.0,1.0,0.77250688571426,0.0,wait_cost,1,4,145.0788131998852,None,5,ae11,2,2022-04-29_14h41.34.857,threat_forest,2021.2.3,59.91044588103704,
4,0,4,0,4,0,4,0,,,,,,,,,,left,0.750834200065583,149.9487529997714,ae11,149.9487529997714,None,147.27927189972252,149.27915519988164,True,4,['r'],True,0.5,0.5,0.0,0.0,1.0,0.6309297535714574,0.0,unsucc_cost,0,2,149.27915519988164,None,4,ae11,2,2022-04-29_14h41.34.857,threat_forest,2021.2.3,59.91044588103704,
4,0,4,0,5,0,5,0,,,,,,,,,,left,0.524277999997139,154.1956862998195,ae11,154.1956862998195,None,147.27927189972252,149.27915519988164,True,2,['r'],True,0.5,0.5,0.0,0.0,1.0,0.6309297535714574,-0.5,unsucc_cost,0,0,152.72899729991332,None,2,ae11,2,2022-04-29_14h41.34.857,threat_forest,2021.2.3,59.91044588103704,
4,0,4,0,,,,,,,,,,,,,,,,,,,,,,,,,,,,,,,,,,,,156.7459191000089,None,0,ae11,2,2022-04-29_14h41.34.857,threat_forest,2021.2.3,59.91044588103704,
5,0,5,0,0,0,0,0,,,,,,,157.6738310996443,161.1794829997234,None,right,0.7886385000310838,164.93957399995998,ae11,164.93957399995998,None,157.6738310996443,161.1794829997234,False,5,['r'],True,0.6,0.6,0.0,0.0,2.0,0.6126016192893442,0.0,wait_cost,0,4,,,,ae11,2,2022-04-29_14h41.34.857,threat_forest,2021.2.3,59.91044588103704,
5,0,5,0,1,0,1,0,,,,,,,,,,right,0.657279500272125,170.75350999971852,ae11,165.74644379969686,167.74620139971375,170.75350999971852,None,True,4,['r'],False,0.46875,0.625,0.25,2.0,2.0,0.9634951148421658,0.0,succ_gain,1,6,167.74620139971375,None,4,ae11,2,2022-04-29_14h41.34.857,threat_forest,2021.2.3,59.91044588103704,
5,0,5,0,2,0,2,0,,,,,,,,,,right,0.6261905003339052,177.23734579980373,ae11,177.23734579980373,None,171.42986749997362,173.42949809972197,False,6,['r'],True,0.6,0.6,0.0,0.0,2.0,0.6126016192893442,0.0,wait_cost,0,5,173.42949809972197,None,6,ae11,2,2022-04-29_14h41.34.857,threat_forest,2021.2.3,59.91044588103704,
5,0,5,0,3,0,3,0,,,,,,,,,,right,0.750036499928683,183.4339825999923,ae11,183.4339825999923,None,171.42986749997362,173.42949809972197,False,5,['r'],True,0.6,0.6,0.0,0.0,2.0,0.6126016192893442,0.0,wait_cost,0,4,179.8961628000252,None,5,ae11,2,2022-04-29_14h41.34.857,threat_forest,2021.2.3,59.91044588103704,
5,0,5,0,4,0,4,0,,,,,,,,,,right,0.6794531000778079,187.58406969998032,ae11,187.58406969998032,None,171.42986749997362,173.42949809972197,False,4,['r'],True,0.6,0.6,0.0,0.0,2.0,0.6126016192893442,0.0,wait_cost,0,3,186.21298049995676,None,4,ae11,2,2022-04-29_14h41.34.857,threat_forest,2021.2.3,59.91044588103704,
5,0,5,0,5,0,5,0,,,,,,,,,,left,1.6020649001002312,191.22003159997985,ae11,188.28469239966944,190.29623709991574,191.22003159997985,None,False,3,['r'],False,0.46875,0.625,0.25,2.0,2.0,0.9634951148421658,-0.25,wait_cost,1,2,190.29623709991574,None,3,ae11,2,2022-04-29_14h41.34.857,threat_forest,2021.2.3,59.91044588103704,
5,0,5,0,6,0,6,0,,,,,,,,,,right,0.7046666000969708,196.77121979976073,ae11,196.77121979976073,None,192.84672789974138,194.84665369987488,False,2,['r'],True,0.6,0.6,0.0,0.0,2.0,0.6126016192893442,-0.4,wait_cost,0,1,194.84665369987488,None,2,ae11,2,2022-04-29_14h41.34.857,threat_forest,2021.2.3,59.91044588103704,
5,0,5,0,7,0,7,0,,,,,,,,,,left,0.8215527003630996,203.23293559998274,ae11,203.23293559998274,None,192.84672789974138,194.84665369987488,True,1,['r'],True,0.6,0.6,0.0,0.0,2.0,0.6126016192893442,0.6,fight_cost,0,0,199.4966843998991,None,1,ae11,2,2022-04-29_14h41.34.857,threat_forest,2021.2.3,59.91044588103704,
5,0,5,0,,,,,,,,,,,,,,,,,,,,,,,,,,,,,,,,,,,,206.08009220007807,None,0,ae11,2,2022-04-29_14h41.34.857,threat_forest,2021.2.3,59.91044588103704,
6,0,6,0,0,0,0,0,,,,,,,207.99388459976763,211.49083139980212,None,right,0.8272720999084413,212.4252010998316,ae11,212.4252010998316,None,207.99388459976763,211.49083139980212,False,5,['r'],True,0.5714285714285714,0.5714285714285714,0.0,0.0,2.0,0.6216097450797566,0.0,wait_cost,0,4,,,,ae11,2,2022-04-29_14h41.34.857,threat_forest,2021.2.3,59.91044588103704,
6,0,6,0,1,0,1,0,,,,,,,,,,right,0.6342942002229393,217.7709003998898,ae11,217.7709003998898,None,207.99388459976763,211.49083139980212,False,4,['r'],True,0.5714285714285714,0.5714285714285714,0.0,0.0,2.0,0.6216097450797566,0.0,wait_cost,0,3,215.28009149990976,None,4,ae11,2,2022-04-29_14h41.34.857,threat_forest,2021.2.3,59.91044588103704,
6,0,6,0,2,0,2,0,,,,,,,,,,right,0.9952102997340262,223.6504238997586,ae11,223.6504238997586,None,207.99388459976763,211.49083139980212,False,3,['r'],True,0.5714285714285714,0.5714285714285714,0.0,0.0,2.0,0.6216097450797566,0.0,wait_cost,0,2,220.4304140000604,None,3,ae11,2,2022-04-29_14h41.34.857,threat_forest,2021.2.3,59.91044588103704,
6,0,6,0,3,0,3,0,,,,,,,,,,right,0.7973691001534462,227.98330109985545,ae11,227.98330109985545,None,207.99388459976763,211.49083139980212,False,2,['r'],True,0.5714285714285714,0.5714285714285714,0.0,0.0,2.0,0.6216097450797566,-0.4285714285714286,wait_cost,0,1,226.66346680000424,None,2,ae11,2,2022-04-29_14h41.34.857,threat_forest,2021.2.3,59.91044588103704,
6,0,6,0,4,0,4,0,,,,,,,,,,left,1.2017016001045704,232.2676483998075,ae11,232.2676483998075,None,207.99388459976763,211.49083139980212,True,1,['r'],True,0.5714285714285714,0.5714285714285714,0.0,0.0,2.0,0.6216097450797566,0.5714285714285714,fight_cost,0,0,230.7968484996818,None,1,ae11,2,2022-04-29_14h41.34.857,threat_forest,2021.2.3,59.91044588103704,
6,0,6,0,,,,,,,,,,,,,,,,,,,,,,,,,,,,,,,,,,,,235.49702439969406,None,0,ae11,2,2022-04-29_14h41.34.857,threat_forest,2021.2.3,59.91044588103704,
7,0,7,0,0,0,0,0,,,,,,,236.45381999993697,239.96370789967477,None,left,0.6090028001926839,240.80327560007572,ae11,240.80327560007572,None,236.45381999993697,239.96370789967477,True,5,['r'],True,0.5,0.5,0.0,0.0,2.0,0.6309297535714574,0.0,succ_gain,0,6,,,,ae11,2,2022-04-29_14h41.34.857,threat_forest,2021.2.3,59.91044588103704,
7,0,7,0,1,0,1,0,,,,,,,,,,left,0.755146499723196,246.14245909964666,ae11,241.43229339970276,243.44695609994233,246.14245909964666,None,False,6,['r'],False,0.36,0.6,0.4,2.0,2.0,0.9801625908629508,0.0,wait_cost,1,5,243.44695609994233,None,6,ae11,2,2022-04-29_14h41.34.857,threat_forest,2021.2.3,59.91044588103704,
7,0,7,0,2,0,2,0,,,,,,,,,,left,0.5516164000146091,251.38411569967866,ae11,251.38411569967866,None,246.9308420997113,248.93096680007875,True,5,['r'],True,0.5,0.5,0.0,0.0,2.0,0.6309297535714574,0.0,succ_gain,0,6,248.93096680007875,None,5,ae11,2,2022-04-29_14h41.34.857,threat_forest,2021.2.3,59.91044588103704,
7,0,7,0,3,0,3,0,,,,,,,,,,left,0.7195855001918972,255.4860425996594,ae11,251.9642762998119,253.96363599970937,255.4860425996594,None,False,6,['r'],False,0.36,0.6,0.4,2.0,2.0,0.9801625908629508,0.0,wait_cost,1,5,253.96363599970937,None,6,ae11,2,2022-04-29_14h41.34.857,threat_forest,2021.2.3,59.91044588103704,
7,0,7,0,4,0,4,0,,,,,,,,,,right,0.7407043003477156,259.65114639978856,ae11,259.65114639978856,None,256.23098709993064,258.2307139998302,False,5,['r'],True,0.5,0.5,0.0,0.0,2.0,0.6309297535714574,0.0,wait_cost,0,4,258.2307139998302,None,5,ae11,2,2022-04-29_14h41.34.857,threat_forest,2021.2.3,59.91044588103704,
7,0,7,0,5,0,5,0,,,,,,,,,,right,0.6996422000229359,262.98342279996723,ae11,262.98342279996723,None,256.23098709993064,258.2307139998302,False,4,['r'],True,0.5,0.5,0.0,0.0,2.0,0.6309297535714574,0.0,wait_cost,0,3,262.41359969973564,None,4,ae11,2,2022-04-29_14h41.34.857,threat_forest,2021.2.3,59.91044588103704,
7,0,7,0,6,0,6,0,,,,,,,,,,right,0.9233555998653173,268.3812853000127,ae11,268.3812853000127,None,256.23098709993064,258.2307139998302,False,3,['r'],True,0.5,0.5,0.0,0.0,2.0,0.6309297535714574,0.0,wait_cost,0,2,265.7142821997404,None,3,ae11,2,2022-04-29_14h41.34.857,threat_forest,2021.2.3,59.91044588103704,
7,0,7,0,7,0,7,0,,,,,,,,,,left,0.5948894000612199,273.0045753996819,ae11,269.3311907998286,271.33076119981706,273.0045753996819,None,False,2,['r'],False,0.36,0.6,0.4,2.0,2.0,0.9801625908629508,-0.64,wait_cost,1,1,271.33076119981706,None,2,ae11,2,2022-04-29_14h41.34.857,threat_forest,2021.2.3,59.91044588103704,
7,0,7,0,,,,,,,,,,,,,,,,,,,,,,,,,,,,,,,,,,,,275.63101190002635,None,1,ae11,2,2022-04-29_14h41.34.857,threat_forest,2021.2.3,59.91044588103704,
8,0,8,0,0,0,0,0,,,,,,,277.8788008997217,281.3814030997455,None,left,0.802634899970144,282.7248728000559,ae11,282.7248728000559,None,277.8788008997217,281.3814030997455,True,5,['p'],True,0.375,0.5,0.25,1.0,2.0,0.9850568223215076,0.0,unsucc_cost,0,3,,,,ae11,2,2022-04-29_14h41.34.857,threat_forest,2021.2.3,59.91044588103704,
8,0,8,0,1,0,1,0,,,,,,,,,,left,1.0063694003038108,287.06900190003216,ae11,283.5479982998222,285.548018399626,287.06900190003216,None,False,3,['p'],False,0.2,0.2,0.0,0.0,2.0,0.4554859150035951,0.0,wait_cost,1,2,285.548018399626,None,3,ae11,2,2022-04-29_14h41.34.857,threat_forest,2021.2.3,59.91044588103704,
8,0,8,0,2,0,2,0,,,,,,,,,,left,0.6719626002013683,291.14032679982483,ae11,291.14032679982483,None,288.09864469990134,290.09814570005983,True,2,['p'],True,0.375,0.5,0.25,1.0,2.0,0.9850568223215076,-0.625,unsucc_cost,0,0,290.09814570005983,None,2,ae11,2,2022-04-29_14h41.34.857,threat_forest,2021.2.3,59.91044588103704,
8,0,8,0,,,,,,,,,,,,,,,,,,,,,,,,,,,,,,,,,,,,293.8315667998977,None,0,ae11,2,2022-04-29_14h41.34.857,threat_forest,2021.2.3,59.91044588103704,
9,0,9,0,0,0,0,0,,,,,,,297.2670465996489,300.76127769984305,None,right,1.2136129001155496,303.34242919972166,ae11,303.34242919972166,None,297.2670465996489,300.76127769984305,False,4,['r'],True,0.625,0.625,0.0,0.0,2.0,0.6021808102656677,0.0,wait_cost,0,3,,,,ae11,2,2022-04-29_14h41.34.857,threat_forest,2021.2.3,59.91044588103704,
9,0,9,0,1,0,1,0,,,,,,,,,,right,0.9027680000290275,308.2721075997688,ae11,308.2721075997688,None,297.2670465996489,300.76127769984305,False,3,['r'],True,0.625,0.625,0.0,0.0,2.0,0.6021808102656677,0.0,wait_cost,0,2,306.5815423997119,None,3,ae11,2,2022-04-29_14h41.34.857,threat_forest,2021.2.3,59.91044588103704,
9,0,9,0,2,0,2,0,,,,,,,,,,right,0.5241838996298611,314.4375402997248,ae11,309.1985378996469,311.19801829988137,314.4375402997248,None,True,2,['r'],False,0.5185185185185185,0.6666666666666666,0.2222222222222222,2.0,2.0,0.9327883776363328,-0.4814814814814815,succ_gain,1,4,311.19801829988137,None,2,ae11,2,2022-04-29_14h41.34.857,threat_forest,2021.2.3,59.91044588103704,
9,0,9,0,3,0,3,0,,,,,,,,,,right,0.653929699677974,320.13793609989807,ae11,309.1985378996469,311.19801829988137,320.13793609989807,None,True,4,['r'],False,0.5185185185185185,0.6666666666666666,0.2222222222222222,2.0,2.0,0.9327883776363328,0.0,succ_gain,1,6,316.9817419000901,None,4,ae11,2,2022-04-29_14h41.34.857,threat_forest,2021.2.3,59.91044588103704,
9,0,9,0,4,0,4,0,,,,,,,,,,right,0.4967974997125566,325.6620745998807,ae11,325.6620745998807,None,320.82035659998655,322.83167109964415,False,6,['r'],True,0.625,0.625,0.0,0.0,2.0,0.6021808102656677,0.0,wait_cost,0,5,322.83167109964415,None,6,ae11,2,2022-04-29_14h41.34.857,threat_forest,2021.2.3,59.91044588103704,
9,0,9,0,5,0,5,0,,,,,,,,,,left,0.7547741997987032,328.7723810998723,ae11,326.1822759998031,328.1818519998342,328.7723810998723,None,False,5,['r'],False,0.5185185185185185,0.6666666666666666,0.2222222222222222,2.0,2.0,0.9327883776363328,0.0,wait_cost,1,4,328.1818519998342,None,5,ae11,2,2022-04-29_14h41.34.857,threat_forest,2021.2.3,59.91044588103704,
9,0,9,0,6,0,6,0,,,,,,,,,,left,0.5025065997615457,333.4724489999935,ae11,326.1822759998031,328.1818519998342,333.4724489999935,None,False,4,['r'],False,0.5185185185185185,0.6666666666666666,0.2222222222222222,2.0,2.0,0.9327883776363328,0.0,wait_cost,1,3,331.54838269995525,None,4,ae11,2,2022-04-29_14h41.34.857,threat_forest,2021.2.3,59.91044588103704,
9,0,9,0,7,0,7,0,,,,,,,,,,left,0.6272284998558462,336.68553490005434,ae11,326.1822759998031,328.1818519998342,336.68553490005434,None,False,3,['r'],False,0.5185185185185185,0.6666666666666666,0.2222222222222222,2.0,2.0,0.9327883776363328,-0.2222222222222222,wait_cost,1,2,335.99854059983045,None,3,ae11,2,2022-04-29_14h41.34.857,threat_forest,2021.2.3,59.91044588103704,
9,0,9,0,,,,,,,,,,,,,,,,,,,,,,,,,,,,,,,,,,,,339.33197359973565,None,2,ae11,2,2022-04-29_14h41.34.857,threat_forest,2021.2.3,59.91044588103704,
10,0,10,0,0,0,0,0,,,,,,,340.6138762999326,344.1154474997893,None,right,0.7411726000718772,346.04331879969686,ae11,346.04331879969686,None,340.6138762999326,344.1154474997893,False,4,['r'],True,0.4444444444444445,0.6666666666666666,0.3333333333333333,1.0,2.0,0.9656336071428248,0.0,wait_cost,0,3,,,,ae11,2,2022-04-29_14h41.34.857,threat_forest,2021.2.3,59.91044588103704,
10,0,10,0,1,0,1,0,,,,,,,,,,right,1.1459427000954747,349.8374701999128,ae11,346.8157996996306,348.81552980002016,349.8374701999128,None,True,3,['r'],False,0.24,0.3,0.2,2.0,2.0,0.9003120349047065,-0.2,unsucc_cost,1,1,348.81552980002016,None,3,ae11,2,2022-04-29_14h41.34.857,threat_forest,2021.2.3,59.91044588103704,
10,0,10,0,2,0,2,0,,,,,,,,,,right,0.888213099911809,355.0333031998016,ae11,346.8157996996306,348.81552980002016,355.0333031998016,None,True,1,['r'],False,0.24,0.3,0.2,2.0,2.0,0.9003120349047065,0.24,fight_cost,1,0,353.015432999935,None,1,ae11,2,2022-04-29_14h41.34.857,threat_forest,2021.2.3,59.91044588103704,
10,0,10,0,,,,,,,,,,,,,,,,,,,,,,,,,,,,,,,,,,,,357.9490435998887,None,0,ae11,2,2022-04-29_14h41.34.857,threat_forest,2021.2.3,59.91044588103704,
11,0,11,0,0,0,0,0,,,,,,,361.14877699967474,364.64928099978715,None,right,0.6918489001691341,368.42280539963394,ae11,361.14877699967474,364.64928099978715,368.42280539963394,None,True,5,['r'],False,0.36,0.6,0.4,2.0,1.0,0.9801625908629508,0.0,unsucc_cost,1,3,,,,ae11,2,2022-04-29_14h41.34.857,threat_forest,2021.2.3,59.91044588103704,
11,0,11,0,1,0,1,0,,,,,,,,,,right,0.7030738000757992,373.3843139996752,ae11,361.14877699967474,364.64928099978715,373.3843139996752,None,True,3,['r'],False,0.36,0.6,0.4,2.0,1.0,0.9801625908629508,-0.4,unsucc_cost,1,1,371.1320683998056,None,3,ae11,2,2022-04-29_14h41.34.857,threat_forest,2021.2.3,59.91044588103704,
11,0,11,0,2,0,2,0,,,,,,,,,,left,0.6313573000952601,378.7380200996995,ae11,378.7380200996995,None,374.1162111996673,376.11608899990097,True,1,['r'],True,0.5,0.5,0.0,0.0,1.0,0.6309297535714574,0.5,succ_gain,0,2,376.11608899990097,None,1,ae11,2,2022-04-29_14h41.34.857,threat_forest,2021.2.3,59.91044588103704,
11,0,11,0,3,0,3,0,,,,,,,,,,right,0.8321503000333905,384.6525093000382,ae11,384.6525093000382,None,374.1162111996673,376.11608899990097,False,2,['r'],True,0.5,0.5,0.0,0.0,1.0,0.6309297535714574,-0.5,wait_cost,0,1,381.3993591000326,None,2,ae11,2,2022-04-29_14h41.34.857,threat_forest,2021.2.3,59.91044588103704,
11,0,11,0,4,0,4,0,,,,,,,,,,right,0.8055753000080585,388.0608784998767,ae11,385.516343599651,387.51610579993576,388.0608784998767,None,True,1,['r'],False,0.36,0.6,0.4,2.0,1.0,0.9801625908629508,0.36,succ_gain,1,2,387.51610579993576,None,1,ae11,2,2022-04-29_14h41.34.857,threat_forest,2021.2.3,59.91044588103704,
11,0,11,0,5,0,5,0,,,,,,,,,,right,0.6436553997918963,394.4329025996849,ae11,385.516343599651,387.51610579993576,394.4329025996849,None,True,2,['r'],False,0.36,0.6,0.4,2.0,1.0,0.9801625908629508,-0.64,succ_gain,1,3,390.89952039998025,None,2,ae11,2,2022-04-29_14h41.34.857,threat_forest,2021.2.3,59.91044588103704,
11,0,11,0,6,0,6,0,,,,,,,,,,right,0.6277567003853619,399.02360259974375,ae11,399.02360259974375,None,395.1019864999689,397.11611739965156,False,3,['r'],True,0.5,0.5,0.0,0.0,1.0,0.6309297535714574,0.0,wait_cost,0,2,397.11611739965156,None,3,ae11,2,2022-04-29_14h41.34.857,threat_forest,2021.2.3,59.91044588103704,
11,0,11,0,7,0,7,0,,,,,,,,,,right,0.733666299842298,402.6180290998891,ae11,402.6180290998891,None,395.1019864999689,397.11611739965156,False,2,['r'],True,0.5,0.5,0.0,0.0,1.0,0.6309297535714574,-0.5,wait_cost,0,1,401.68280459987,None,2,ae11,2,2022-04-29_14h41.34.857,threat_forest,2021.2.3,59.91044588103704,
11,0,11,0,,,,,,,,,,,,,,,,,,,,,,,,,,,,,,,,,,,,405.3828046997078,None,1,ae11,2,2022-04-29_14h41.34.857,threat_forest,2021.2.3,59.91044588103704,
12,0,12,0,0,0,0,0,,,,,,,407.01829409971833,410.5164822996594,None,left,0.5758444000966847,413.62473500007764,ae11,413.62473500007764,None,407.01829409971833,410.5164822996594,True,5,['r'],True,0.5,0.5,0.0,0.0,1.0,0.6309297535714574,0.0,succ_gain,0,6,,,,ae11,2,2022-04-29_14h41.34.857,threat_forest,2021.2.3,59.91044588103704,
12,0,12,0,1,0,1,0,,,,,,,,,,right,0.5075186002068222,417.1412055999972,ae11,417.1412055999972,None,407.01829409971833,410.5164822996594,False,6,['r'],True,0.5,0.5,0.0,0.0,1.0,0.6309297535714574,0.0,wait_cost,0,5,416.23331089969724,None,6,ae11,2,2022-04-29_14h41.34.857,threat_forest,2021.2.3,59.91044588103704,
12,0,12,0,2,0,2,0,,,,,,,,,,left,0.6708341003395617,420.86665700003505,ae11,420.86665700003505,None,407.01829409971833,410.5164822996594,True,5,['r'],True,0.5,0.5,0.0,0.0,1.0,0.6309297535714574,0.0,succ_gain,0,6,419.68287679972127,None,5,ae11,2,2022-04-29_14h41.34.857,threat_forest,2021.2.3,59.91044588103704,
12,0,12,0,3,0,3,0,,,,,,,,,,right,0.8072987999767065,425.4045360996388,ae11,425.4045360996388,None,407.01829409971833,410.5164822996594,False,6,['r'],True,0.5,0.5,0.0,0.0,1.0,0.6309297535714574,0.0,wait_cost,0,5,423.5658439998515,None,6,ae11,2,2022-04-29_14h41.34.857,threat_forest,2021.2.3,59.91044588103704,
12,0,12,0,4,0,4,0,,,,,,,,,,left,0.8850936000235379,430.4536276999861,ae11,430.4536276999861,None,407.01829409971833,410.5164822996594,True,5,['r'],True,0.5,0.5,0.0,0.0,1.0,0.6309297535714574,0.0,succ_gain,0,6,428.23319360008463,None,5,ae11,2,2022-04-29_14h41.34.857,threat_forest,2021.2.3,59.91044588103704,
12,0,12,0,5,0,5,0,,,,,,,,,,right,0.7323360997252166,436.78639219980687,ae11,436.78639219980687,None,407.01829409971833,410.5164822996594,False,6,['r'],True,0.5,0.5,0.0,0.0,1.0,0.6309297535714574,0.0,wait_cost,0,5,433.3667154996656,None,6,ae11,2,2022-04-29_14h41.34.857,threat_forest,2021.2.3,59.91044588103704,
12,0,12,0,6,0,6,0,,,,,,,,,,left,0.8791998000815511,443.27843749988824,ae11,437.550234799739,439.55007109977305,443.27843749988824,None,False,5,['r'],False,0.4081632653061224,0.5714285714285714,0.2857142857142857,2.0,1.0,0.9885754083994552,0.0,wait_cost,1,4,439.55007109977305,None,5,ae11,2,2022-04-29_14h41.34.857,threat_forest,2021.2.3,59.91044588103704,
12,0,12,0,7,0,7,0,,,,,,,,,,left,0.5479887998662889,448.2185787996277,ae11,437.550234799739,439.55007109977305,448.2185787996277,None,False,4,['r'],False,0.4081632653061224,0.5714285714285714,0.2857142857142857,2.0,1.0,0.9885754083994552,0.0,wait_cost,1,3,446.18360489979386,None,4,ae11,2,2022-04-29_14h41.34.857,threat_forest,2021.2.3,59.91044588103704,
12,0,12,0,,,,,,,,,,,,,,,,,,,,,,,,,,,,,,,,,,,,450.783672099933,None,3,ae11,2,2022-04-29_14h41.34.857,threat_forest,2021.2.3,59.91044588103704,
13,0,13,0,0,0,0,0,,,,,,,451.77645559981465,455.2839822997339,None,left,1.1817521001212299,459.0918334000744,ae11,451.77645559981465,455.2839822997339,459.0918334000744,None,False,4,['p'],False,0.2448979591836734,0.2857142857142857,0.1428571428571428,1.0,1.0,0.8400769154957735,0.0,wait_cost,1,3,,,,ae11,2,2022-04-29_14h41.34.857,threat_forest,2021.2.3,59.91044588103704,
13,0,13,0,1,0,1,0,,,,,,,,,,left,0.5821360000409186,465.87151399999857,ae11,465.87151399999857,None,460.3017535000108,462.3171190000139,True,3,['p'],True,0.4444444444444445,0.6666666666666666,0.3333333333333333,1.0,1.0,0.9656336071428248,-0.3333333333333333,unsucc_cost,0,1,462.3171190000139,None,3,ae11,2,2022-04-29_14h41.34.857,threat_forest,2021.2.3,59.91044588103704,
13,0,13,0,2,0,2,0,,,,,,,,,,left,0.959975200239569,470.1837112000212,ae11,470.1837112000212,None,460.3017535000108,462.3171190000139,True,1,['p'],True,0.4444444444444445,0.6666666666666666,0.3333333333333333,1.0,1.0,0.9656336071428248,0.4444444444444444,succ_gain,0,2,468.48383879987523,None,1,ae11,2,2022-04-29_14h41.34.857,threat_forest,2021.2.3,59.91044588103704,
13,0,13,0,3,0,3,0,,,,,,,,,,left,0.6427859999239445,475.5622752998024,ae11,471.167335299775,473.1675407998264,475.5622752998024,None,False,2,['p'],False,0.2448979591836734,0.2857142857142857,0.1428571428571428,1.0,1.0,0.8400769154957735,-0.7551020408163265,wait_cost,1,1,473.1675407998264,None,2,ae11,2,2022-04-29_14h41.34.857,threat_forest,2021.2.3,59.91044588103704,
13,0,13,0,4,0,4,0,,,,,,,,,,left,0.8371464996598661,480.0863675996661,ae11,471.167335299775,473.1675407998264,480.0863675996661,None,False,1,['p'],False,0.2448979591836734,0.2857142857142857,0.1428571428571428,1.0,1.0,0.8400769154957735,0.2448979591836735,wait_cost,1,0,478.23430579993874,None,1,ae11,2,2022-04-29_14h41.34.857,threat_forest,2021.2.3,59.91044588103704,
13,0,13,0,,,,,,,,,,,,,,,,,,,,,,,,,,,,,,,,,,,,482.9510067999363,None,0,ae11,2,2022-04-29_14h41.34.857,threat_forest,2021.2.3,59.91044588103704,
14,0,14,0,0,0,0,0,,,,,,,486.52618709998205,490.03394649969414,None,right,0.7895289002917707,492.76008399995044,ae11,492.76008399995044,None,486.52618709998205,490.03394649969414,False,5,['p'],True,0.5,0.5,0.0,0.0,2.0,0.6309297535714574,0.0,wait_cost,0,4,,,,ae11,2,2022-04-29_14h41.34.857,threat_forest,2021.2.3,59.91044588103704,
14,0,14,0,1,0,1,0,,,,,,,,,,right,0.9678805996663868,497.12394109973684,ae11,497.12394109973684,None,486.52618709998205,490.03394649969414,False,4,['p'],True,0.5,0.5,0.0,0.0,2.0,0.6309297535714574,0.0,wait_cost,0,3,495.5676441998221,None,4,ae11,2,2022-04-29_14h41.34.857,threat_forest,2021.2.3,59.91044588103704,
14,0,14,0,2,0,2,0,,,,,,,,,,right,0.6979093998670578,503.75451219966635,ae11,503.75451219966635,None,486.52618709998205,490.03394649969414,False,3,['p'],True,0.5,0.5,0.0,0.0,2.0,0.6309297535714574,0.0,wait_cost,0,2,500.11758009996265,None,3,ae11,2,2022-04-29_14h41.34.857,threat_forest,2021.2.3,59.91044588103704,
14,0,14,0,3,0,3,0,,,,,,,,,,right,1.4220343003980815,507.60336739989,ae11,507.60336739989,None,486.52618709998205,490.03394649969414,False,2,['p'],True,0.5,0.5,0.0,0.0,2.0,0.6309297535714574,-0.5,wait_cost,0,1,506.48453129967675,None,2,ae11,2,2022-04-29_14h41.34.857,threat_forest,2021.2.3,59.91044588103704,
14,0,14,0,4,0,4,0,,,,,,,,,,left,1.016443199943751,514.1041641999036,ae11,514.1041641999036,None,486.52618709998205,490.03394649969414,True,1,['p'],True,0.5,0.5,0.0,0.0,2.0,0.6309297535714574,0.5,succ_gain,0,3,511.0507751000114,None,1,ae11,2,2022-04-29_14h41.34.857,threat_forest,2021.2.3,59.91044588103704,
14,0,14,0,5,0,5,0,,,,,,,,,,right,0.855717200320214,518.0855165999383,ae11,515.1513803000562,517.1512645999901,518.0855165999383,None,True,3,['p'],False,0.4081632653061224,0.5714285714285714,0.2857142857142857,2.0,2.0,0.9885754083994552,-0.2857142857142857,unsucc_cost,1,1,517.1512645999901,None,3,ae11,2,2022-04-29_14h41.34.857,threat_forest,2021.2.3,59.91044588103704,
14,0,14,0,6,0,6,0,,,,,,,,,,right,1.0547070996835828,523.0749876997434,ae11,523.0749876997434,None,518.9682288998738,520.9681501998566,False,1,['p'],True,0.5,0.5,0.0,0.0,2.0,0.6309297535714574,0.5,wait_cost,0,0,520.9681501998566,None,1,ae11,2,2022-04-29_14h41.34.857,threat_forest,2021.2.3,59.91044588103704,
14,0,14,0,,,,,,,,,,,,,,,,,,,,,,,,,,,,,,,,,,,,526.1512498999946,None,0,ae11,2,2022-04-29_14h41.34.857,threat_forest,2021.2.3,59.91044588103704,
15,0,15,0,0,0,0,0,,,,,,,527.8041360997595,531.3182749999687,None,right,0.8902751002460718,533.2439222997054,ae11,527.8041360997595,531.3182749999687,533.2439222997054,None,True,4,['r'],False,0.2,0.2,0.0,0.0,1.0,0.4554859150035951,0.0,unsucc_cost,1,2,,,,ae11,2,2022-04-29_14h41.34.857,threat_forest,2021.2.3,59.91044588103704,
15,0,15,0,1,0,1,0,,,,,,,,,,right,0.9892571000382304,539.669011999853,ae11,527.8041360997595,531.3182749999687,539.669011999853,None,True,2,['r'],False,0.2,0.2,0.0,0.0,1.0,0.4554859150035951,-0.8,fight_cost,1,0,536.1516716997139,None,2,ae11,2,2022-04-29_14h41.34.857,threat_forest,2021.2.3,59.91044588103704,
15,0,15,0,,,,,,,,,,,,,,,,,,,,,,,,,,,,,,,,,,,,542.6852600998245,None,0,ae11,2,2022-04-29_14h41.34.857,threat_forest,2021.2.3,59.91044588103704,
16,0,16,0,0,0,0,0,,,,,,,545.0953242997639,548.6018258999102,None,left,0.9664965001866221,550.132621599827,ae11,545.0953242997639,548.6018258999102,550.132621599827,None,False,4,['p'],False,0.3061224489795918,0.4285714285714285,0.2857142857142857,2.0,2.0,0.9885754083994552,0.0,wait_cost,1,3,,,,ae11,2,2022-04-29_14h41.34.857,threat_forest,2021.2.3,59.91044588103704,
16,0,16,0,1,0,1,0,,,,,,,,,,left,1.0216039000079036,554.5551466997713,ae11,545.0953242997639,548.6018258999102,554.5551466997713,None,False,3,['p'],False,0.3061224489795918,0.4285714285714285,0.2857142857142857,2.0,2.0,0.9885754083994552,-0.2857142857142857,wait_cost,1,2,553.1187149998732,None,3,ae11,2,2022-04-29_14h41.34.857,threat_forest,2021.2.3,59.91044588103704,
16,0,16,0,2,0,2,0,,,,,,,,,,left,0.7417975999414921,560.5734888999723,ae11,560.5734888999723,None,555.6020644996315,557.6017302996479,True,2,['p'],True,0.4,0.4,0.0,0.0,2.0,0.6126016192893442,-0.6,unsucc_cost,0,0,557.6017302996479,None,2,ae11,2,2022-04-29_14h41.34.857,threat_forest,2021.2.3,59.91044588103704,
16,0,16,0,,,,,,,,,,,,,,,,,,,,,,,,,,,,,,,,,,,,563.3354933997616,None,0,ae11,2,2022-04-29_14h41.34.857,threat_forest,2021.2.3,59.91044588103704,
17,0,17,0,0,0,0,0,,,,,,,565.582064199727,569.0855192998424,None,right,0.7818593997508287,571.1103023998439,ae11,571.1103023998439,None,565.582064199727,569.0855192998424,False,4,['p'],True,0.4444444444444445,0.6666666666666666,0.3333333333333333,1.0,1.0,0.9656336071428248,0.0,wait_cost,0,3,,,,ae11,2,2022-04-29_14h41.34.857,threat_forest,2021.2.3,59.91044588103704,
17,0,17,0,1,0,1,0,,,,,,,,,,right,0.976180899888277,575.4555015000515,ae11,575.4555015000515,None,565.582064199727,569.0855192998424,False,3,['p'],True,0.4444444444444445,0.6666666666666666,0.3333333333333333,1.0,1.0,0.9656336071428248,-0.3333333333333333,wait_cost,0,2,573.9186188997701,None,3,ae11,2,2022-04-29_14h41.34.857,threat_forest,2021.2.3,59.91044588103704,
17,0,17,0,2,0,2,0,,,,,,,,,,right,1.0491379001177847,580.105681499932,ae11,580.105681499932,None,565.582064199727,569.0855192998424,False,2,['p'],True,0.4444444444444445,0.6666666666666666,0.3333333333333333,1.0,1.0,0.9656336071428248,-0.5555555555555556,wait_cost,0,1,578.4514485998079,None,2,ae11,2,2022-04-29_14h41.34.857,threat_forest,2021.2.3,59.91044588103704,
17,0,17,0,3,0,3,0,,,,,,,,,,right,1.0907070999965072,584.6281733997166,ae11,581.1859654998407,583.1857240996324,584.6281733997166,None,True,1,['p'],False,0.2,0.2,0.0,0.0,1.0,0.4554859150035951,0.1999999999999999,succ_gain,1,2,583.1857240996324,None,1,ae11,2,2022-04-29_14h41.34.857,threat_forest,2021.2.3,59.91044588103704,
17,0,17,0,4,0,4,0,,,,,,,,,,right,1.4787090998142958,589.219233899843,ae11,581.1859654998407,583.1857240996324,589.219233899843,None,True,2,['p'],False,0.2,0.2,0.0,0.0,1.0,0.4554859150035951,-0.8,unsucc_cost,1,0,587.7357445000671,None,2,ae11,2,2022-04-29_14h41.34.857,threat_forest,2021.2.3,59.91044588103704,
17,0,17,0,,,,,,,,,,,,,,,,,,,,,,,,,,,,,,,,,,,,592.7193533000536,None,0,ae11,2,2022-04-29_14h41.34.857,threat_forest,2021.2.3,59.91044588103704,
