miniblock.thisRepN,miniblock.thisTrialN,miniblock.thisN,miniblock.thisIndex,day.thisRepN,day.thisTrialN,day.thisN,day.thisIndex,welcoming.started,welcoming.stopped,key_resp_2.keys,key_resp_2.rt,key_resp_2.started,key_resp_2.stopped,forest.started,fixation_forest.started,fixation_forest.stopped,key_resp.keys,key_resp.rt,key_resp.started,Subject_ID,weather_left.started,weather_left.stopped,weather_right.started,weather_right.stopped,foraging T/F,in_LP,p/r heuristic,good_weather.T/F,p_succ_correct,p_succ_uncorrected,r_threat,n_oponents,gain_if_succ,weather_entropy,OP_value_difference,action_outcome,forest_side_L=0_R=1,out_LP,fixation_day.started,fixation_day.stopped,n_day-1.out_LP.,participant,session,date,expName,psychopyVersion,frameRate,
,,,,,,,,17.117268000001786,None,space,1.2470193000044674,17.117268000001786,None,,,,,,,,,,,,,,,,,,,,,,,,,,,,,or1,2,2022-04-29_14h41.06.608,threat_forest,2021.2.3,59.928038409441314,
0,0,0,0,0,0,0,0,,,,,,,18.441119600000093,21.956226000009337,None,left,0.6738314999965951,24.48634139999922,or1,24.48634139999922,None,18.441119600000093,21.956226000009337,True,4,['p'],True,0.2777777777777778,0.3333333333333333,0.1666666666666666,1.0,2.0,0.8929352898779304,0.0,unsucc_cost,0,2,,,,or1,2,2022-04-29_14h41.06.608,threat_forest,2021.2.3,59.928038409441314,
0,0,0,0,1,0,1,0,,,,,,,,,,left,1.1449813000072027,29.360082500003045,or1,25.179310799998348,27.19378770000185,29.360082500003045,None,False,2,['p'],False,0.2,0.2,0.0,0.0,2.0,0.4554859150035951,-0.8,wait_cost,1,1,27.19378770000185,None,2,or1,2,2022-04-29_14h41.06.608,threat_forest,2021.2.3,59.928038409441314,
0,0,0,0,2,0,2,0,,,,,,,,,,right,0.5987012999976287,34.46362809999846,or1,25.179310799998348,27.19378770000185,34.46362809999846,None,True,1,['p'],False,0.2,0.2,0.0,0.0,2.0,0.4554859150035951,0.1999999999999999,unsucc_cost,1,0,32.53897350000625,None,1,or1,2,2022-04-29_14h41.06.608,threat_forest,2021.2.3,59.928038409441314,
0,0,0,0,,,,,,,,,,,,,,,,,,,,,,,,,,,,,,,,,,,,37.10905929999717,None,0,or1,2,2022-04-29_14h41.06.608,threat_forest,2021.2.3,59.928038409441314,
1,0,1,0,0,0,0,0,,,,,,,39.60248510001111,43.09833590000926,None,right,0.7393545999948401,45.36748250000528,or1,39.60248510001111,43.09833590000926,45.36748250000528,None,True,5,['r'],False,0.4444444444444445,0.6666666666666666,0.3333333333333333,2.0,2.0,0.9656336071428248,0.0,unsucc_cost,1,3,,,,or1,2,2022-04-29_14h41.06.608,threat_forest,2021.2.3,59.928038409441314,
1,0,1,0,1,0,1,0,,,,,,,,,,left,1.2825800999999046,48.71853209999972,or1,48.71853209999972,None,46.12655729999824,48.14092270001129,True,3,['r'],True,0.6,0.6,0.0,0.0,2.0,0.6126016192893442,0.0,unsucc_cost,0,1,48.14092270001129,None,3,or1,2,2022-04-29_14h41.06.608,threat_forest,2021.2.3,59.928038409441314,
1,0,1,0,2,0,2,0,,,,,,,,,,left,0.6450901999924099,53.419907400006196,or1,53.419907400006196,None,46.12655729999824,48.14092270001129,True,1,['r'],True,0.6,0.6,0.0,0.0,2.0,0.6126016192893442,0.6,succ_gain,0,3,52.037281700002495,None,1,or1,2,2022-04-29_14h41.06.608,threat_forest,2021.2.3,59.928038409441314,
1,0,1,0,3,0,3,0,,,,,,,,,,right,0.6109512999973958,59.02380130000529,or1,54.08600920000754,56.10011910001049,59.02380130000529,None,True,3,['r'],False,0.4444444444444445,0.6666666666666666,0.3333333333333333,2.0,2.0,0.9656336071428248,-0.3333333333333333,unsucc_cost,1,1,56.10011910001049,None,3,or1,2,2022-04-29_14h41.06.608,threat_forest,2021.2.3,59.928038409441314,
1,0,1,0,4,0,4,0,,,,,,,,,,right,0.5569782000093255,63.98011580000457,or1,54.08600920000754,56.10011910001049,63.98011580000457,None,True,1,['r'],False,0.4444444444444445,0.6666666666666666,0.3333333333333333,2.0,2.0,0.9656336071428248,0.4444444444444444,succ_gain,1,3,61.67817070000456,None,1,or1,2,2022-04-29_14h41.06.608,threat_forest,2021.2.3,59.928038409441314,
1,0,1,0,5,0,5,0,,,,,,,,,,left,0.7324588000046788,70.09135719999904,or1,54.08600920000754,56.10011910001049,70.09135719999904,None,False,3,['r'],False,0.4444444444444445,0.6666666666666666,0.3333333333333333,2.0,2.0,0.9656336071428248,-0.3333333333333333,wait_cost,1,2,66.57370720000472,None,3,or1,2,2022-04-29_14h41.06.608,threat_forest,2021.2.3,59.928038409441314,
1,0,1,0,6,0,6,0,,,,,,,,,,left,0.7805838000058429,73.7877856999985,or1,54.08600920000754,56.10011910001049,73.7877856999985,None,False,2,['r'],False,0.4444444444444445,0.6666666666666666,0.3333333333333333,2.0,2.0,0.9656336071428248,-0.5555555555555556,wait_cost,1,1,72.8677461000043,None,2,or1,2,2022-04-29_14h41.06.608,threat_forest,2021.2.3,59.928038409441314,
1,0,1,0,7,0,7,0,,,,,,,,,,left,0.6425455999997212,77.5407816000079,or1,77.5407816000079,None,74.59991070000979,76.61433290000423,True,1,['r'],True,0.6,0.6,0.0,0.0,2.0,0.6126016192893442,0.6,succ_gain,0,3,76.61433290000423,None,1,or1,2,2022-04-29_14h41.06.608,threat_forest,2021.2.3,59.928038409441314,
1,0,1,0,,,,,,,,,,,,,,,,,,,,,,,,,,,,,,,,,,,,80.22753820000798,None,3,or1,2,2022-04-29_14h41.06.608,threat_forest,2021.2.3,59.928038409441314,
2,0,2,0,0,0,0,0,,,,,,,82.7206012000097,86.22193330001028,None,right,0.9934993000060786,86.79821540000557,or1,82.7206012000097,86.22193330001028,86.79821540000557,None,True,5,['r'],False,0.36,0.6,0.4,2.0,1.0,0.9801625908629508,0.0,unsucc_cost,1,3,,,,or1,2,2022-04-29_14h41.06.608,threat_forest,2021.2.3,59.928038409441314,
2,0,2,0,1,0,1,0,,,,,,,,,,right,0.7836571999941953,92.95163320000574,or1,82.7206012000097,86.22193330001028,92.95163320000574,None,True,3,['r'],False,0.36,0.6,0.4,2.0,1.0,0.9801625908629508,-0.4,unsucc_cost,1,1,89.83526580000762,None,3,or1,2,2022-04-29_14h41.06.608,threat_forest,2021.2.3,59.928038409441314,
2,0,2,0,2,0,2,0,,,,,,,,,,right,0.7105388000054518,96.41533600000548,or1,82.7206012000097,86.22193330001028,96.41533600000548,None,True,1,['r'],False,0.36,0.6,0.4,2.0,1.0,0.9801625908629508,0.36,fight_cost,1,0,95.77962159999879,None,1,or1,2,2022-04-29_14h41.06.608,threat_forest,2021.2.3,59.928038409441314,
2,0,2,0,,,,,,,,,,,,,,,,,,,,,,,,,,,,,,,,,,,,99.15997380000772,None,0,or1,2,2022-04-29_14h41.06.608,threat_forest,2021.2.3,59.928038409441314,
3,0,3,0,0,0,0,0,,,,,,,101.49467390000063,104.98860250000143,None,right,0.7121896000026027,106.80988070000603,or1,101.49467390000063,104.98860250000143,106.80988070000603,None,True,4,['r'],False,0.2040816326530612,0.2857142857142857,0.2857142857142857,2.0,2.0,0.9335459102197724,0.0,unsucc_cost,1,2,,,,or1,2,2022-04-29_14h41.06.608,threat_forest,2021.2.3,59.928038409441314,
3,0,3,0,1,0,1,0,,,,,,,,,,right,0.4800122000015108,111.99830250001105,or1,101.49467390000063,104.98860250000143,111.99830250001105,None,True,2,['r'],False,0.2040816326530612,0.2857142857142857,0.2857142857142857,2.0,2.0,0.9335459102197724,-0.7959183673469388,unsucc_cost,1,0,109.56691690000298,None,2,or1,2,2022-04-29_14h41.06.608,threat_forest,2021.2.3,59.928038409441314,
3,0,3,0,,,,,,,,,,,,,,,,,,,,,,,,,,,,,,,,,,,,114.51238450000528,None,0,or1,2,2022-04-29_14h41.06.608,threat_forest,2021.2.3,59.928038409441314,
4,0,4,0,0,0,0,0,,,,,,,116.41395990000456,119.9136162000068,None,left,0.7248926000029314,123.35572560000583,or1,116.41395990000456,119.9136162000068,123.35572560000583,None,False,5,['r'],False,0.1975308641975308,0.2222222222222222,0.1111111111111111,1.0,2.0,0.7461067557824965,0.0,wait_cost,1,4,,,,or1,2,2022-04-29_14h41.06.608,threat_forest,2021.2.3,59.928038409441314,
4,0,4,0,1,0,1,0,,,,,,,,,,left,0.7144040999992285,129.30939470000158,or1,129.30939470000158,None,124.10378770000534,126.11797839999781,True,4,['r'],True,0.2777777777777778,0.3333333333333333,0.1666666666666666,1.0,2.0,0.8929352898779304,0.0,unsucc_cost,0,2,126.11797839999781,None,4,or1,2,2022-04-29_14h41.06.608,threat_forest,2021.2.3,59.928038409441314,
4,0,4,0,2,0,2,0,,,,,,,,,,left,0.5587226000061492,135.13915200000338,or1,130.04799640001147,132.06229780000285,135.13915200000338,None,False,2,['r'],False,0.1975308641975308,0.2222222222222222,0.1111111111111111,1.0,2.0,0.7461067557824965,-0.8024691358024691,wait_cost,1,1,132.06229780000285,None,2,or1,2,2022-04-29_14h41.06.608,threat_forest,2021.2.3,59.928038409441314,
4,0,4,0,3,0,3,0,,,,,,,,,,right,1.0324958999990486,138.44470740000543,or1,130.04799640001147,132.06229780000285,138.44470740000543,None,True,1,['r'],False,0.1975308641975308,0.2222222222222222,0.1111111111111111,1.0,2.0,0.7461067557824965,0.1975308641975308,unsucc_cost,1,0,137.74035459999868,None,1,or1,2,2022-04-29_14h41.06.608,threat_forest,2021.2.3,59.928038409441314,
4,0,4,0,,,,,,,,,,,,,,,,,,,,,,,,,,,,,,,,,,,,141.52020430000266,None,0,or1,2,2022-04-29_14h41.06.608,threat_forest,2021.2.3,59.928038409441314,
5,0,5,0,0,0,0,0,,,,,,,143.07343790000596,146.58008880000853,None,left,1.379595899998094,149.0267784000025,or1,149.0267784000025,None,143.07343790000596,146.58008880000853,True,5,['p'],True,0.4444444444444445,0.6666666666666666,0.3333333333333333,1.0,1.0,0.9656336071428248,0.0,unsucc_cost,0,3,,,,or1,2,2022-04-29_14h41.06.608,threat_forest,2021.2.3,59.928038409441314,
5,0,5,0,1,0,1,0,,,,,,,,,,left,0.6207305000134511,153.93402900001092,or1,153.93402900001092,None,143.07343790000596,146.58008880000853,True,3,['p'],True,0.4444444444444445,0.6666666666666666,0.3333333333333333,1.0,1.0,0.9656336071428248,-0.3333333333333333,unsucc_cost,0,1,152.4435123000003,None,3,or1,2,2022-04-29_14h41.06.608,threat_forest,2021.2.3,59.928038409441314,
5,0,5,0,2,0,2,0,,,,,,,,,,right,0.6587530999968294,159.57595280000533,or1,154.57529059999797,156.58944950001023,159.57595280000533,None,True,1,['p'],False,0.27,0.3,0.1,1.0,1.0,0.7963326591781347,0.27,fight_cost,1,0,156.58944950001023,None,1,or1,2,2022-04-29_14h41.06.608,threat_forest,2021.2.3,59.928038409441314,
5,0,5,0,,,,,,,,,,,,,,,,,,,,,,,,,,,,,,,,,,,,162.26777560000482,None,0,or1,2,2022-04-29_14h41.06.608,threat_forest,2021.2.3,59.928038409441314,
6,0,6,0,0,0,0,0,,,,,,,163.85121910000453,167.36047540001164,None,right,0.7781330999860074,168.524793900011,or1,168.524793900011,None,163.85121910000453,167.36047540001164,False,5,['r'],True,0.375,0.5,0.25,1.0,1.0,0.9850568223215076,0.0,wait_cost,0,4,,,,or1,2,2022-04-29_14h41.06.608,threat_forest,2021.2.3,59.928038409441314,
6,0,6,0,1,0,1,0,,,,,,,,,,right,0.553963800004567,173.44573360000504,or1,173.44573360000504,None,163.85121910000453,167.36047540001164,False,4,['r'],True,0.375,0.5,0.25,1.0,1.0,0.9850568223215076,0.0,wait_cost,0,3,171.3426854999998,None,4,or1,2,2022-04-29_14h41.06.608,threat_forest,2021.2.3,59.928038409441314,
6,0,6,0,2,0,2,0,,,,,,,,,,right,0.8524460000044201,177.49498870001116,or1,174.02379630001087,176.03804630000377,177.49498870001116,None,True,3,['r'],False,0.18,0.2,0.1,1.0,1.0,0.7058405977926203,-0.1,succ_gain,1,4,176.03804630000377,None,3,or1,2,2022-04-29_14h41.06.608,threat_forest,2021.2.3,59.928038409441314,
6,0,6,0,3,0,3,0,,,,,,,,,,right,0.6054402999870945,182.75798770000983,or1,174.02379630001087,176.03804630000377,182.75798770000983,None,True,4,['r'],False,0.18,0.2,0.1,1.0,1.0,0.7058405977926203,0.0,succ_gain,1,5,180.38396069999726,None,4,or1,2,2022-04-29_14h41.06.608,threat_forest,2021.2.3,59.928038409441314,
6,0,6,0,4,0,4,0,,,,,,,,,,right,0.8578278999921167,186.459382800007,or1,186.459382800007,None,183.3817715000041,185.39604330000293,False,5,['r'],True,0.375,0.5,0.25,1.0,1.0,0.9850568223215076,0.0,wait_cost,0,4,185.39604330000293,None,5,or1,2,2022-04-29_14h41.06.608,threat_forest,2021.2.3,59.928038409441314,
6,0,6,0,5,0,5,0,,,,,,,,,,left,0.4444484999985434,191.00610769999912,or1,187.3448381000053,189.3589718000003,191.00610769999912,None,False,4,['r'],False,0.18,0.2,0.1,1.0,1.0,0.7058405977926203,0.0,wait_cost,1,3,189.3589718000003,None,4,or1,2,2022-04-29_14h41.06.608,threat_forest,2021.2.3,59.928038409441314,
6,0,6,0,6,0,6,0,,,,,,,,,,left,0.4208492999896407,197.20725859999948,or1,187.3448381000053,189.3589718000003,197.20725859999948,None,False,3,['r'],False,0.18,0.2,0.1,1.0,1.0,0.7058405977926203,-0.1,wait_cost,1,2,193.4885118000093,None,3,or1,2,2022-04-29_14h41.06.608,threat_forest,2021.2.3,59.928038409441314,
6,0,6,0,7,0,7,0,,,,,,,,,,left,0.4880490999930771,201.53271559999848,or1,187.3448381000053,189.3589718000003,201.53271559999848,None,False,2,['r'],False,0.18,0.2,0.1,1.0,1.0,0.7058405977926203,-0.8200000000000001,wait_cost,1,1,199.6660666000098,None,2,or1,2,2022-04-29_14h41.06.608,threat_forest,2021.2.3,59.928038409441314,
6,0,6,0,,,,,,,,,,,,,,,,,,,,,,,,,,,,,,,,,,,,204.06197750000865,None,1,or1,2,2022-04-29_14h41.06.608,threat_forest,2021.2.3,59.928038409441314,
7,0,7,0,0,0,0,0,,,,,,,206.1273438000062,209.62417979999736,None,right,0.8247879999980796,212.06546420000086,or1,212.06546420000086,None,206.1273438000062,209.62417979999736,False,4,['r'],True,0.375,0.5,0.25,1.0,2.0,0.9850568223215076,0.0,wait_cost,0,3,,,,or1,2,2022-04-29_14h41.06.608,threat_forest,2021.2.3,59.928038409441314,
7,0,7,0,1,0,1,0,,,,,,,,,,right,0.8533179000078235,217.30710990000807,or1,212.9206023000006,214.93497440000647,217.30710990000807,None,True,3,['r'],False,0.2448979591836734,0.2857142857142857,0.1428571428571428,1.0,2.0,0.8400769154957735,-0.1428571428571428,unsucc_cost,1,1,214.93497440000647,None,3,or1,2,2022-04-29_14h41.06.608,threat_forest,2021.2.3,59.928038409441314,
7,0,7,0,2,0,2,0,,,,,,,,,,right,0.7988809000089532,221.046385499998,or1,212.9206023000006,214.93497440000647,221.046385499998,None,True,1,['r'],False,0.2448979591836734,0.2857142857142857,0.1428571428571428,1.0,2.0,0.8400769154957735,0.2448979591836735,unsucc_cost,1,0,220.19668459999957,None,1,or1,2,2022-04-29_14h41.06.608,threat_forest,2021.2.3,59.928038409441314,
7,0,7,0,,,,,,,,,,,,,,,,,,,,,,,,,,,,,,,,,,,,223.8765887000045,None,0,or1,2,2022-04-29_14h41.06.608,threat_forest,2021.2.3,59.928038409441314,
8,0,8,0,0,0,0,0,,,,,,,225.17635570000857,228.6816577999998,None,right,0.7814150000049267,230.89733250001154,or1,225.17635570000857,228.6816577999998,230.89733250001154,None,True,5,['r'],False,0.46875,0.625,0.25,2.0,2.0,0.9634951148421658,0.0,succ_gain,1,6,,,,or1,2,2022-04-29_14h41.06.608,threat_forest,2021.2.3,59.928038409441314,
8,0,8,0,1,0,1,0,,,,,,,,,,right,1.4276862999977311,235.32101710001007,or1,225.17635570000857,228.6816577999998,235.32101710001007,None,True,6,['r'],False,0.46875,0.625,0.25,2.0,2.0,0.9634951148421658,0.0,succ_gain,1,6,233.7175467000052,None,6,or1,2,2022-04-29_14h41.06.608,threat_forest,2021.2.3,59.928038409441314,
8,0,8,0,2,0,2,0,,,,,,,,,,right,1.075822300001164,242.44859660000657,or1,225.17635570000857,228.6816577999998,242.44859660000657,None,True,6,['r'],False,0.46875,0.625,0.25,2.0,2.0,0.9634951148421658,0.0,unsucc_cost,1,4,238.77952920000826,None,6,or1,2,2022-04-29_14h41.06.608,threat_forest,2021.2.3,59.928038409441314,
8,0,8,0,3,0,3,0,,,,,,,,,,right,0.7315802000084659,248.60647900000913,or1,225.17635570000857,228.6816577999998,248.60647900000913,None,True,4,['r'],False,0.46875,0.625,0.25,2.0,2.0,0.9634951148421658,0.0,succ_gain,1,6,245.5565432000003,None,4,or1,2,2022-04-29_14h41.06.608,threat_forest,2021.2.3,59.928038409441314,
8,0,8,0,4,0,4,0,,,,,,,,,,left,0.4609724999900209,255.1545296000113,or1,225.17635570000857,228.6816577999998,255.1545296000113,None,False,6,['r'],False,0.46875,0.625,0.25,2.0,2.0,0.9634951148421658,0.0,wait_cost,1,5,251.38438170000154,None,6,or1,2,2022-04-29_14h41.06.608,threat_forest,2021.2.3,59.928038409441314,
8,0,8,0,5,0,5,0,,,,,,,,,,right,0.6556536999996752,258.4801031000097,or1,258.4801031000097,None,255.6474554000015,257.66174120000505,False,5,['r'],True,0.6,0.6,0.0,0.0,2.0,0.6126016192893442,0.0,wait_cost,0,4,257.66174120000505,None,5,or1,2,2022-04-29_14h41.06.608,threat_forest,2021.2.3,59.928038409441314,
8,0,8,0,6,0,6,0,,,,,,,,,,right,0.6239522000105353,263.069063700008,or1,263.069063700008,None,255.6474554000015,257.66174120000505,False,4,['r'],True,0.6,0.6,0.0,0.0,2.0,0.6126016192893442,0.0,wait_cost,0,3,261.15843180000957,None,4,or1,2,2022-04-29_14h41.06.608,threat_forest,2021.2.3,59.928038409441314,
8,0,8,0,7,0,7,0,,,,,,,,,,left,0.39350330000161193,269.2777083999972,or1,263.7231737999973,265.7375847000076,269.2777083999972,None,False,3,['r'],False,0.46875,0.625,0.25,2.0,2.0,0.9634951148421658,-0.25,wait_cost,1,2,265.7375847000076,None,3,or1,2,2022-04-29_14h41.06.608,threat_forest,2021.2.3,59.928038409441314,
8,0,8,0,,,,,,,,,,,,,,,,,,,,,,,,,,,,,,,,,,,,271.7154406000045,None,2,or1,2,2022-04-29_14h41.06.608,threat_forest,2021.2.3,59.928038409441314,
9,0,9,0,0,0,0,0,,,,,,,272.43392440000025,275.93285399999877,None,left,1.2404972999938764,278.15342030000465,or1,278.15342030000465,None,272.43392440000025,275.93285399999877,True,4,['p'],True,0.4166666666666667,0.5,0.1666666666666666,1.0,2.0,0.9358932809493992,0.0,fight_cost,0,1,,,,or1,2,2022-04-29_14h41.06.608,threat_forest,2021.2.3,59.928038409441314,
9,0,9,0,1,0,1,0,,,,,,,,,,left,0.5761043000093196,284.8410760000115,or1,284.8410760000115,None,272.43392440000025,275.93285399999877,True,1,['p'],True,0.4166666666666667,0.5,0.1666666666666666,1.0,2.0,0.9358932809493992,0.4166666666666667,fight_cost,0,0,281.4396364999993,None,1,or1,2,2022-04-29_14h41.06.608,threat_forest,2021.2.3,59.928038409441314,
9,0,9,0,,,,,,,,,,,,,,,,,,,,,,,,,,,,,,,,,,,,287.4508971000032,None,0,or1,2,2022-04-29_14h41.06.608,threat_forest,2021.2.3,59.928038409441314,
10,0,10,0,0,0,0,0,,,,,,,290.75594020000426,294.26085960000637,None,right,0.9811618999956409,297.00088150000374,or1,297.00088150000374,None,290.75594020000426,294.26085960000637,False,5,['r'],True,0.5,0.5,0.0,0.0,1.0,0.6309297535714574,0.0,wait_cost,0,4,,,,or1,2,2022-04-29_14h41.06.608,threat_forest,2021.2.3,59.928038409441314,
10,0,10,0,1,0,1,0,,,,,,,,,,right,0.6599322999973083,303.5248123000056,or1,298.0078591000056,300.02226410000003,303.5248123000056,None,True,4,['r'],False,0.2222222222222222,0.6666666666666666,0.6666666666666666,2.0,1.0,0.77250688571426,0.0,succ_gain,1,5,300.02226410000003,None,4,or1,2,2022-04-29_14h41.06.608,threat_forest,2021.2.3,59.928038409441314,
10,0,10,0,2,0,2,0,,,,,,,,,,right,0.9219583999947645,308.0244911000045,or1,308.0244911000045,None,304.2020973000035,306.2164606000006,False,5,['r'],True,0.5,0.5,0.0,0.0,1.0,0.6309297535714574,0.0,wait_cost,0,4,306.2164606000006,None,5,or1,2,2022-04-29_14h41.06.608,threat_forest,2021.2.3,59.928038409441314,
10,0,10,0,3,0,3,0,,,,,,,,,,right,0.6302049999940209,313.063123800006,or1,313.063123800006,None,304.2020973000035,306.2164606000006,False,4,['r'],True,0.5,0.5,0.0,0.0,1.0,0.6309297535714574,0.0,wait_cost,0,3,310.9786962000071,None,4,or1,2,2022-04-29_14h41.06.608,threat_forest,2021.2.3,59.928038409441314,
10,0,10,0,4,0,4,0,,,,,,,,,,right,0.644199700007448,317.24735840001085,or1,313.7098341000092,315.72426620000624,317.24735840001085,None,True,3,['r'],False,0.2222222222222222,0.6666666666666666,0.6666666666666666,2.0,1.0,0.77250688571426,-0.6666666666666666,unsucc_cost,1,1,315.72426620000624,None,3,or1,2,2022-04-29_14h41.06.608,threat_forest,2021.2.3,59.928038409441314,
10,0,10,0,5,0,5,0,,,,,,,,,,left,0.9044522999902256,320.92592420001165,or1,320.92592420001165,None,317.92239960000734,319.93702550001035,True,1,['r'],True,0.5,0.5,0.0,0.0,1.0,0.6309297535714574,0.5,fight_cost,0,0,319.93702550001035,None,1,or1,2,2022-04-29_14h41.06.608,threat_forest,2021.2.3,59.928038409441314,
10,0,10,0,,,,,,,,,,,,,,,,,,,,,,,,,,,,,,,,,,,,323.8667054000107,None,0,or1,2,2022-04-29_14h41.06.608,threat_forest,2021.2.3,59.928038409441314,
11,0,11,0,0,0,0,0,,,,,,,327.30127360000915,330.80803130001004,None,right,1.5643833999929484,334.5410707999981,or1,327.30127360000915,330.80803130001004,334.5410707999981,None,True,5,['p'],False,0.5185185185185185,0.6666666666666666,0.2222222222222222,2.0,2.0,0.9327883776363328,0.0,succ_gain,1,6,,,,or1,2,2022-04-29_14h41.06.608,threat_forest,2021.2.3,59.928038409441314,
11,0,11,0,1,0,1,0,,,,,,,,,,right,1.4808776999998372,339.2964251000085,or1,339.2964251000085,None,336.1235433999973,338.1363672000007,False,6,['p'],True,0.625,0.625,0.0,0.0,2.0,0.6021808102656677,0.0,wait_cost,0,5,338.1363672000007,None,6,or1,2,2022-04-29_14h41.06.608,threat_forest,2021.2.3,59.928038409441314,
11,0,11,0,2,0,2,0,,,,,,,,,,left,0.8909886000037659,343.89533720001054,or1,340.801145800011,342.81535520000034,343.89533720001054,None,False,5,['p'],False,0.5185185185185185,0.6666666666666666,0.2222222222222222,2.0,2.0,0.9327883776363328,0.0,wait_cost,1,4,342.81535520000034,None,5,or1,2,2022-04-29_14h41.06.608,threat_forest,2021.2.3,59.928038409441314,
11,0,11,0,3,0,3,0,,,,,,,,,,left,0.5712526999996044,349.3207937999978,or1,349.3207937999978,None,344.8142697000003,346.82858070000657,True,4,['p'],True,0.625,0.625,0.0,0.0,2.0,0.6021808102656677,0.0,succ_gain,0,6,346.82858070000657,None,4,or1,2,2022-04-29_14h41.06.608,threat_forest,2021.2.3,59.928038409441314,
11,0,11,0,4,0,4,0,,,,,,,,,,left,0.7748246999981347,352.5525873000006,or1,349.9095585000032,351.9237114999996,352.5525873000006,None,False,6,['p'],False,0.5185185185185185,0.6666666666666666,0.2222222222222222,2.0,2.0,0.9327883776363328,0.0,wait_cost,1,5,351.9237114999996,None,6,or1,2,2022-04-29_14h41.06.608,threat_forest,2021.2.3,59.928038409441314,
11,0,11,0,5,0,5,0,,,,,,,,,,right,0.5472839000140084,356.54473660000076,or1,356.54473660000076,None,353.35637380000844,355.3705220999982,False,5,['p'],True,0.625,0.625,0.0,0.0,2.0,0.6021808102656677,0.0,wait_cost,0,4,355.3705220999982,None,5,or1,2,2022-04-29_14h41.06.608,threat_forest,2021.2.3,59.928038409441314,
11,0,11,0,6,0,6,0,,,,,,,,,,right,0.5131277999898884,360.52292440000747,or1,360.52292440000747,None,353.35637380000844,355.3705220999982,False,4,['p'],True,0.625,0.625,0.0,0.0,2.0,0.6021808102656677,0.0,wait_cost,0,3,359.1336568000115,None,4,or1,2,2022-04-29_14h41.06.608,threat_forest,2021.2.3,59.928038409441314,
11,0,11,0,7,0,7,0,,,,,,,,,,left,0.48481229999742936,366.7040619000036,or1,361.06569709999894,363.0799457000103,366.7040619000036,None,False,3,['p'],False,0.5185185185185185,0.6666666666666666,0.2222222222222222,2.0,2.0,0.9327883776363328,-0.2222222222222222,wait_cost,1,2,363.0799457000103,None,3,or1,2,2022-04-29_14h41.06.608,threat_forest,2021.2.3,59.928038409441314,
11,0,11,0,,,,,,,,,,,,,,,,,,,,,,,,,,,,,,,,,,,,369.2244781000045,None,2,or1,2,2022-04-29_14h41.06.608,threat_forest,2021.2.3,59.928038409441314,
12,0,12,0,0,0,0,0,,,,,,,372.5200986999989,376.0200551000016,None,right,0.690726300003007,377.49253250000766,or1,372.5200986999989,376.0200551000016,377.49253250000766,None,True,4,['p'],False,0.4081632653061224,0.5714285714285714,0.2857142857142857,2.0,1.0,0.9885754083994552,0.0,unsucc_cost,1,2,,,,or1,2,2022-04-29_14h41.06.608,threat_forest,2021.2.3,59.928038409441314,
12,0,12,0,1,0,1,0,,,,,,,,,,right,0.7441149999940535,382.1960078999982,or1,372.5200986999989,376.0200551000016,382.1960078999982,None,True,2,['p'],False,0.4081632653061224,0.5714285714285714,0.2857142857142857,2.0,1.0,0.9885754083994552,-0.5918367346938775,unsucc_cost,1,0,380.21399580000434,None,2,or1,2,2022-04-29_14h41.06.608,threat_forest,2021.2.3,59.928038409441314,
12,0,12,0,,,,,,,,,,,,,,,,,,,,,,,,,,,,,,,,,,,,384.9762974000041,None,0,or1,2,2022-04-29_14h41.06.608,threat_forest,2021.2.3,59.928038409441314,
13,0,13,0,0,0,0,0,,,,,,,388.02137290000974,391.5279198000062,None,left,0.9173569999984466,393.641426400005,or1,393.641426400005,None,388.02137290000974,391.5279198000062,True,5,['r'],True,0.4444444444444445,0.6666666666666666,0.3333333333333333,1.0,2.0,0.9656336071428248,0.0,fight_cost,0,2,,,,or1,2,2022-04-29_14h41.06.608,threat_forest,2021.2.3,59.928038409441314,
13,0,13,0,1,0,1,0,,,,,,,,,,left,0.8247464000014588,398.1558304000064,or1,398.1558304000064,None,388.02137290000974,391.5279198000062,True,2,['r'],True,0.4444444444444445,0.6666666666666666,0.3333333333333333,1.0,2.0,0.9656336071428248,-0.5555555555555556,succ_gain,0,4,396.59873979999975,None,2,or1,2,2022-04-29_14h41.06.608,threat_forest,2021.2.3,59.928038409441314,
13,0,13,0,2,0,2,0,,,,,,,,,,left,1.163613800003077,403.8599281000061,or1,403.8599281000061,None,388.02137290000974,391.5279198000062,True,4,['r'],True,0.4444444444444445,0.6666666666666666,0.3333333333333333,1.0,2.0,0.9656336071428248,0.0,succ_gain,0,6,401.02786060000653,None,4,or1,2,2022-04-29_14h41.06.608,threat_forest,2021.2.3,59.928038409441314,
13,0,13,0,3,0,3,0,,,,,,,,,,right,0.46983459999319166,409.9090245999978,or1,409.9090245999978,None,388.02137290000974,391.5279198000062,False,6,['r'],True,0.4444444444444445,0.6666666666666666,0.3333333333333333,1.0,2.0,0.9656336071428248,0.0,wait_cost,0,5,407.05552710000484,None,6,or1,2,2022-04-29_14h41.06.608,threat_forest,2021.2.3,59.928038409441314,
13,0,13,0,4,0,4,0,,,,,,,,,,right,0.489623000001302,414.6358895000012,or1,414.6358895000012,None,388.02137290000974,391.5279198000062,False,5,['r'],True,0.4444444444444445,0.6666666666666666,0.3333333333333333,1.0,2.0,0.9656336071428248,0.0,wait_cost,0,4,412.4173046000069,None,5,or1,2,2022-04-29_14h41.06.608,threat_forest,2021.2.3,59.928038409441314,
13,0,13,0,5,0,5,0,,,,,,,,,,left,0.7160289000021294,419.8105252000096,or1,415.1484361000039,417.16279100000975,419.8105252000096,None,False,4,['r'],False,0.24,0.3,0.2,2.0,2.0,0.9003120349047065,0.0,wait_cost,1,3,417.16279100000975,None,4,or1,2,2022-04-29_14h41.06.608,threat_forest,2021.2.3,59.928038409441314,
13,0,13,0,6,0,6,0,,,,,,,,,,left,0.6270048000005772,425.65268660000584,or1,415.1484361000039,417.16279100000975,425.65268660000584,None,False,3,['r'],False,0.24,0.3,0.2,2.0,2.0,0.9003120349047065,-0.2,wait_cost,1,2,422.55773890001,None,3,or1,2,2022-04-29_14h41.06.608,threat_forest,2021.2.3,59.928038409441314,
13,0,13,0,7,0,7,0,,,,,,,,,,right,0.7192591000057291,429.62409800000023,or1,429.62409800000023,None,426.3049725000019,428.31902400001127,False,2,['r'],True,0.4444444444444445,0.6666666666666666,0.3333333333333333,1.0,2.0,0.9656336071428248,-0.5555555555555556,wait_cost,0,1,428.31902400001127,None,2,or1,2,2022-04-29_14h41.06.608,threat_forest,2021.2.3,59.928038409441314,
13,0,13,0,,,,,,,,,,,,,,,,,,,,,,,,,,,,,,,,,,,,432.3820144000056,None,1,or1,2,2022-04-29_14h41.06.608,threat_forest,2021.2.3,59.928038409441314,
14,0,14,0,0,0,0,0,,,,,,,433.32907750000595,436.827864100007,None,right,0.7983052000054158,439.2990959000017,or1,433.32907750000595,436.827864100007,439.2990959000017,None,True,5,['r'],False,0.24,0.4,0.4,2.0,1.0,0.9801625908629508,0.0,unsucc_cost,1,3,,,,or1,2,2022-04-29_14h41.06.608,threat_forest,2021.2.3,59.928038409441314,
14,0,14,0,1,0,1,0,,,,,,,,,,right,0.6234300999931293,445.7862960000057,or1,433.32907750000595,436.827864100007,445.7862960000057,None,True,3,['r'],False,0.24,0.4,0.4,2.0,1.0,0.9801625908629508,-0.4,succ_gain,1,4,442.1394416000112,None,3,or1,2,2022-04-29_14h41.06.608,threat_forest,2021.2.3,59.928038409441314,
14,0,14,0,2,0,2,0,,,,,,,,,,right,1.2863082999974722,450.63224510000146,or1,433.32907750000595,436.827864100007,450.63224510000146,None,True,4,['r'],False,0.24,0.4,0.4,2.0,1.0,0.9801625908629508,0.0,succ_gain,1,5,448.45031559999916,None,4,or1,2,2022-04-29_14h41.06.608,threat_forest,2021.2.3,59.928038409441314,
14,0,14,0,3,0,3,0,,,,,,,,,,left,0.7055877999955555,456.76259320000827,or1,433.32907750000595,436.827864100007,456.76259320000827,None,False,5,['r'],False,0.24,0.4,0.4,2.0,1.0,0.9801625908629508,0.0,wait_cost,1,4,453.9617416999972,None,5,or1,2,2022-04-29_14h41.06.608,threat_forest,2021.2.3,59.928038409441314,
14,0,14,0,4,0,4,0,,,,,,,,,,right,1.8154402000072878,462.61364730000787,or1,462.61364730000787,None,457.4922150000057,459.5066064999992,False,4,['r'],True,0.3333333333333333,0.3333333333333333,0.0,0.0,1.0,0.5793801642856949,0.0,wait_cost,0,3,459.5066064999992,None,4,or1,2,2022-04-29_14h41.06.608,threat_forest,2021.2.3,59.928038409441314,
14,0,14,0,5,0,5,0,,,,,,,,,,left,1.8615968999947654,468.67057880001084,or1,468.67057880001084,None,457.4922150000057,459.5066064999992,True,3,['r'],True,0.3333333333333333,0.3333333333333333,0.0,0.0,1.0,0.5793801642856949,0.0,succ_gain,0,4,466.466702500009,None,3,or1,2,2022-04-29_14h41.06.608,threat_forest,2021.2.3,59.928038409441314,
14,0,14,0,6,0,6,0,,,,,,,,,,right,0.5876895999972476,473.8984872000001,or1,473.8984872000001,None,457.4922150000057,459.5066064999992,False,4,['r'],True,0.3333333333333333,0.3333333333333333,0.0,0.0,1.0,0.5793801642856949,0.0,wait_cost,0,3,472.5776362000033,None,4,or1,2,2022-04-29_14h41.06.608,threat_forest,2021.2.3,59.928038409441314,
14,0,14,0,7,0,7,0,,,,,,,,,,left,0.6457784000085667,478.5274333999987,or1,474.5095864000032,476.52394050000294,478.5274333999987,None,False,3,['r'],False,0.24,0.4,0.4,2.0,1.0,0.9801625908629508,-0.4,wait_cost,1,2,476.52394050000294,None,3,or1,2,2022-04-29_14h41.06.608,threat_forest,2021.2.3,59.928038409441314,
14,0,14,0,,,,,,,,,,,,,,,,,,,,,,,,,,,,,,,,,,,,481.21971889999986,None,2,or1,2,2022-04-29_14h41.06.608,threat_forest,2021.2.3,59.928038409441314,
15,0,15,0,0,0,0,0,,,,,,,484.1275427000073,487.6302534999995,None,right,1.6002817999979015,490.10312500000873,or1,490.10312500000873,None,484.1275427000073,487.6302534999995,False,4,['r'],True,0.5,0.5,0.0,0.0,2.0,0.6309297535714574,0.0,wait_cost,0,3,,,,or1,2,2022-04-29_14h41.06.608,threat_forest,2021.2.3,59.928038409441314,
15,0,15,0,1,0,1,0,,,,,,,,,,left,0.8768104000046151,497.5079515000107,or1,497.5079515000107,None,484.1275427000073,487.6302534999995,True,3,['r'],True,0.5,0.5,0.0,0.0,2.0,0.6309297535714574,0.0,unsucc_cost,0,1,493.7412758999999,None,3,or1,2,2022-04-29_14h41.06.608,threat_forest,2021.2.3,59.928038409441314,
15,0,15,0,2,0,2,0,,,,,,,,,,right,0.8150777999981074,502.0375797000015,or1,498.40402200000244,500.418402100011,502.0375797000015,None,True,1,['r'],False,0.2222222222222222,0.6666666666666666,0.6666666666666666,2.0,2.0,0.77250688571426,0.2222222222222222,succ_gain,1,3,500.418402100011,None,1,or1,2,2022-04-29_14h41.06.608,threat_forest,2021.2.3,59.928038409441314,
15,0,15,0,3,0,3,0,,,,,,,,,,left,1.1933076999994228,506.0020841000078,or1,506.0020841000078,None,502.8830886000069,504.89748440000403,True,3,['r'],True,0.5,0.5,0.0,0.0,2.0,0.6309297535714574,0.0,fight_cost,0,0,504.89748440000403,None,3,or1,2,2022-04-29_14h41.06.608,threat_forest,2021.2.3,59.928038409441314,
15,0,15,0,,,,,,,,,,,,,,,,,,,,,,,,,,,,,,,,,,,,509.2270070000086,None,0,or1,2,2022-04-29_14h41.06.608,threat_forest,2021.2.3,59.928038409441314,
16,0,16,0,0,0,0,0,,,,,,,511.80435150000267,515.3043608000007,None,right,1.4362705999956233,518.5289610000036,or1,511.80435150000267,515.3043608000007,518.5289610000036,None,True,5,['p'],False,0.25,0.5,0.5,2.0,2.0,0.9463946303571862,0.0,succ_gain,1,6,,,,or1,2,2022-04-29_14h41.06.608,threat_forest,2021.2.3,59.928038409441314,
16,0,16,0,1,0,1,0,,,,,,,,,,left,0.44676439999602735,525.0827019999997,or1,511.80435150000267,515.3043608000007,525.0827019999997,None,False,6,['p'],False,0.25,0.5,0.5,2.0,2.0,0.9463946303571862,0.0,wait_cost,1,5,521.9982959000045,None,6,or1,2,2022-04-29_14h41.06.608,threat_forest,2021.2.3,59.928038409441314,
16,0,16,0,2,0,2,0,,,,,,,,,,left,0.6568964999896707,529.9484073000058,or1,511.80435150000267,515.3043608000007,529.9484073000058,None,False,5,['p'],False,0.25,0.5,0.5,2.0,2.0,0.9463946303571862,0.0,wait_cost,1,4,527.5763114000001,None,5,or1,2,2022-04-29_14h41.06.608,threat_forest,2021.2.3,59.928038409441314,
16,0,16,0,3,0,3,0,,,,,,,,,,left,0.931738300001598,534.5099346000061,or1,534.5099346000061,None,530.6239246000041,532.6382491000113,True,4,['p'],True,0.3333333333333333,0.3333333333333333,0.0,0.0,2.0,0.5793801642856949,0.0,succ_gain,0,6,532.6382491000113,None,4,or1,2,2022-04-29_14h41.06.608,threat_forest,2021.2.3,59.928038409441314,
16,0,16,0,4,0,4,0,,,,,,,,,,right,0.5352051999943797,539.7180415000039,or1,539.7180415000039,None,530.6239246000041,532.6382491000113,False,6,['p'],True,0.3333333333333333,0.3333333333333333,0.0,0.0,2.0,0.5793801642856949,0.0,wait_cost,0,5,537.4838027000078,None,6,or1,2,2022-04-29_14h41.06.608,threat_forest,2021.2.3,59.928038409441314,
16,0,16,0,5,0,5,0,,,,,,,,,,right,0.9506337999919197,543.4659867000009,or1,543.4659867000009,None,530.6239246000041,532.6382491000113,False,5,['p'],True,0.3333333333333333,0.3333333333333333,0.0,0.0,2.0,0.5793801642856949,0.0,wait_cost,0,4,542.2959340000089,None,5,or1,2,2022-04-29_14h41.06.608,threat_forest,2021.2.3,59.928038409441314,
16,0,16,0,6,0,6,0,,,,,,,,,,left,0.6074462000105996,548.8654323000083,or1,544.4443943000078,546.4586533000111,548.8654323000083,None,False,4,['p'],False,0.25,0.5,0.5,2.0,2.0,0.9463946303571862,0.0,wait_cost,1,3,546.4586533000111,None,4,or1,2,2022-04-29_14h41.06.608,threat_forest,2021.2.3,59.928038409441314,
16,0,16,0,7,0,7,0,,,,,,,,,,right,0.5014943000132916,553.7078888000106,or1,553.7078888000106,None,549.4895939999988,551.5039160000015,False,3,['p'],True,0.3333333333333333,0.3333333333333333,0.0,0.0,2.0,0.5793801642856949,0.0,wait_cost,0,2,551.5039160000015,None,3,or1,2,2022-04-29_14h41.06.608,threat_forest,2021.2.3,59.928038409441314,
16,0,16,0,,,,,,,,,,,,,,,,,,,,,,,,,,,,,,,,,,,,556.2495962000103,None,2,or1,2,2022-04-29_14h41.06.608,threat_forest,2021.2.3,59.928038409441314,
17,0,17,0,0,0,0,0,,,,,,,558.2341171000007,561.7297263000073,None,left,0.7635595999890938,562.8397501,or1,558.2341171000007,561.7297263000073,562.8397501,None,False,4,['r'],False,0.2,0.2,0.0,0.0,1.0,0.4554859150035951,0.0,wait_cost,1,3,,,,or1,2,2022-04-29_14h41.06.608,threat_forest,2021.2.3,59.928038409441314,
17,0,17,0,1,0,1,0,,,,,,,,,,left,0.9639467999950284,568.2139544000092,or1,568.2139544000092,None,563.6277745999978,565.6409470000071,True,3,['r'],True,0.4444444444444445,0.6666666666666666,0.3333333333333333,1.0,1.0,0.9656336071428248,-0.3333333333333333,unsucc_cost,0,1,565.6409470000071,None,3,or1,2,2022-04-29_14h41.06.608,threat_forest,2021.2.3,59.928038409441314,
17,0,17,0,2,0,2,0,,,,,,,,,,left,0.7328092999960063,572.2348930000007,or1,572.2348930000007,None,563.6277745999978,565.6409470000071,True,1,['r'],True,0.4444444444444445,0.6666666666666666,0.3333333333333333,1.0,1.0,0.9656336071428248,0.4444444444444444,fight_cost,0,0,571.2188725000015,None,1,or1,2,2022-04-29_14h41.06.608,threat_forest,2021.2.3,59.928038409441314,
17,0,17,0,,,,,,,,,,,,,,,,,,,,,,,,,,,,,,,,,,,,574.9987631000113,None,0,or1,2,2022-04-29_14h41.06.608,threat_forest,2021.2.3,59.928038409441314,
