miniblock.thisRepN,miniblock.thisTrialN,miniblock.thisN,miniblock.thisIndex,day.thisRepN,day.thisTrialN,day.thisN,day.thisIndex,welcoming.started,welcoming.stopped,key_resp_2.keys,key_resp_2.rt,key_resp_2.started,key_resp_2.stopped,forest.started,fixation_forest.started,fixation_forest.stopped,key_resp.keys,key_resp.rt,key_resp.started,Subject_ID,weather_left.started,weather_left.stopped,weather_right.started,weather_right.stopped,foraging T/F,in_LP,p/r heuristic,good_weather.T/F,p_succ_correct,p_succ_uncorrected,r_threat,n_oponents,gain_if_succ,weather_entropy,OP_value_difference,action_outcome,forest_side_L=0_R=1,out_LP,fixation_day.started,fixation_day.stopped,n_day-1.out_LP.,participant,session,date,expName,psychopyVersion,frameRate,
,,,,,,,,9.150382899999386,None,space,1.6649610000022221,9.150382899999386,None,,,,,,,,,,,,,,,,,,,,,,,,,,,,,rn14,4,2023-03-30_11h55.04.665,threat_forest,2021.2.3,60.0786790409278,
0,0,0,0,0,0,0,0,,,,,,,10.87299649999477,14.378625999990618,None,left,1.59574919998704,17.30807780000032,rn14,17.30807780000032,None,10.87299649999477,14.378625999990618,True,4,['p'],True,0.4444444444444445,0.6666666666666666,0.3333333333333333,1.0,1.0,0.9656336071428248,0.0,unsucc_cost,0,2,,,,rn14,4,2023-03-30_11h55.04.665,threat_forest,2021.2.3,60.0786790409278,
0,0,0,0,1,0,1,0,,,,,,,,,,right,0.6040401999925962,24.070265999995172,rn14,18.92483619999257,20.939172600003076,24.070265999995172,None,True,2,['p'],False,0.2222222222222222,0.2222222222222222,0.0,0.0,1.0,0.4821593609696809,-0.7777777777777778,unsucc_cost,1,0,20.939172600003076,None,2,rn14,4,2023-03-30_11h55.04.665,threat_forest,2021.2.3,60.0786790409278,
0,0,0,0,,,,,,,,,,,,,,,,,,,,,,,,,,,,,,,,,,,,26.719016699993517,None,0,rn14,4,2023-03-30_11h55.04.665,threat_forest,2021.2.3,60.0786790409278,
1,0,1,0,0,0,0,0,,,,,,,27.427059299996472,30.929854699992575,None,left,0.8540403999941191,34.62729129999934,rn14,34.62729129999934,None,27.427059299996472,30.929854699992575,True,4,['r'],True,0.4,0.4,0.0,0.0,1.0,0.6126016192893442,0.0,succ_gain,0,5,,,,rn14,4,2023-03-30_11h55.04.665,threat_forest,2021.2.3,60.0786790409278,
1,0,1,0,1,0,1,0,,,,,,,,,,left,0.7645515000040177,39.88846349999949,rn14,39.88846349999949,None,27.427059299996472,30.929854699992575,True,5,['r'],True,0.4,0.4,0.0,0.0,1.0,0.6126016192893442,0.0,unsucc_cost,0,3,37.523661899991566,None,5,rn14,4,2023-03-30_11h55.04.665,threat_forest,2021.2.3,60.0786790409278,
1,0,1,0,2,0,2,0,,,,,,,,,,left,2.028278699988732,44.10577559999365,rn14,40.67101239999465,42.685502099993755,44.10577559999365,None,False,3,['r'],False,0.3061224489795918,0.4285714285714285,0.2857142857142857,2.0,1.0,0.9885754083994552,-0.2857142857142857,wait_cost,1,2,42.685502099993755,None,3,rn14,4,2023-03-30_11h55.04.665,threat_forest,2021.2.3,60.0786790409278,
1,0,1,0,3,0,3,0,,,,,,,,,,right,0.6463464999978896,50.34529939999629,rn14,40.67101239999465,42.685502099993755,50.34529939999629,None,True,2,['r'],False,0.3061224489795918,0.4285714285714285,0.2857142857142857,2.0,1.0,0.9885754083994552,-0.6938775510204083,unsucc_cost,1,0,48.18035460000101,None,2,rn14,4,2023-03-30_11h55.04.665,threat_forest,2021.2.3,60.0786790409278,
1,0,1,0,,,,,,,,,,,,,,,,,,,,,,,,,,,,,,,,,,,,53.02591250000114,None,0,rn14,4,2023-03-30_11h55.04.665,threat_forest,2021.2.3,60.0786790409278,
2,0,2,0,0,0,0,0,,,,,,,54.468043999993824,57.96108860000095,None,right,1.5032581999985268,58.73959329999343,rn14,58.73959329999343,None,54.468043999993824,57.96108860000095,False,5,['r'],True,0.4166666666666667,0.5,0.1666666666666666,1.0,2.0,0.9358932809493992,0.0,wait_cost,0,4,,,,rn14,4,2023-03-30_11h55.04.665,threat_forest,2021.2.3,60.0786790409278,
2,0,2,0,1,0,1,0,,,,,,,,,,right,2.0508068000053754,65.93082090000098,rn14,65.93082090000098,None,54.468043999993824,57.96108860000095,False,4,['r'],True,0.4166666666666667,0.5,0.1666666666666666,1.0,2.0,0.9358932809493992,0.0,wait_cost,0,3,62.28381100000115,None,4,rn14,4,2023-03-30_11h55.04.665,threat_forest,2021.2.3,60.0786790409278,
2,0,2,0,2,0,2,0,,,,,,,,,,left,0.6339466000063112,72.24169399999664,rn14,72.24169399999664,None,54.468043999993824,57.96108860000095,True,3,['r'],True,0.4166666666666667,0.5,0.1666666666666666,1.0,2.0,0.9358932809493992,-0.1666666666666666,unsucc_cost,0,1,70.00996959999611,None,3,rn14,4,2023-03-30_11h55.04.665,threat_forest,2021.2.3,60.0786790409278,
2,0,2,0,3,0,3,0,,,,,,,,,,right,0.8073786000022665,77.17027839999355,rn14,72.90772129999823,74.92202769999858,77.17027839999355,None,True,1,['r'],False,0.2962962962962963,0.3333333333333333,0.1111111111111111,1.0,2.0,0.8325252476189534,0.2962962962962963,unsucc_cost,1,0,74.92202769999858,None,1,rn14,4,2023-03-30_11h55.04.665,threat_forest,2021.2.3,60.0786790409278,
2,0,2,0,,,,,,,,,,,,,,,,,,,,,,,,,,,,,,,,,,,,80.01735480000207,None,0,rn14,4,2023-03-30_11h55.04.665,threat_forest,2021.2.3,60.0786790409278,
3,0,3,0,0,0,0,0,,,,,,,82.971921999997,86.4778445999982,None,None,,89.42812359999516,rn14,82.971921999997,86.4778445999982,89.42812359999516,None,None,5,['r'],False,0.28125,0.375,0.25,2.0,2.0,0.9634951148421658,0.0,wait_cost,1,4,,,,rn14,4,2023-03-30_11h55.04.665,threat_forest,2021.2.3,60.0786790409278,
3,0,3,0,1,0,1,0,,,,,,,,,,left,1.5382416999927955,97.15166959998896,rn14,97.15166959998896,None,92.43952499999432,94.45379369999864,True,4,['r'],True,0.3333333333333333,0.3333333333333333,0.0,0.0,2.0,0.5793801642856949,0.0,unsucc_cost,0,2,94.45379369999864,None,4,rn14,4,2023-03-30_11h55.04.665,threat_forest,2021.2.3,60.0786790409278,
3,0,3,0,2,0,2,0,,,,,,,,,,right,1.0284642000042368,101.53251599999203,rn14,98.71678849999444,100.73131449999346,101.53251599999203,None,True,2,['r'],False,0.28125,0.375,0.25,2.0,2.0,0.9634951148421658,-0.71875,succ_gain,1,4,100.73131449999346,None,2,rn14,4,2023-03-30_11h55.04.665,threat_forest,2021.2.3,60.0786790409278,
3,0,3,0,3,0,3,0,,,,,,,,,,right,1.4567612999962876,106.45953649999865,rn14,106.45953649999865,None,102.57990679999057,104.59429969999474,False,4,['r'],True,0.3333333333333333,0.3333333333333333,0.0,0.0,2.0,0.5793801642856949,0.0,wait_cost,0,3,104.59429969999474,None,4,rn14,4,2023-03-30_11h55.04.665,threat_forest,2021.2.3,60.0786790409278,
3,0,3,0,4,0,4,0,,,,,,,,,,right,0.6410214000061387,112.85586519999197,rn14,107.9415519000031,109.95609300000069,112.85586519999197,None,True,3,['r'],False,0.28125,0.375,0.25,2.0,2.0,0.9634951148421658,-0.25,unsucc_cost,1,1,109.95609300000069,None,3,rn14,4,2023-03-30_11h55.04.665,threat_forest,2021.2.3,60.0786790409278,
3,0,3,0,5,0,5,0,,,,,,,,,,left,0.699414999995497,119.03136429999722,rn14,119.03136429999722,None,113.51967149999109,115.53406289999839,True,1,['r'],True,0.3333333333333333,0.3333333333333333,0.0,0.0,2.0,0.5793801642856949,0.3333333333333332,unsucc_cost,0,0,115.53406289999839,None,1,rn14,4,2023-03-30_11h55.04.665,threat_forest,2021.2.3,60.0786790409278,
3,0,3,0,,,,,,,,,,,,,,,,,,,,,,,,,,,,,,,,,,,,121.7617462999915,None,0,rn14,4,2023-03-30_11h55.04.665,threat_forest,2021.2.3,60.0786790409278,
4,0,4,0,0,0,0,0,,,,,,,123.52240739999979,127.02330549999897,None,right,1.327310499997111,129.1568993999972,rn14,129.1568993999972,None,123.52240739999979,127.02330549999897,False,4,['p'],True,0.2,0.2,0.0,0.0,2.0,0.4554859150035951,0.0,wait_cost,0,3,,,,rn14,4,2023-03-30_11h55.04.665,threat_forest,2021.2.3,60.0786790409278,
4,0,4,0,1,0,1,0,,,,,,,,,,left,1.9033940999943297,135.28273150000314,rn14,135.28273150000314,None,123.52240739999979,127.02330549999897,True,3,['p'],True,0.2,0.2,0.0,0.0,2.0,0.4554859150035951,0.0,unsucc_cost,0,1,132.51820299999963,None,3,rn14,4,2023-03-30_11h55.04.665,threat_forest,2021.2.3,60.0786790409278,
4,0,4,0,2,0,2,0,,,,,,,,,,right,1.0519581999978982,141.75987409999652,rn14,137.21418059999996,139.228692699995,141.75987409999652,None,True,1,['p'],False,0.1728395061728395,0.2222222222222222,0.2222222222222222,2.0,2.0,0.8571721972794328,0.1728395061728395,unsucc_cost,1,0,139.228692699995,None,1,rn14,4,2023-03-30_11h55.04.665,threat_forest,2021.2.3,60.0786790409278,
4,0,4,0,,,,,,,,,,,,,,,,,,,,,,,,,,,,,,,,,,,,144.85683669999707,None,0,rn14,4,2023-03-30_11h55.04.665,threat_forest,2021.2.3,60.0786790409278,
5,0,5,0,0,0,0,0,,,,,,,146.54041940000025,150.05190839999705,None,left,0.7490652999986196,153.24926050000067,rn14,153.24926050000067,None,146.54041940000025,150.05190839999705,True,5,['p'],True,0.3333333333333333,0.3333333333333333,0.0,0.0,1.0,0.5793801642856949,0.0,unsucc_cost,0,3,,,,rn14,4,2023-03-30_11h55.04.665,threat_forest,2021.2.3,60.0786790409278,
5,0,5,0,1,0,1,0,,,,,,,,,,right,0.7966637000063201,158.5777562000003,rn14,154.01505960000213,156.0296767999971,158.5777562000003,None,True,3,['p'],False,0.2222222222222222,0.6666666666666666,0.6666666666666666,2.0,1.0,0.77250688571426,-0.6666666666666666,fight_cost,1,0,156.0296767999971,None,3,rn14,4,2023-03-30_11h55.04.665,threat_forest,2021.2.3,60.0786790409278,
5,0,5,0,,,,,,,,,,,,,,,,,,,,,,,,,,,,,,,,,,,,161.40797410000232,None,0,rn14,4,2023-03-30_11h55.04.665,threat_forest,2021.2.3,60.0786790409278,
6,0,6,0,0,0,0,0,,,,,,,162.39810939999006,165.9036699999997,None,right,0.8889608000026783,166.9888193999941,rn14,162.39810939999006,165.9036699999997,166.9888193999941,None,True,5,['r'],False,0.2592592592592592,0.3333333333333333,0.2222222222222222,2.0,2.0,0.9327883776363324,0.0,succ_gain,1,6,,,,rn14,4,2023-03-30_11h55.04.665,threat_forest,2021.2.3,60.0786790409278,
6,0,6,0,1,0,1,0,,,,,,,,,,left,1.3691031000053044,170.58317199999874,rn14,170.58317199999874,None,167.90223529998912,169.91671130000032,True,6,['r'],True,0.4444444444444445,0.6666666666666666,0.3333333333333333,1.0,2.0,0.9656336071428248,0.0,succ_gain,0,6,169.91671130000032,None,6,rn14,4,2023-03-30_11h55.04.665,threat_forest,2021.2.3,60.0786790409278,
6,0,6,0,2,0,2,0,,,,,,,,,,right,0.6082194000046002,177.09446759999264,rn14,177.09446759999264,None,167.90223529998912,169.91671130000032,False,6,['r'],True,0.4444444444444445,0.6666666666666666,0.3333333333333333,1.0,2.0,0.9656336071428248,0.0,wait_cost,0,5,173.99608289999014,None,6,rn14,4,2023-03-30_11h55.04.665,threat_forest,2021.2.3,60.0786790409278,
6,0,6,0,3,0,3,0,,,,,,,,,,right,1.259912199995597,180.9763582000014,rn14,177.7263673999987,179.74077649999526,180.9763582000014,None,True,5,['r'],False,0.2592592592592592,0.3333333333333333,0.2222222222222222,2.0,2.0,0.9327883776363324,0.0,unsucc_cost,1,3,179.74077649999526,None,5,rn14,4,2023-03-30_11h55.04.665,threat_forest,2021.2.3,60.0786790409278,
6,0,6,0,4,0,4,0,,,,,,,,,,left,0.7636828999966383,187.7168762999936,rn14,187.7168762999936,None,182.25555950000125,184.2698803999956,True,3,['r'],True,0.4444444444444445,0.6666666666666666,0.3333333333333333,1.0,2.0,0.9656336071428248,-0.3333333333333333,fight_cost,0,0,184.2698803999956,None,3,rn14,4,2023-03-30_11h55.04.665,threat_forest,2021.2.3,60.0786790409278,
6,0,6,0,,,,,,,,,,,,,,,,,,,,,,,,,,,,,,,,,,,,190.5140575999976,None,0,rn14,4,2023-03-30_11h55.04.665,threat_forest,2021.2.3,60.0786790409278,
7,0,7,0,0,0,0,0,,,,,,,191.15157999999064,194.66018189999158,None,left,0.8216639999882318,197.70800230000168,rn14,197.70800230000168,None,191.15157999999064,194.66018189999158,True,5,['r'],True,0.5,0.5,0.0,0.0,2.0,0.6309297535714574,0.0,succ_gain,0,6,,,,rn14,4,2023-03-30_11h55.04.665,threat_forest,2021.2.3,60.0786790409278,
7,0,7,0,1,0,1,0,,,,,,,,,,left,0.8677251000044635,202.29009009999572,rn14,198.55684859999747,200.57125059999817,202.29009009999572,None,False,6,['r'],False,0.4081632653061224,0.5714285714285714,0.2857142857142857,2.0,2.0,0.9885754083994552,0.0,wait_cost,1,5,200.57125059999817,None,6,rn14,4,2023-03-30_11h55.04.665,threat_forest,2021.2.3,60.0786790409278,
7,0,7,0,2,0,2,0,,,,,,,,,,left,0.6965408999967622,208.4808733999962,rn14,208.4808733999962,None,203.18597369999043,205.20035669999197,True,5,['r'],True,0.5,0.5,0.0,0.0,2.0,0.6309297535714574,0.0,succ_gain,0,6,205.20035669999197,None,5,rn14,4,2023-03-30_11h55.04.665,threat_forest,2021.2.3,60.0786790409278,
7,0,7,0,3,0,3,0,,,,,,,,,,right,0.8063937999977497,213.44321309999214,rn14,213.44321309999214,None,203.18597369999043,205.20035669999197,False,6,['r'],True,0.5,0.5,0.0,0.0,2.0,0.6309297535714574,0.0,wait_cost,0,5,211.21137879999878,None,6,rn14,4,2023-03-30_11h55.04.665,threat_forest,2021.2.3,60.0786790409278,
7,0,7,0,4,0,4,0,,,,,,,,,,left,0.47838600000250153,216.8930193999986,rn14,214.27585369998997,216.29001539999445,216.8930193999986,None,False,5,['r'],False,0.4081632653061224,0.5714285714285714,0.2857142857142857,2.0,2.0,0.9885754083994552,0.0,wait_cost,1,4,216.29001539999445,None,5,rn14,4,2023-03-30_11h55.04.665,threat_forest,2021.2.3,60.0786790409278,
7,0,7,0,5,0,5,0,,,,,,,,,,left,0.4873214000108419,221.50221669999883,rn14,214.27585369998997,216.29001539999445,221.50221669999883,None,False,4,['r'],False,0.4081632653061224,0.5714285714285714,0.2857142857142857,2.0,2.0,0.9885754083994552,0.0,wait_cost,1,3,219.4037182000029,None,4,rn14,4,2023-03-30_11h55.04.665,threat_forest,2021.2.3,60.0786790409278,
7,0,7,0,6,0,6,0,,,,,,,,,,right,0.41032999999879394,226.14762679999694,rn14,226.14762679999694,None,222.0182352999982,224.03272819999256,False,3,['r'],True,0.5,0.5,0.0,0.0,2.0,0.6309297535714574,0.0,wait_cost,0,2,224.03272819999256,None,3,rn14,4,2023-03-30_11h55.04.665,threat_forest,2021.2.3,60.0786790409278,
7,0,7,0,7,0,7,0,,,,,,,,,,right,0.6805536000028951,232.14256059999752,rn14,232.14256059999752,None,222.0182352999982,224.03272819999256,False,2,['r'],True,0.5,0.5,0.0,0.0,2.0,0.6309297535714574,-0.5,wait_cost,0,1,228.5953531999985,None,2,rn14,4,2023-03-30_11h55.04.665,threat_forest,2021.2.3,60.0786790409278,
7,0,7,0,,,,,,,,,,,,,,,,,,,,,,,,,,,,,,,,,,,,234.8559752000001,None,1,rn14,4,2023-03-30_11h55.04.665,threat_forest,2021.2.3,60.0786790409278,
8,0,8,0,0,0,0,0,,,,,,,238.07582859999093,241.5828945999965,None,right,1.598614100003033,244.08091350000177,rn14,238.07582859999093,241.5828945999965,244.08091350000177,None,True,4,['r'],False,0.2448979591836734,0.2857142857142857,0.1428571428571428,1.0,2.0,0.8400769154957735,0.0,unsucc_cost,1,2,,,,rn14,4,2023-03-30_11h55.04.665,threat_forest,2021.2.3,60.0786790409278,
8,0,8,0,1,0,1,0,,,,,,,,,,right,1.039746099995682,248.26030729999184,rn14,238.07582859999093,241.5828945999965,248.26030729999184,None,True,2,['r'],False,0.2448979591836734,0.2857142857142857,0.1428571428571428,1.0,2.0,0.8400769154957735,-0.7551020408163265,unsucc_cost,1,0,247.71086409999407,None,2,rn14,4,2023-03-30_11h55.04.665,threat_forest,2021.2.3,60.0786790409278,
8,0,8,0,,,,,,,,,,,,,,,,,,,,,,,,,,,,,,,,,,,,251.3406857999944,None,0,rn14,4,2023-03-30_11h55.04.665,threat_forest,2021.2.3,60.0786790409278,
9,0,9,0,0,0,0,0,,,,,,,251.93489119999867,255.4366399999999,None,right,1.287561100005405,257.63811089999217,rn14,257.63811089999217,None,251.93489119999867,255.4366399999999,False,4,['r'],True,0.25,0.5,0.5,1.0,2.0,0.9463946303571862,0.0,wait_cost,0,3,,,,rn14,4,2023-03-30_11h55.04.665,threat_forest,2021.2.3,60.0786790409278,
9,0,9,0,1,0,1,0,,,,,,,,,,right,1.2121738999994704,262.9467605999962,rn14,262.9467605999962,None,251.93489119999867,255.4366399999999,False,3,['r'],True,0.25,0.5,0.5,1.0,2.0,0.9463946303571862,-0.5,wait_cost,0,2,260.96487359999446,None,3,rn14,4,2023-03-30_11h55.04.665,threat_forest,2021.2.3,60.0786790409278,
9,0,9,0,2,0,2,0,,,,,,,,,,right,1.5651885999977821,267.85865829999966,rn14,264.17901749999146,266.1932732999994,267.85865829999966,None,True,2,['r'],False,0.16,0.2,0.2,2.0,2.0,0.8198746470064713,-0.8400000000000001,unsucc_cost,1,0,266.1932732999994,None,2,rn14,4,2023-03-30_11h55.04.665,threat_forest,2021.2.3,60.0786790409278,
9,0,9,0,,,,,,,,,,,,,,,,,,,,,,,,,,,,,,,,,,,,271.4555263999937,None,0,rn14,4,2023-03-30_11h55.04.665,threat_forest,2021.2.3,60.0786790409278,
10,0,10,0,0,0,0,0,,,,,,,275.16142459999537,278.6650254999986,None,left,1.005703299990273,282.0792297000007,rn14,282.0792297000007,None,275.16142459999537,278.6650254999986,True,4,['p'],True,0.375,0.5,0.25,1.0,2.0,0.9850568223215076,0.0,fight_cost,0,1,,,,rn14,4,2023-03-30_11h55.04.665,threat_forest,2021.2.3,60.0786790409278,
10,0,10,0,1,0,1,0,,,,,,,,,,right,0.7099247000005562,286.1443717999937,rn14,283.11117259999446,285.1255850000016,286.1443717999937,None,True,1,['p'],False,0.2592592592592592,0.3333333333333333,0.2222222222222222,2.0,2.0,0.9327883776363324,0.2592592592592592,fight_cost,1,0,285.1255850000016,None,1,rn14,4,2023-03-30_11h55.04.665,threat_forest,2021.2.3,60.0786790409278,
10,0,10,0,,,,,,,,,,,,,,,,,,,,,,,,,,,,,,,,,,,,288.8887984999892,None,0,rn14,4,2023-03-30_11h55.04.665,threat_forest,2021.2.3,60.0786790409278,
11,0,11,0,0,0,0,0,,,,,,,291.59662240000034,295.09955129999435,None,right,1.2333546000008937,296.1189071999979,rn14,291.59662240000034,295.09955129999435,296.1189071999979,None,True,4,['p'],False,0.16,0.2,0.2,2.0,1.0,0.8198746470064713,0.0,unsucc_cost,1,2,,,,rn14,4,2023-03-30_11h55.04.665,threat_forest,2021.2.3,60.0786790409278,
11,0,11,0,1,0,1,0,,,,,,,,,,left,1.327759399995557,302.44312450000143,rn14,291.59662240000034,295.09955129999435,302.44312450000143,None,False,2,['p'],False,0.16,0.2,0.2,2.0,1.0,0.8198746470064713,-0.8400000000000001,wait_cost,1,1,299.3955268999998,None,2,rn14,4,2023-03-30_11h55.04.665,threat_forest,2021.2.3,60.0786790409278,
11,0,11,0,2,0,2,0,,,,,,,,,,left,0.6479078999982448,308.55405189999146,rn14,308.55405189999146,None,303.7919811000029,305.80621899999096,True,1,['p'],True,0.375,0.5,0.25,1.0,1.0,0.9850568223215076,0.375,succ_gain,0,2,305.80621899999096,None,1,rn14,4,2023-03-30_11h55.04.665,threat_forest,2021.2.3,60.0786790409278,
11,0,11,0,3,0,3,0,,,,,,,,,,left,0.8427875000052154,312.4836165000015,rn14,312.4836165000015,None,303.7919811000029,305.80621899999096,True,2,['p'],True,0.375,0.5,0.25,1.0,1.0,0.9850568223215076,-0.625,unsucc_cost,0,0,311.2344827999914,None,2,rn14,4,2023-03-30_11h55.04.665,threat_forest,2021.2.3,60.0786790409278,
11,0,11,0,,,,,,,,,,,,,,,,,,,,,,,,,,,,,,,,,,,,315.3641077999928,None,0,rn14,4,2023-03-30_11h55.04.665,threat_forest,2021.2.3,60.0786790409278,
12,0,12,0,0,0,0,0,,,,,,,318.3572587999952,321.8579017000011,None,left,0.6955491999979131,324.7250020999927,rn14,324.7250020999927,None,318.3572587999952,321.8579017000011,True,5,['p'],True,0.4444444444444445,0.6666666666666666,0.3333333333333333,1.0,1.0,0.9656336071428248,0.0,succ_gain,0,6,,,,rn14,4,2023-03-30_11h55.04.665,threat_forest,2021.2.3,60.0786790409278,
12,0,12,0,1,0,1,0,,,,,,,,,,left,0.6316256999998586,329.8508890999947,rn14,325.43833319999976,327.452713199993,329.8508890999947,None,False,6,['p'],False,0.2,0.2,0.0,0.0,1.0,0.4554859150035951,0.0,wait_cost,1,5,327.452713199993,None,6,rn14,4,2023-03-30_11h55.04.665,threat_forest,2021.2.3,60.0786790409278,
12,0,12,0,2,0,2,0,,,,,,,,,,left,1.505778199993074,336.0644770999934,rn14,336.0644770999934,None,330.5002258000022,332.51456199999666,True,5,['p'],True,0.4444444444444445,0.6666666666666666,0.3333333333333333,1.0,1.0,0.9656336071428248,0.0,succ_gain,0,6,332.51456199999666,None,5,rn14,4,2023-03-30_11h55.04.665,threat_forest,2021.2.3,60.0786790409278,
12,0,12,0,3,0,3,0,,,,,,,,,,left,0.6342062999901827,342.52592359999835,rn14,337.5936442999955,339.6079594999901,342.52592359999835,None,False,6,['p'],False,0.2,0.2,0.0,0.0,1.0,0.4554859150035951,0.0,wait_cost,1,5,339.6079594999901,None,6,rn14,4,2023-03-30_11h55.04.665,threat_forest,2021.2.3,60.0786790409278,
12,0,12,0,4,0,4,0,,,,,,,,,,left,0.507591700006742,348.91665400000056,rn14,337.5936442999955,339.6079594999901,348.91665400000056,None,False,5,['p'],False,0.2,0.2,0.0,0.0,1.0,0.4554859150035951,0.0,wait_cost,1,4,345.2027956999955,None,5,rn14,4,2023-03-30_11h55.04.665,threat_forest,2021.2.3,60.0786790409278,
12,0,12,0,5,0,5,0,,,,,,,,,,left,0.6129098000092199,353.87827089999337,rn14,337.5936442999955,339.6079594999901,353.87827089999337,None,False,4,['p'],False,0.2,0.2,0.0,0.0,1.0,0.4554859150035951,0.0,wait_cost,1,3,351.4636555999896,None,4,rn14,4,2023-03-30_11h55.04.665,threat_forest,2021.2.3,60.0786790409278,
12,0,12,0,6,0,6,0,,,,,,,,,,left,0.48148719999880996,358.9569315999979,rn14,337.5936442999955,339.6079594999901,358.9569315999979,None,False,3,['p'],False,0.2,0.2,0.0,0.0,1.0,0.4554859150035951,0.0,wait_cost,1,2,356.525527699996,None,3,rn14,4,2023-03-30_11h55.04.665,threat_forest,2021.2.3,60.0786790409278,
12,0,12,0,7,0,7,0,,,,,,,,,,left,0.5497616999928141,363.05303309999,rn14,337.5936442999955,339.6079594999901,363.05303309999,None,False,2,['p'],False,0.2,0.2,0.0,0.0,1.0,0.4554859150035951,-0.8,wait_cost,1,1,361.470911899989,None,2,rn14,4,2023-03-30_11h55.04.665,threat_forest,2021.2.3,60.0786790409278,
12,0,12,0,,,,,,,,,,,,,,,,,,,,,,,,,,,,,,,,,,,,365.6336508999957,None,1,rn14,4,2023-03-30_11h55.04.665,threat_forest,2021.2.3,60.0786790409278,
13,0,13,0,0,0,0,0,,,,,,,368.34293590000016,371.8445444999961,None,right,1.8224360999884084,372.9467769999901,rn14,368.34293590000016,371.8445444999961,372.9467769999901,None,True,4,['p'],False,0.16,0.2,0.2,2.0,1.0,0.8198746470064713,0.0,unsucc_cost,1,2,,,,rn14,4,2023-03-30_11h55.04.665,threat_forest,2021.2.3,60.0786790409278,
13,0,13,0,1,0,1,0,,,,,,,,,,left,1.1507225000095787,377.6231953999959,rn14,377.6231953999959,None,374.7922569999937,376.80649370000174,True,2,['p'],True,0.4444444444444445,0.6666666666666666,0.3333333333333333,1.0,1.0,0.9656336071428248,-0.5555555555555556,fight_cost,0,0,376.80649370000174,None,2,rn14,4,2023-03-30_11h55.04.665,threat_forest,2021.2.3,60.0786790409278,
13,0,13,0,,,,,,,,,,,,,,,,,,,,,,,,,,,,,,,,,,,,380.81956340000033,None,0,rn14,4,2023-03-30_11h55.04.665,threat_forest,2021.2.3,60.0786790409278,
14,0,14,0,0,0,0,0,,,,,,,382.727478300003,386.23108279998996,None,right,0.8720271000056528,388.52970389999973,rn14,382.727478300003,386.23108279998996,388.52970389999973,None,True,4,['p'],False,0.28125,0.375,0.25,2.0,2.0,0.9634951148421658,0.0,succ_gain,1,6,,,,rn14,4,2023-03-30_11h55.04.665,threat_forest,2021.2.3,60.0786790409278,
14,0,14,0,1,0,1,0,,,,,,,,,,left,1.1323330000013812,393.4413207999896,rn14,382.727478300003,386.23108279998996,393.4413207999896,None,False,6,['p'],False,0.28125,0.375,0.25,2.0,2.0,0.9634951148421658,0.0,wait_cost,1,5,391.44283359999827,None,6,rn14,4,2023-03-30_11h55.04.665,threat_forest,2021.2.3,60.0786790409278,
14,0,14,0,2,0,2,0,,,,,,,,,,right,0.5999518999888096,400.26828819999355,rn14,382.727478300003,386.23108279998996,400.26828819999355,None,True,5,['p'],False,0.28125,0.375,0.25,2.0,2.0,0.9634951148421658,0.0,succ_gain,1,6,396.6046914999897,None,5,rn14,4,2023-03-30_11h55.04.665,threat_forest,2021.2.3,60.0786790409278,
14,0,14,0,3,0,3,0,,,,,,,,,,right,0.49096160000772215,405.1343974999909,rn14,405.1343974999909,None,400.90103120000276,402.9154131999967,False,6,['p'],True,0.3333333333333333,0.3333333333333333,0.0,0.0,2.0,0.5793801642856949,0.0,wait_cost,0,5,402.9154131999967,None,6,rn14,4,2023-03-30_11h55.04.665,threat_forest,2021.2.3,60.0786790409278,
14,0,14,0,4,0,4,0,,,,,,,,,,left,0.4675851999927545,408.5939600999991,rn14,405.64706099999603,407.6609957999899,408.5939600999991,None,False,5,['p'],False,0.28125,0.375,0.25,2.0,2.0,0.9634951148421658,0.0,wait_cost,1,4,407.6609957999899,None,5,rn14,4,2023-03-30_11h55.04.665,threat_forest,2021.2.3,60.0786790409278,
14,0,14,0,5,0,5,0,,,,,,,,,,right,0.5320451000006869,413.46189819999563,rn14,413.46189819999563,None,409.0934210999985,411.10789489999297,False,4,['p'],True,0.3333333333333333,0.3333333333333333,0.0,0.0,2.0,0.5793801642856949,0.0,wait_cost,0,3,411.10789489999297,None,4,rn14,4,2023-03-30_11h55.04.665,threat_forest,2021.2.3,60.0786790409278,
14,0,14,0,6,0,6,0,,,,,,,,,,right,0.620791499997722,416.76959549999447,rn14,416.76959549999447,None,409.0934210999985,411.10789489999297,False,3,['p'],True,0.3333333333333333,0.3333333333333333,0.0,0.0,2.0,0.5793801642856949,0.0,wait_cost,0,2,416.03648619999876,None,3,rn14,4,2023-03-30_11h55.04.665,threat_forest,2021.2.3,60.0786790409278,
14,0,14,0,7,0,7,0,,,,,,,,,,right,0.4908978999883402,421.3987625000009,rn14,421.3987625000009,None,409.0934210999985,411.10789489999297,False,2,['p'],True,0.3333333333333333,0.3333333333333333,0.0,0.0,2.0,0.5793801642856949,-0.6666666666666667,wait_cost,0,1,419.4338095999992,None,2,rn14,4,2023-03-30_11h55.04.665,threat_forest,2021.2.3,60.0786790409278,
14,0,14,0,,,,,,,,,,,,,,,,,,,,,,,,,,,,,,,,,,,,423.9292690000002,None,1,rn14,4,2023-03-30_11h55.04.665,threat_forest,2021.2.3,60.0786790409278,
15,0,15,0,0,0,0,0,,,,,,,426.8870397999999,430.3898079999926,None,right,1.6813971999945352,432.1567428999988,rn14,432.1567428999988,None,426.8870397999999,430.3898079999926,False,5,['r'],True,0.4444444444444445,0.6666666666666666,0.3333333333333333,1.0,1.0,0.9656336071428248,0.0,wait_cost,0,4,,,,rn14,4,2023-03-30_11h55.04.665,threat_forest,2021.2.3,60.0786790409278,
15,0,15,0,1,0,1,0,,,,,,,,,,right,0.6946553999878233,437.6666448999895,rn14,433.8703220000025,435.8846542999963,437.6666448999895,None,True,4,['r'],False,0.1875,0.25,0.25,2.0,1.0,0.895754137500101,0.0,succ_gain,1,5,435.8846542999963,None,4,rn14,4,2023-03-30_11h55.04.665,threat_forest,2021.2.3,60.0786790409278,
15,0,15,0,2,0,2,0,,,,,,,,,,right,1.8166430999990553,444.12965679999616,rn14,444.12965679999616,None,438.3826144999912,440.3970738999924,False,5,['r'],True,0.4444444444444445,0.6666666666666666,0.3333333333333333,1.0,1.0,0.9656336071428248,0.0,wait_cost,0,4,440.3970738999924,None,5,rn14,4,2023-03-30_11h55.04.665,threat_forest,2021.2.3,60.0786790409278,
15,0,15,0,3,0,3,0,,,,,,,,,,right,1.366897899992182,448.8729725000012,rn14,448.8729725000012,None,438.3826144999912,440.3970738999924,False,4,['r'],True,0.4444444444444445,0.6666666666666666,0.3333333333333333,1.0,1.0,0.9656336071428248,0.0,wait_cost,0,3,447.9899887999927,None,4,rn14,4,2023-03-30_11h55.04.665,threat_forest,2021.2.3,60.0786790409278,
15,0,15,0,4,0,4,0,,,,,,,,,,right,0.6888276000099722,453.95133969999733,rn14,450.2715992000012,452.2859587999992,453.95133969999733,None,True,3,['r'],False,0.1875,0.25,0.25,2.0,1.0,0.895754137500101,-0.25,succ_gain,1,4,452.2859587999992,None,3,rn14,4,2023-03-30_11h55.04.665,threat_forest,2021.2.3,60.0786790409278,
15,0,15,0,5,0,5,0,,,,,,,,,,right,1.2329106999968644,460.1974329999939,rn14,460.1974329999939,None,454.6673923999915,456.6819143999892,False,4,['r'],True,0.4444444444444445,0.6666666666666666,0.3333333333333333,1.0,1.0,0.9656336071428248,0.0,wait_cost,0,3,456.6819143999892,None,4,rn14,4,2023-03-30_11h55.04.665,threat_forest,2021.2.3,60.0786790409278,
15,0,15,0,6,0,6,0,,,,,,,,,,left,0.45347579999361187,466.8412837999931,rn14,461.4611317999952,463.47545879999234,466.8412837999931,None,False,3,['r'],False,0.1875,0.25,0.25,2.0,1.0,0.895754137500101,-0.25,wait_cost,1,2,463.47545879999234,None,3,rn14,4,2023-03-30_11h55.04.665,threat_forest,2021.2.3,60.0786790409278,
15,0,15,0,7,0,7,0,,,,,,,,,,right,0.5014690999960294,471.7202752000012,rn14,471.7202752000012,None,467.322250799989,469.3367341999983,False,2,['r'],True,0.4444444444444445,0.6666666666666666,0.3333333333333333,1.0,1.0,0.9656336071428248,-0.5555555555555556,wait_cost,0,1,469.3367341999983,None,2,rn14,4,2023-03-30_11h55.04.665,threat_forest,2021.2.3,60.0786790409278,
15,0,15,0,,,,,,,,,,,,,,,,,,,,,,,,,,,,,,,,,,,,474.265473499996,None,1,rn14,4,2023-03-30_11h55.04.665,threat_forest,2021.2.3,60.0786790409278,
16,0,16,0,0,0,0,0,,,,,,,477.386734899992,480.89249479999125,None,left,1.1065977999969618,481.5926602999971,rn14,481.5926602999971,None,477.386734899992,480.89249479999125,True,5,['p'],True,0.4,0.4,0.0,0.0,2.0,0.6126016192893442,0.0,unsucc_cost,0,3,,,,rn14,4,2023-03-30_11h55.04.665,threat_forest,2021.2.3,60.0786790409278,
16,0,16,0,1,0,1,0,,,,,,,,,,right,0.7250217999971937,487.9535837000003,rn14,482.72454709999147,484.73895249998895,487.9535837000003,None,True,3,['p'],False,0.3061224489795918,0.4285714285714285,0.2857142857142857,2.0,2.0,0.9885754083994552,-0.2857142857142857,succ_gain,1,5,484.73895249998895,None,3,rn14,4,2023-03-30_11h55.04.665,threat_forest,2021.2.3,60.0786790409278,
16,0,16,0,2,0,2,0,,,,,,,,,,right,1.1178467999998247,491.8492739999929,rn14,491.8492739999929,None,488.7023188000021,490.7166644999961,False,5,['p'],True,0.4,0.4,0.0,0.0,2.0,0.6126016192893442,0.0,wait_cost,0,4,490.7166644999961,None,5,rn14,4,2023-03-30_11h55.04.665,threat_forest,2021.2.3,60.0786790409278,
16,0,16,0,3,0,3,0,,,,,,,,,,left,0.6839540000073612,498.4269437999901,rn14,498.4269437999901,None,488.7023188000021,490.7166644999961,True,4,['p'],True,0.4,0.4,0.0,0.0,2.0,0.6126016192893442,0.0,succ_gain,0,6,495.0127150999906,None,4,rn14,4,2023-03-30_11h55.04.665,threat_forest,2021.2.3,60.0786790409278,
16,0,16,0,4,0,4,0,,,,,,,,,,right,0.43058210000162944,503.0389101999899,rn14,503.0389101999899,None,488.7023188000021,490.7166644999961,False,6,['p'],True,0.4,0.4,0.0,0.0,2.0,0.6126016192893442,0.0,wait_cost,0,5,501.1569537999894,None,6,rn14,4,2023-03-30_11h55.04.665,threat_forest,2021.2.3,60.0786790409278,
16,0,16,0,5,0,5,0,,,,,,,,,,left,0.6730930999910925,508.08752429999004,rn14,503.48854539998865,505.50287349999417,508.08752429999004,None,False,5,['p'],False,0.3061224489795918,0.4285714285714285,0.2857142857142857,2.0,2.0,0.9885754083994552,0.0,wait_cost,1,4,505.50287349999417,None,5,rn14,4,2023-03-30_11h55.04.665,threat_forest,2021.2.3,60.0786790409278,
16,0,16,0,6,0,6,0,,,,,,,,,,right,0.5858921999897575,512.3136930999899,rn14,512.3136930999899,None,508.78354540000146,510.7979508999997,False,4,['p'],True,0.4,0.4,0.0,0.0,2.0,0.6126016192893442,0.0,wait_cost,0,3,510.7979508999997,None,4,rn14,4,2023-03-30_11h55.04.665,threat_forest,2021.2.3,60.0786790409278,
16,0,16,0,7,0,7,0,,,,,,,,,,left,0.5319096000021091,515.6440795999952,rn14,512.9296663999994,514.9440830999956,515.6440795999952,None,False,3,['p'],False,0.3061224489795918,0.4285714285714285,0.2857142857142857,2.0,2.0,0.9885754083994552,-0.2857142857142857,wait_cost,1,2,514.9440830999956,None,3,rn14,4,2023-03-30_11h55.04.665,threat_forest,2021.2.3,60.0786790409278,
16,0,16,0,,,,,,,,,,,,,,,,,,,,,,,,,,,,,,,,,,,,518.207754499992,None,2,rn14,4,2023-03-30_11h55.04.665,threat_forest,2021.2.3,60.0786790409278,
17,0,17,0,0,0,0,0,,,,,,,520.1285980999965,523.635946800001,None,right,1.1888509999989765,525.2201551999897,rn14,520.1285980999965,523.635946800001,525.2201551999897,None,True,4,['p'],False,0.2040816326530612,0.2857142857142857,0.2857142857142857,2.0,2.0,0.9335459102197724,0.0,succ_gain,1,6,,,,rn14,4,2023-03-30_11h55.04.665,threat_forest,2021.2.3,60.0786790409278,
17,0,17,0,1,0,1,0,,,,,,,,,,right,0.425404299996444,531.4990538999991,rn14,531.4990538999991,None,526.433624199999,528.4481144000019,False,6,['p'],True,0.4444444444444445,0.6666666666666666,0.3333333333333333,1.0,2.0,0.9656336071428248,0.0,wait_cost,0,5,528.4481144000019,None,6,rn14,4,2023-03-30_11h55.04.665,threat_forest,2021.2.3,60.0786790409278,
17,0,17,0,2,0,2,0,,,,,,,,,,right,2.2252321999985725,534.6760170999914,rn14,534.6760170999914,None,526.433624199999,528.4481144000019,False,5,['p'],True,0.4444444444444445,0.6666666666666666,0.3333333333333333,1.0,2.0,0.9656336071428248,0.0,wait_cost,0,4,533.9599780999997,None,5,rn14,4,2023-03-30_11h55.04.665,threat_forest,2021.2.3,60.0786790409278,
17,0,17,0,3,0,3,0,,,,,,,,,,right,0.7845549000048777,540.370597599991,rn14,536.923942399997,538.9382869999972,540.370597599991,None,True,4,['p'],False,0.2040816326530612,0.2857142857142857,0.2857142857142857,2.0,2.0,0.9335459102197724,0.0,fight_cost,1,1,538.9382869999972,None,4,rn14,4,2023-03-30_11h55.04.665,threat_forest,2021.2.3,60.0786790409278,
17,0,17,0,4,0,4,0,,,,,,,,,,right,0.4479791000048863,544.9163323999965,rn14,536.923942399997,538.9382869999972,544.9163323999965,None,True,1,['p'],False,0.2040816326530612,0.2857142857142857,0.2857142857142857,2.0,2.0,0.9335459102197724,0.2040816326530612,unsucc_cost,1,0,543.2009625999926,None,1,rn14,4,2023-03-30_11h55.04.665,threat_forest,2021.2.3,60.0786790409278,
17,0,17,0,,,,,,,,,,,,,,,,,,,,,,,,,,,,,,,,,,,,547.3972244999895,None,0,rn14,4,2023-03-30_11h55.04.665,threat_forest,2021.2.3,60.0786790409278,
