miniblock.thisRepN,miniblock.thisTrialN,miniblock.thisN,miniblock.thisIndex,day.thisRepN,day.thisTrialN,day.thisN,day.thisIndex,welcoming.started,welcoming.stopped,key_resp_2.keys,key_resp_2.rt,key_resp_2.started,key_resp_2.stopped,forest.started,fixation_forest.started,fixation_forest.stopped,key_resp.keys,key_resp.rt,key_resp.started,Subject_ID,weather_left.started,weather_left.stopped,weather_right.started,weather_right.stopped,foraging T/F,in_LP,p/r heuristic,good_weather.T/F,p_succ_correct,p_succ_uncorrected,r_threat,n_oponents,gain_if_succ,weather_entropy,OP_value_difference,action_outcome,forest_side_L=0_R=1,out_LP,fixation_day.started,fixation_day.stopped,n_day-1.out_LP.,participant,session,date,expName,psychopyVersion,frameRate,
,,,,,,,,11.79619029990863,None,space,14.612033399986103,11.79619029990863,None,,,,,,,,,,,,,,,,,,,,,,,,,,,,,zu11,2,2023-03-28_11h25.37.494,threat_forest,2021.2.3,61.111695066221564,
0,0,0,0,0,0,0,0,,,,,,,26.477496800012887,29.981113099958748,None,left,1.5855507999658585,33.32538289995864,zu11,26.477496800012887,29.981113099958748,33.32538289995864,None,False,5,['r'],False,0.3061224489795918,0.4285714285714285,0.2857142857142857,2.0,2.0,0.9885754083994552,0.0,wait_cost,1,4,,,,zu11,2,2023-03-28_11h25.37.494,threat_forest,2021.2.3,61.111695066221564,
0,0,0,0,1,0,1,0,,,,,,,,,,right,0.9517343000043184,37.724532099906355,zu11,26.477496800012887,29.981113099958748,37.724532099906355,None,True,4,['r'],False,0.3061224489795918,0.4285714285714285,0.2857142857142857,2.0,2.0,0.9885754083994552,0.0,unsucc_cost,1,2,36.95800599991344,None,4,zu11,2,2023-03-28_11h25.37.494,threat_forest,2021.2.3,61.111695066221564,
0,0,0,0,2,0,2,0,,,,,,,,,,right,0.9315432000439614,42.83646219992079,zu11,26.477496800012887,29.981113099958748,42.83646219992079,None,True,2,['r'],False,0.3061224489795918,0.4285714285714285,0.2857142857142857,2.0,2.0,0.9885754083994552,-0.6938775510204083,unsucc_cost,1,0,40.72119269997347,None,2,zu11,2,2023-03-28_11h25.37.494,threat_forest,2021.2.3,61.111695066221564,
0,0,0,0,,,,,,,,,,,,,,,,,,,,,,,,,,,,,,,,,,,,45.8027653999161,None,0,zu11,2,2023-03-28_11h25.37.494,threat_forest,2021.2.3,61.111695066221564,
1,0,1,0,0,0,0,0,,,,,,,47.54743709997274,51.04048349999357,None,left,1.511023800005205,52.08114789996762,zu11,47.54743709997274,51.04048349999357,52.08114789996762,None,False,5,['p'],False,0.16,0.2,0.2,2.0,2.0,0.8198746470064713,0.0,wait_cost,1,4,,,,zu11,2,2023-03-28_11h25.37.494,threat_forest,2021.2.3,61.111695066221564,
1,0,1,0,1,0,1,0,,,,,,,,,,left,0.9563885000534356,59.254232999985106,zu11,47.54743709997274,51.04048349999357,59.254232999985106,None,False,4,['p'],False,0.16,0.2,0.2,2.0,2.0,0.8198746470064713,0.0,wait_cost,1,3,55.623955499962904,None,4,zu11,2,2023-03-28_11h25.37.494,threat_forest,2021.2.3,61.111695066221564,
1,0,1,0,2,0,2,0,,,,,,,,,,left,0.6333240999374539,64.54942729999311,zu11,47.54743709997274,51.04048349999357,64.54942729999311,None,False,3,['p'],False,0.16,0.2,0.2,2.0,2.0,0.8198746470064713,-0.2,wait_cost,1,2,62.25141749996692,None,3,zu11,2,2023-03-28_11h25.37.494,threat_forest,2021.2.3,61.111695066221564,
1,0,1,0,3,0,3,0,,,,,,,,,,left,1.5416548000648618,68.248167200014,zu11,68.248167200014,None,65.21540699992329,67.22975940001197,True,2,['p'],True,0.24,0.4,0.4,2.0,2.0,0.9801625908629508,-0.76,succ_gain,0,4,67.22975940001197,None,2,zu11,2,2023-03-28_11h25.37.494,threat_forest,2021.2.3,61.111695066221564,
1,0,1,0,4,0,4,0,,,,,,,,,,left,1.295354500063695,73.06256409990601,zu11,69.8109946999466,71.82545899995603,73.06256409990601,None,False,4,['p'],False,0.16,0.2,0.2,2.0,2.0,0.8198746470064713,0.0,wait_cost,1,3,71.82545899995603,None,4,zu11,2,2023-03-28_11h25.37.494,threat_forest,2021.2.3,61.111695066221564,
1,0,1,0,5,0,5,0,,,,,,,,,,left,0.7936108000576496,79.83802779996768,zu11,69.8109946999466,71.82545899995603,79.83802779996768,None,False,3,['p'],False,0.16,0.2,0.2,2.0,2.0,0.8198746470064713,-0.2,wait_cost,1,2,76.40455079998355,None,3,zu11,2,2023-03-28_11h25.37.494,threat_forest,2021.2.3,61.111695066221564,
1,0,1,0,6,0,6,0,,,,,,,,,,left,1.1379135999595746,84.04775379993953,zu11,69.8109946999466,71.82545899995603,84.04775379993953,None,False,2,['p'],False,0.16,0.2,0.2,2.0,2.0,0.8198746470064713,-0.8400000000000001,wait_cost,1,1,82.66537329996936,None,2,zu11,2,2023-03-28_11h25.37.494,threat_forest,2021.2.3,61.111695066221564,
1,0,1,0,7,0,7,0,,,,,,,,,,right,1.0327873999485746,89.74254729994573,zu11,69.8109946999466,71.82545899995603,89.74254729994573,None,True,1,['p'],False,0.16,0.2,0.2,2.0,2.0,0.8198746470064713,0.1599999999999999,succ_gain,1,3,87.22779389994685,None,1,zu11,2,2023-03-28_11h25.37.494,threat_forest,2021.2.3,61.111695066221564,
1,0,1,0,,,,,,,,,,,,,,,,,,,,,,,,,,,,,,,,,,,,92.82262809993699,None,3,zu11,2,2023-03-28_11h25.37.494,threat_forest,2021.2.3,61.111695066221564,
2,0,2,0,0,0,0,0,,,,,,,96.51032709993888,100.01584180002101,None,left,2.096814400050789,101.3152447999455,zu11,96.51032709993888,100.01584180002101,101.3152447999455,None,False,4,['p'],False,0.4081632653061224,0.5714285714285714,0.2857142857142857,2.0,1.0,0.9885754083994552,0.0,wait_cost,1,3,,,,zu11,2,2023-03-28_11h25.37.494,threat_forest,2021.2.3,61.111695066221564,
2,0,2,0,1,0,1,0,,,,,,,,,,right,0.808889799984172,106.97660099994391,zu11,96.51032709993888,100.01584180002101,106.97660099994391,None,True,3,['p'],False,0.4081632653061224,0.5714285714285714,0.2857142857142857,2.0,1.0,0.9885754083994552,-0.2857142857142857,succ_gain,1,4,105.4441098999232,None,3,zu11,2,2023-03-28_11h25.37.494,threat_forest,2021.2.3,61.111695066221564,
2,0,2,0,2,0,2,0,,,,,,,,,,left,1.305761000025086,112.50448160001542,zu11,96.51032709993888,100.01584180002101,112.50448160001542,None,False,4,['p'],False,0.4081632653061224,0.5714285714285714,0.2857142857142857,2.0,1.0,0.9885754083994552,0.0,wait_cost,1,3,109.82347529998515,None,4,zu11,2,2023-03-28_11h25.37.494,threat_forest,2021.2.3,61.111695066221564,
2,0,2,0,3,0,3,0,,,,,,,,,,right,1.0615114000393078,119.58124749991111,zu11,96.51032709993888,100.01584180002101,119.58124749991111,None,True,3,['p'],False,0.4081632653061224,0.5714285714285714,0.2857142857142857,2.0,1.0,0.9885754083994552,-0.2857142857142857,unsucc_cost,1,1,115.85110929992516,None,3,zu11,2,2023-03-28_11h25.37.494,threat_forest,2021.2.3,61.111695066221564,
2,0,2,0,4,0,4,0,,,,,,,,,,right,0.5833133000414819,126.40822649991605,zu11,96.51032709993888,100.01584180002101,126.40822649991605,None,True,1,['p'],False,0.4081632653061224,0.5714285714285714,0.2857142857142857,2.0,1.0,0.9885754083994552,0.4081632653061224,succ_gain,1,2,122.67809559998568,None,1,zu11,2,2023-03-28_11h25.37.494,threat_forest,2021.2.3,61.111695066221564,
2,0,2,0,5,0,5,0,,,,,,,,,,left,1.380964700016193,130.7375011999393,zu11,96.51032709993888,100.01584180002101,130.7375011999393,None,False,2,['p'],False,0.4081632653061224,0.5714285714285714,0.2857142857142857,2.0,1.0,0.9885754083994552,-0.5918367346938775,wait_cost,1,1,129.03879949997645,None,2,zu11,2,2023-03-28_11h25.37.494,threat_forest,2021.2.3,61.111695066221564,
2,0,2,0,6,0,6,0,,,,,,,,,,left,2.3522893000626937,136.23463849991094,zu11,136.23463849991094,None,132.1360867000185,134.15098899998702,True,1,['p'],True,0.5,0.5,0.0,0.0,1.0,0.6309297535714574,0.5,fight_cost,0,0,134.15098899998702,None,1,zu11,2,2023-03-28_11h25.37.494,threat_forest,2021.2.3,61.111695066221564,
2,0,2,0,,,,,,,,,,,,,,,,,,,,,,,,,,,,,,,,,,,,140.6282003999222,None,0,zu11,2,2023-03-28_11h25.37.494,threat_forest,2021.2.3,61.111695066221564,
3,0,3,0,0,0,0,0,,,,,,,144.03093309991527,147.53819079999812,None,left,1.649870999972336,150.92133879999164,zu11,150.92133879999164,None,144.03093309991527,147.53819079999812,True,4,['r'],True,0.4444444444444445,0.6666666666666666,0.3333333333333333,1.0,1.0,0.9656336071428248,0.0,fight_cost,0,1,,,,zu11,2,2023-03-28_11h25.37.494,threat_forest,2021.2.3,61.111695066221564,
3,0,3,0,1,0,1,0,,,,,,,,,,left,1.8820676000323147,155.4668754999293,zu11,152.60043069999665,154.61489630001597,155.4668754999293,None,False,1,['r'],False,0.2448979591836734,0.2857142857142857,0.1428571428571428,1.0,1.0,0.8400769154957735,0.2448979591836735,wait_cost,1,0,154.61489630001597,None,1,zu11,2,2023-03-28_11h25.37.494,threat_forest,2021.2.3,61.111695066221564,
3,0,3,0,,,,,,,,,,,,,,,,,,,,,,,,,,,,,,,,,,,,159.3938843999058,None,0,zu11,2,2023-03-28_11h25.37.494,threat_forest,2021.2.3,61.111695066221564,
4,0,4,0,0,0,0,0,,,,,,,162.1984293999849,165.70457299996633,None,left,1.5683154999278486,169.20156219997443,zu11,162.1984293999849,165.70457299996633,169.20156219997443,None,False,5,['r'],False,0.2040816326530612,0.2857142857142857,0.2857142857142857,2.0,2.0,0.9335459102197724,0.0,wait_cost,1,4,,,,zu11,2,2023-03-28_11h25.37.494,threat_forest,2021.2.3,61.111695066221564,
4,0,4,0,1,0,1,0,,,,,,,,,,right,1.5162645999807864,176.19507579994388,zu11,162.1984293999849,165.70457299996633,176.19507579994388,None,True,4,['r'],False,0.2040816326530612,0.2857142857142857,0.2857142857142857,2.0,2.0,0.9335459102197724,0.0,unsucc_cost,1,2,172.81453550001606,None,4,zu11,2,2023-03-28_11h25.37.494,threat_forest,2021.2.3,61.111695066221564,
4,0,4,0,2,0,2,0,,,,,,,,,,left,1.3390572000062093,182.25708579993807,zu11,182.25708579993807,None,177.74423419998493,179.75816339999437,True,2,['r'],True,0.25,0.25,0.0,0.0,2.0,0.5118595071429148,-0.75,succ_gain,0,4,179.75816339999437,None,2,zu11,2,2023-03-28_11h25.37.494,threat_forest,2021.2.3,61.111695066221564,
4,0,4,0,3,0,3,0,,,,,,,,,,left,2.1742709999671206,186.5187379999552,zu11,183.6215963999275,185.6359802999068,186.5187379999552,None,False,4,['r'],False,0.2040816326530612,0.2857142857142857,0.2857142857142857,2.0,2.0,0.9335459102197724,0.0,wait_cost,1,3,185.6359802999068,None,4,zu11,2,2023-03-28_11h25.37.494,threat_forest,2021.2.3,61.111695066221564,
4,0,4,0,4,0,4,0,,,,,,,,,,right,1.2781067999312654,192.6962394999573,zu11,183.6215963999275,185.6359802999068,192.6962394999573,None,True,3,['r'],False,0.2040816326530612,0.2857142857142857,0.2857142857142857,2.0,2.0,0.9335459102197724,-0.2857142857142857,unsucc_cost,1,1,190.73124069999903,None,3,zu11,2,2023-03-28_11h25.37.494,threat_forest,2021.2.3,61.111695066221564,
4,0,4,0,5,0,5,0,,,,,,,,,,right,0.8042260999791324,197.80828809994273,zu11,183.6215963999275,185.6359802999068,197.80828809994273,None,True,1,['r'],False,0.2040816326530612,0.2857142857142857,0.2857142857142857,2.0,2.0,0.9335459102197724,0.2040816326530612,unsucc_cost,1,0,196.00999699998647,None,1,zu11,2,2023-03-28_11h25.37.494,threat_forest,2021.2.3,61.111695066221564,
4,0,4,0,,,,,,,,,,,,,,,,,,,,,,,,,,,,,,,,,,,,200.65541329991538,None,0,zu11,2,2023-03-28_11h25.37.494,threat_forest,2021.2.3,61.111695066221564,
5,0,5,0,0,0,0,0,,,,,,,203.2734301999444,206.78289769997355,None,right,2.3483840000117198,208.78242629999295,zu11,208.78242629999295,None,203.2734301999444,206.78289769997355,False,4,['p'],True,0.3333333333333333,0.3333333333333333,0.0,0.0,1.0,0.5793801642856949,0.0,wait_cost,0,3,,,,zu11,2,2023-03-28_11h25.37.494,threat_forest,2021.2.3,61.111695066221564,
5,0,5,0,1,0,1,0,,,,,,,,,,right,1.4901679999893531,214.8424049000023,zu11,214.8424049000023,None,203.2734301999444,206.78289769997355,False,3,['p'],True,0.3333333333333333,0.3333333333333333,0.0,0.0,1.0,0.5793801642856949,0.0,wait_cost,0,2,213.1769643999869,None,3,zu11,2,2023-03-28_11h25.37.494,threat_forest,2021.2.3,61.111695066221564,
5,0,5,0,2,0,2,0,,,,,,,,,,right,1.1217438000021502,219.7543307999149,zu11,216.3576893999707,218.372133799945,219.7543307999149,None,True,2,['p'],False,0.24,0.4,0.4,2.0,1.0,0.9801625908629508,-0.76,succ_gain,1,3,218.372133799945,None,2,zu11,2,2023-03-28_11h25.37.494,threat_forest,2021.2.3,61.111695066221564,
5,0,5,0,3,0,3,0,,,,,,,,,,right,0.8700655999127775,224.89953739999328,zu11,216.3576893999707,218.372133799945,224.89953739999328,None,True,3,['p'],False,0.24,0.4,0.4,2.0,1.0,0.9801625908629508,-0.4,unsucc_cost,1,1,222.91817839990836,None,3,zu11,2,2023-03-28_11h25.37.494,threat_forest,2021.2.3,61.111695066221564,
5,0,5,0,4,0,4,0,,,,,,,,,,left,1.00208190002013,231.06069600000046,zu11,231.06069600000046,None,225.79874669993296,227.8132748999633,True,1,['p'],True,0.3333333333333333,0.3333333333333333,0.0,0.0,1.0,0.5793801642856949,0.3333333333333332,fight_cost,0,0,227.8132748999633,None,1,zu11,2,2023-03-28_11h25.37.494,threat_forest,2021.2.3,61.111695066221564,
5,0,5,0,,,,,,,,,,,,,,,,,,,,,,,,,,,,,,,,,,,,234.10748100001365,None,0,zu11,2,2023-03-28_11h25.37.494,threat_forest,2021.2.3,61.111695066221564,
6,0,6,0,0,0,0,0,,,,,,,235.96709399996325,239.46061079995707,None,right,2.1472583001013845,241.4057870999677,zu11,241.4057870999677,None,235.96709399996325,239.46061079995707,False,4,['p'],True,0.375,0.5,0.25,1.0,1.0,0.9850568223215076,0.0,wait_cost,0,3,,,,zu11,2,2023-03-28_11h25.37.494,threat_forest,2021.2.3,61.111695066221564,
6,0,6,0,1,0,1,0,,,,,,,,,,right,2.497479400015436,248.86059639998712,zu11,243.5822759999428,245.5967792000156,248.86059639998712,None,True,3,['p'],False,0.24,0.3,0.2,2.0,1.0,0.9003120349047065,-0.2,fight_cost,1,0,245.5967792000156,None,3,zu11,2,2023-03-28_11h25.37.494,threat_forest,2021.2.3,61.111695066221564,
6,0,6,0,,,,,,,,,,,,,,,,,,,,,,,,,,,,,,,,,,,,253.3895659999689,None,0,zu11,2,2023-03-28_11h25.37.494,threat_forest,2021.2.3,61.111695066221564,
7,0,7,0,0,0,0,0,,,,,,,255.88368859991897,259.38389329996426,None,left,2.5535163999302313,260.7188732000068,zu11,260.7188732000068,None,255.88368859991897,259.38389329996426,True,5,['p'],True,0.6,0.6,0.0,0.0,2.0,0.6126016192893442,0.0,fight_cost,0,2,,,,zu11,2,2023-03-28_11h25.37.494,threat_forest,2021.2.3,61.111695066221564,
7,0,7,0,1,0,1,0,,,,,,,,,,right,0.7393058000598103,268.59219160000794,zu11,263.2972858999856,265.31161939993035,268.59219160000794,None,True,2,['p'],False,0.46875,0.625,0.25,2.0,2.0,0.9634951148421658,-0.53125,succ_gain,1,4,265.31161939993035,None,2,zu11,2,2023-03-28_11h25.37.494,threat_forest,2021.2.3,61.111695066221564,
7,0,7,0,2,0,2,0,,,,,,,,,,right,0.8495292000006884,274.5866652999539,zu11,263.2972858999856,265.31161939993035,274.5866652999539,None,True,4,['p'],False,0.46875,0.625,0.25,2.0,2.0,0.9634951148421658,0.0,succ_gain,1,6,271.37264620000497,None,4,zu11,2,2023-03-28_11h25.37.494,threat_forest,2021.2.3,61.111695066221564,
7,0,7,0,3,0,3,0,,,,,,,,,,right,1.3475658000679687,278.03816250001546,zu11,278.03816250001546,None,275.452514900011,277.46693949995097,False,6,['p'],True,0.6,0.6,0.0,0.0,2.0,0.6126016192893442,0.0,wait_cost,0,5,277.46693949995097,None,6,zu11,2,2023-03-28_11h25.37.494,threat_forest,2021.2.3,61.111695066221564,
7,0,7,0,4,0,4,0,,,,,,,,,,left,1.4777901000343263,283.6781617999077,zu11,279.41566149995197,281.4300265000202,283.6781617999077,None,False,5,['p'],False,0.46875,0.625,0.25,2.0,2.0,0.9634951148421658,0.0,wait_cost,1,4,281.4300265000202,None,5,zu11,2,2023-03-28_11h25.37.494,threat_forest,2021.2.3,61.111695066221564,
7,0,7,0,5,0,5,0,,,,,,,,,,right,1.6173011000500992,289.8083733000094,zu11,289.8083733000094,None,285.1767438999377,287.19122449995484,False,4,['p'],True,0.6,0.6,0.0,0.0,2.0,0.6126016192893442,0.0,wait_cost,0,3,287.19122449995484,None,4,zu11,2,2023-03-28_11h25.37.494,threat_forest,2021.2.3,61.111695066221564,
7,0,7,0,6,0,6,0,,,,,,,,,,left,1.0231028000125661,295.4338845999446,zu11,291.45432839996647,293.4686863999814,295.4338845999446,None,False,3,['p'],False,0.46875,0.625,0.25,2.0,2.0,0.9634951148421658,-0.25,wait_cost,1,2,293.4686863999814,None,3,zu11,2,2023-03-28_11h25.37.494,threat_forest,2021.2.3,61.111695066221564,
7,0,7,0,7,0,7,0,,,,,,,,,,right,0.7644169999985024,299.9964305999456,zu11,299.9964305999456,None,296.48295909992885,298.49739209993277,False,2,['p'],True,0.6,0.6,0.0,0.0,2.0,0.6126016192893442,-0.4,wait_cost,0,1,298.49739209993277,None,2,zu11,2,2023-03-28_11h25.37.494,threat_forest,2021.2.3,61.111695066221564,
7,0,7,0,,,,,,,,,,,,,,,,,,,,,,,,,,,,,,,,,,,,302.79342579992954,None,1,zu11,2,2023-03-28_11h25.37.494,threat_forest,2021.2.3,61.111695066221564,
8,0,8,0,0,0,0,0,,,,,,,306.3642999000149,309.8702419999754,None,right,1.7209378000115976,313.03405809996184,zu11,313.03405809996184,None,306.3642999000149,309.8702419999754,False,5,['p'],True,0.25,0.25,0.0,0.0,1.0,0.5118595071429148,0.0,wait_cost,0,4,,,,zu11,2,2023-03-28_11h25.37.494,threat_forest,2021.2.3,61.111695066221564,
8,0,8,0,1,0,1,0,,,,,,,,,,left,2.777303499984555,320.54557299998123,zu11,314.7825419999426,316.79691029991955,320.54557299998123,None,False,4,['p'],False,0.2040816326530612,0.2857142857142857,0.2857142857142857,2.0,1.0,0.9335459102197724,0.0,wait_cost,1,3,316.79691029991955,None,4,zu11,2,2023-03-28_11h25.37.494,threat_forest,2021.2.3,61.111695066221564,
8,0,8,0,2,0,2,0,,,,,,,,,,left,1.137230099993758,328.17016879993025,zu11,314.7825419999426,316.79691029991955,328.17016879993025,None,False,3,['p'],False,0.2040816326530612,0.2857142857142857,0.2857142857142857,2.0,1.0,0.9335459102197724,-0.2857142857142857,wait_cost,1,2,325.35626179992687,None,3,zu11,2,2023-03-28_11h25.37.494,threat_forest,2021.2.3,61.111695066221564,
8,0,8,0,3,0,3,0,,,,,,,,,,left,2.1775786000071093,333.3151588999899,zu11,314.7825419999426,316.79691029991955,333.3151588999899,None,False,2,['p'],False,0.2040816326530612,0.2857142857142857,0.2857142857142857,2.0,1.0,0.9335459102197724,-0.7959183673469388,wait_cost,1,1,331.3500401999336,None,2,zu11,2,2023-03-28_11h25.37.494,threat_forest,2021.2.3,61.111695066221564,
8,0,8,0,4,0,4,0,,,,,,,,,,right,0.942713399999775,338.7933943999233,zu11,314.7825419999426,316.79691029991955,338.7933943999233,None,True,1,['p'],False,0.2040816326530612,0.2857142857142857,0.2857142857142857,2.0,1.0,0.9335459102197724,0.2040816326530612,unsucc_cost,1,0,337.52758759993594,None,1,zu11,2,2023-03-28_11h25.37.494,threat_forest,2021.2.3,61.111695066221564,
8,0,8,0,,,,,,,,,,,,,,,,,,,,,,,,,,,,,,,,,,,,341.7737298000138,None,0,zu11,2,2023-03-28_11h25.37.494,threat_forest,2021.2.3,61.111695066221564,
9,0,9,0,0,0,0,0,,,,,,,343.08042439993005,346.5858822999289,None,right,2.124646699987352,350.0845240999479,zu11,350.0845240999479,None,343.08042439993005,346.5858822999289,False,5,['r'],True,0.4444444444444445,0.6666666666666666,0.3333333333333333,1.0,1.0,0.9656336071428248,0.0,wait_cost,0,4,,,,zu11,2,2023-03-28_11h25.37.494,threat_forest,2021.2.3,61.111695066221564,
9,0,9,0,1,0,1,0,,,,,,,,,,right,0.7455302000744268,355.87756049993914,zu11,355.87756049993914,None,343.08042439993005,346.5858822999289,False,4,['r'],True,0.4444444444444445,0.6666666666666666,0.3333333333333333,1.0,1.0,0.9656336071428248,0.0,wait_cost,0,3,354.2453543000156,None,4,zu11,2,2023-03-28_11h25.37.494,threat_forest,2021.2.3,61.111695066221564,
9,0,9,0,2,0,2,0,,,,,,,,,,right,2.0792030000593513,360.8228666000068,zu11,356.6438564999262,358.6579091999447,360.8228666000068,None,True,3,['r'],False,0.2222222222222222,0.2222222222222222,0.0,0.0,1.0,0.4821593609696809,0.0,unsucc_cost,1,1,358.6579091999447,None,3,zu11,2,2023-03-28_11h25.37.494,threat_forest,2021.2.3,61.111695066221564,
9,0,9,0,3,0,3,0,,,,,,,,,,right,1.3307652999646962,368.3991090999916,zu11,356.6438564999262,358.6579091999447,368.3991090999916,None,True,1,['r'],False,0.2222222222222222,0.2222222222222222,0.0,0.0,1.0,0.4821593609696809,0.2222222222222222,succ_gain,1,2,364.93540519999806,None,1,zu11,2,2023-03-28_11h25.37.494,threat_forest,2021.2.3,61.111695066221564,
9,0,9,0,4,0,4,0,,,,,,,,,,right,0.9227529000490904,373.0113968999358,zu11,356.6438564999262,358.6579091999447,373.0113968999358,None,True,2,['r'],False,0.2222222222222222,0.2222222222222222,0.0,0.0,1.0,0.4821593609696809,-0.7777777777777778,succ_gain,1,3,371.76229739992414,None,2,zu11,2,2023-03-28_11h25.37.494,threat_forest,2021.2.3,61.111695066221564,
9,0,9,0,5,0,5,0,,,,,,,,,,right,1.228266300051473,378.20792269997764,zu11,378.20792269997764,None,373.96055810002144,375.97545079991687,False,3,['r'],True,0.4444444444444445,0.6666666666666666,0.3333333333333333,1.0,1.0,0.9656336071428248,-0.3333333333333333,wait_cost,0,2,375.97545079991687,None,3,zu11,2,2023-03-28_11h25.37.494,threat_forest,2021.2.3,61.111695066221564,
9,0,9,0,6,0,6,0,,,,,,,,,,right,1.654158900026232,382.21990529994946,zu11,382.21990529994946,None,373.96055810002144,375.97545079991687,False,2,['r'],True,0.4444444444444445,0.6666666666666666,0.3333333333333333,1.0,1.0,0.9656336071428248,-0.5555555555555556,wait_cost,0,1,381.46992419997696,None,2,zu11,2,2023-03-28_11h25.37.494,threat_forest,2021.2.3,61.111695066221564,
9,0,9,0,7,0,7,0,,,,,,,,,,left,1.0514548999490216,388.21400719997473,zu11,388.21400719997473,None,373.96055810002144,375.97545079991687,True,1,['r'],True,0.4444444444444445,0.6666666666666666,0.3333333333333333,1.0,1.0,0.9656336071428248,0.4444444444444444,unsucc_cost,0,0,385.91577750002034,None,1,zu11,2,2023-03-28_11h25.37.494,threat_forest,2021.2.3,61.111695066221564,
9,0,9,0,,,,,,,,,,,,,,,,,,,,,,,,,,,,,,,,,,,,391.3108469999861,None,0,zu11,2,2023-03-28_11h25.37.494,threat_forest,2021.2.3,61.111695066221564,
10,0,10,0,0,0,0,0,,,,,,,394.1724648999516,397.6759159999201,None,left,2.382062999997288,401.30173810000997,zu11,394.1724648999516,397.6759159999201,401.30173810000997,None,False,5,['r'],False,0.2962962962962963,0.3333333333333333,0.1111111111111111,1.0,2.0,0.8325252476189534,0.0,wait_cost,1,4,,,,zu11,2,2023-03-28_11h25.37.494,threat_forest,2021.2.3,61.111695066221564,
10,0,10,0,1,0,1,0,,,,,,,,,,None,,407.1326193999266,zu11,407.1326193999266,None,403.7161906999536,405.7306681999471,None,4,['r'],True,0.4166666666666667,0.5,0.1666666666666666,1.0,2.0,0.9358932809493992,0.0,wait_cost,0,3,405.7306681999471,None,4,zu11,2,2023-03-28_11h25.37.494,threat_forest,2021.2.3,61.111695066221564,
10,0,10,0,2,0,2,0,,,,,,,,,,left,1.4206717999186367,415.10569389990997,zu11,415.10569389990997,None,403.7161906999536,405.7306681999471,True,3,['r'],True,0.4166666666666667,0.5,0.1666666666666666,1.0,2.0,0.9358932809493992,-0.1666666666666666,unsucc_cost,0,1,412.1580165999476,None,3,zu11,2,2023-03-28_11h25.37.494,threat_forest,2021.2.3,61.111695066221564,
10,0,10,0,3,0,3,0,,,,,,,,,,right,0.928488599951379,420.20084599999245,zu11,416.55424029997084,418.56897139991634,420.20084599999245,None,True,1,['r'],False,0.2962962962962963,0.3333333333333333,0.1111111111111111,1.0,2.0,0.8325252476189534,0.2962962962962963,fight_cost,1,0,418.56897139991634,None,1,zu11,2,2023-03-28_11h25.37.494,threat_forest,2021.2.3,61.111695066221564,
10,0,10,0,,,,,,,,,,,,,,,,,,,,,,,,,,,,,,,,,,,,423.1645191999851,None,0,zu11,2,2023-03-28_11h25.37.494,threat_forest,2021.2.3,61.111695066221564,
11,0,11,0,0,0,0,0,,,,,,,425.52281130000483,429.0256226999918,None,right,1.4027288999641314,431.7108980999328,zu11,431.7108980999328,None,425.52281130000483,429.0256226999918,False,5,['p'],True,0.25,0.5,0.5,1.0,2.0,0.9463946303571862,0.0,wait_cost,0,4,,,,zu11,2,2023-03-28_11h25.37.494,threat_forest,2021.2.3,61.111695066221564,
11,0,11,0,1,0,1,0,,,,,,,,,,right,1.296970700030215,436.5200232999632,zu11,436.5200232999632,None,425.52281130000483,429.0256226999918,False,4,['p'],True,0.25,0.5,0.5,1.0,2.0,0.9463946303571862,0.0,wait_cost,0,3,435.15319490002,None,4,zu11,2,2023-03-28_11h25.37.494,threat_forest,2021.2.3,61.111695066221564,
11,0,11,0,2,0,2,0,,,,,,,,,,left,1.5717889999505132,442.0810139999958,zu11,442.0810139999958,None,425.52281130000483,429.0256226999918,True,3,['p'],True,0.25,0.5,0.5,1.0,2.0,0.9463946303571862,-0.5,unsucc_cost,0,1,439.84883619996253,None,3,zu11,2,2023-03-28_11h25.37.494,threat_forest,2021.2.3,61.111695066221564,
11,0,11,0,3,0,3,0,,,,,,,,,,left,1.1300742999883369,446.726150100003,zu11,446.726150100003,None,425.52281130000483,429.0256226999918,True,1,['p'],True,0.25,0.5,0.5,1.0,2.0,0.9463946303571862,0.25,fight_cost,0,0,445.6933293999173,None,1,zu11,2,2023-03-28_11h25.37.494,threat_forest,2021.2.3,61.111695066221564,
11,0,11,0,,,,,,,,,,,,,,,,,,,,,,,,,,,,,,,,,,,,449.8895475999452,None,0,zu11,2,2023-03-28_11h25.37.494,threat_forest,2021.2.3,61.111695066221564,
12,0,12,0,0,0,0,0,,,,,,,451.4546066999901,454.96805879997555,None,None,,457.11659619992133,zu11,451.4546066999901,454.96805879997555,457.11659619992133,None,None,5,['p'],False,0.21875,0.25,0.125,1.0,1.0,0.7908280489481783,0.0,wait_cost,1,4,,,,zu11,2,2023-03-28_11h25.37.494,threat_forest,2021.2.3,61.111695066221564,
12,0,12,0,1,0,1,0,,,,,,,,,,right,2.5292945000110194,465.51088079996407,zu11,465.51088079996407,None,460.13020469993353,462.1447198999813,False,4,['p'],True,0.32,0.4,0.2,1.0,1.0,0.9455672104350704,0.0,wait_cost,0,3,462.1447198999813,None,4,zu11,2,2023-03-28_11h25.37.494,threat_forest,2021.2.3,61.111695066221564,
12,0,12,0,2,0,2,0,,,,,,,,,,right,1.9858953999355435,471.9192926000105,zu11,471.9192926000105,None,460.13020469993353,462.1447198999813,False,3,['p'],True,0.32,0.4,0.2,1.0,1.0,0.9455672104350704,-0.2,wait_cost,0,2,470.0872869999148,None,3,zu11,2,2023-03-28_11h25.37.494,threat_forest,2021.2.3,61.111695066221564,
12,0,12,0,3,0,3,0,,,,,,,,,,left,1.8594686000142246,478.0302458999213,zu11,478.0302458999213,None,460.13020469993353,462.1447198999813,True,2,['p'],True,0.32,0.4,0.2,1.0,1.0,0.9455672104350704,-0.6799999999999999,succ_gain,0,3,475.94887809990905,None,2,zu11,2,2023-03-28_11h25.37.494,threat_forest,2021.2.3,61.111695066221564,
12,0,12,0,4,0,4,0,,,,,,,,,,right,1.6670778000261635,483.52495320001617,zu11,479.91218859993387,481.92625219991896,483.52495320001617,None,True,3,['p'],False,0.21875,0.25,0.125,1.0,1.0,0.7908280489481783,-0.125,fight_cost,1,0,481.92625219991896,None,3,zu11,2,2023-03-28_11h25.37.494,threat_forest,2021.2.3,61.111695066221564,
12,0,12,0,,,,,,,,,,,,,,,,,,,,,,,,,,,,,,,,,,,,487.23801849992014,None,0,zu11,2,2023-03-28_11h25.37.494,threat_forest,2021.2.3,61.111695066221564,
13,0,13,0,0,0,0,0,,,,,,,489.01245729997754,492.5159410999622,None,left,1.9219781999709085,493.8175575999776,zu11,493.8175575999776,None,489.01245729997754,492.5159410999622,True,4,['p'],True,0.375,0.5,0.25,1.0,2.0,0.9850568223215076,0.0,unsucc_cost,0,2,,,,zu11,2,2023-03-28_11h25.37.494,threat_forest,2021.2.3,61.111695066221564,
13,0,13,0,1,0,1,0,,,,,,,,,,left,1.558412800077349,499.9265257999068,zu11,499.9265257999068,None,489.01245729997754,492.5159410999622,True,2,['p'],True,0.375,0.5,0.25,1.0,2.0,0.9850568223215076,-0.625,fight_cost,0,0,497.7781118999701,None,2,zu11,2,2023-03-28_11h25.37.494,threat_forest,2021.2.3,61.111695066221564,
13,0,13,0,,,,,,,,,,,,,,,,,,,,,,,,,,,,,,,,,,,,503.5228953999467,None,0,zu11,2,2023-03-28_11h25.37.494,threat_forest,2021.2.3,61.111695066221564,
14,0,14,0,0,0,0,0,,,,,,,505.0325988999102,508.53667659999337,None,right,2.021360000013374,509.7871401999146,zu11,509.7871401999146,None,505.0325988999102,508.53667659999337,False,5,['r'],True,0.375,0.5,0.25,1.0,1.0,0.9850568223215076,0.0,wait_cost,0,4,,,,zu11,2,2023-03-28_11h25.37.494,threat_forest,2021.2.3,61.111695066221564,
14,0,14,0,1,0,1,0,,,,,,,,,,right,1.518954300088808,516.1446365999291,zu11,511.8321145999944,513.8465067999205,516.1446365999291,None,True,4,['r'],False,0.2,0.2,0.0,0.0,1.0,0.4554859150035951,0.0,succ_gain,1,5,513.8465067999205,None,4,zu11,2,2023-03-28_11h25.37.494,threat_forest,2021.2.3,61.111695066221564,
14,0,14,0,2,0,2,0,,,,,,,,,,right,1.2489011000143364,520.4593861999456,zu11,520.4593861999456,None,517.6932234999258,519.7076140999561,False,5,['r'],True,0.375,0.5,0.25,1.0,1.0,0.9850568223215076,0.0,wait_cost,0,4,519.7076140999561,None,5,zu11,2,2023-03-28_11h25.37.494,threat_forest,2021.2.3,61.111695066221564,
14,0,14,0,3,0,3,0,,,,,,,,,,right,1.3934224999975413,525.2872367999516,zu11,521.739590400015,523.7538645999739,525.2872367999516,None,True,4,['r'],False,0.2,0.2,0.0,0.0,1.0,0.4554859150035951,0.0,fight_cost,1,1,523.7538645999739,None,4,zu11,2,2023-03-28_11h25.37.494,threat_forest,2021.2.3,61.111695066221564,
14,0,14,0,4,0,4,0,,,,,,,,,,left,0.7486462000524625,530.2328083999455,zu11,530.2328083999455,None,526.7014326999197,528.7158993999474,True,1,['r'],True,0.375,0.5,0.25,1.0,1.0,0.9850568223215076,0.375,unsucc_cost,0,0,528.7158993999474,None,1,zu11,2,2023-03-28_11h25.37.494,threat_forest,2021.2.3,61.111695066221564,
14,0,14,0,,,,,,,,,,,,,,,,,,,,,,,,,,,,,,,,,,,,533.0286860999186,None,0,zu11,2,2023-03-28_11h25.37.494,threat_forest,2021.2.3,61.111695066221564,
15,0,15,0,0,0,0,0,,,,,,,535.8139667999931,539.3226615999592,None,left,1.6886587999761105,540.3387195999967,zu11,535.8139667999931,539.3226615999592,540.3387195999967,None,False,5,['p'],False,0.24,0.4,0.4,2.0,2.0,0.9801625908629508,0.0,wait_cost,1,4,,,,zu11,2,2023-03-28_11h25.37.494,threat_forest,2021.2.3,61.111695066221564,
15,0,15,0,1,0,1,0,,,,,,,,,,right,1.5523686000378802,547.0323975000065,zu11,535.8139667999931,539.3226615999592,547.0323975000065,None,True,4,['p'],False,0.24,0.4,0.4,2.0,2.0,0.9801625908629508,0.0,succ_gain,1,6,544.068273599958,None,4,zu11,2,2023-03-28_11h25.37.494,threat_forest,2021.2.3,61.111695066221564,
15,0,15,0,2,0,2,0,,,,,,,,,,left,0.5705529999686405,554.3589083999395,zu11,535.8139667999931,539.3226615999592,554.3589083999395,None,False,6,['p'],False,0.24,0.4,0.4,2.0,2.0,0.9801625908629508,0.0,wait_cost,1,5,550.6287870999658,None,6,zu11,2,2023-03-28_11h25.37.494,threat_forest,2021.2.3,61.111695066221564,
15,0,15,0,3,0,3,0,,,,,,,,,,left,0.933425800059922,558.6382276999066,zu11,535.8139667999931,539.3226615999592,558.6382276999066,None,False,5,['p'],False,0.24,0.4,0.4,2.0,2.0,0.9801625908629508,0.0,wait_cost,1,4,556.9729710000101,None,5,zu11,2,2023-03-28_11h25.37.494,threat_forest,2021.2.3,61.111695066221564,
15,0,15,0,4,0,4,0,,,,,,,,,,right,1.3989656999474391,562.5178739000112,zu11,535.8139667999931,539.3226615999592,562.5178739000112,None,True,4,['p'],False,0.24,0.4,0.4,2.0,2.0,0.9801625908629508,0.0,unsucc_cost,1,2,561.61896230001,None,4,zu11,2,2023-03-28_11h25.37.494,threat_forest,2021.2.3,61.111695066221564,
15,0,15,0,5,0,5,0,,,,,,,,,,right,0.9094291999936104,567.3801120999269,zu11,535.8139667999931,539.3226615999592,567.3801120999269,None,True,2,['p'],False,0.24,0.4,0.4,2.0,2.0,0.9801625908629508,-0.76,succ_gain,1,4,565.9485408000182,None,2,zu11,2,2023-03-28_11h25.37.494,threat_forest,2021.2.3,61.111695066221564,
15,0,15,0,6,0,6,0,,,,,,,,,,left,0.5961226000217721,573.074862999958,zu11,535.8139667999931,539.3226615999592,573.074862999958,None,False,4,['p'],False,0.24,0.4,0.4,2.0,2.0,0.9801625908629508,0.0,wait_cost,1,3,570.3271984999301,None,4,zu11,2,2023-03-28_11h25.37.494,threat_forest,2021.2.3,61.111695066221564,
15,0,15,0,7,0,7,0,,,,,,,,,,left,0.8974206000566483,578.8031763000181,zu11,535.8139667999931,539.3226615999592,578.8031763000181,None,False,3,['p'],False,0.24,0.4,0.4,2.0,2.0,0.9801625908629508,-0.4,wait_cost,1,2,575.7054301999742,None,3,zu11,2,2023-03-28_11h25.37.494,threat_forest,2021.2.3,61.111695066221564,
15,0,15,0,,,,,,,,,,,,,,,,,,,,,,,,,,,,,,,,,,,,581.7332129999995,None,2,zu11,2,2023-03-28_11h25.37.494,threat_forest,2021.2.3,61.111695066221564,
16,0,16,0,0,0,0,0,,,,,,,584.6407772999955,588.1439375999616,None,right,1.9733950999798253,589.1432925999397,zu11,584.6407772999955,588.1439375999616,589.1432925999397,None,True,4,['r'],False,0.18,0.2,0.1,1.0,1.0,0.7058405977926203,0.0,unsucc_cost,1,2,,,,zu11,2,2023-03-28_11h25.37.494,threat_forest,2021.2.3,61.111695066221564,
16,0,16,0,1,0,1,0,,,,,,,,,,right,0.4576965000014752,596.2198829000117,zu11,584.6407772999955,588.1439375999616,596.2198829000117,None,True,2,['r'],False,0.18,0.2,0.1,1.0,1.0,0.7058405977926203,-0.8200000000000001,succ_gain,1,3,593.1557859999593,None,2,zu11,2,2023-03-28_11h25.37.494,threat_forest,2021.2.3,61.111695066221564,
16,0,16,0,2,0,2,0,,,,,,,,,,right,0.9438721999758855,599.8331933999434,zu11,584.6407772999955,588.1439375999616,599.8331933999434,None,True,3,['r'],False,0.18,0.2,0.1,1.0,1.0,0.7058405977926203,-0.1,succ_gain,1,4,598.7176609999733,None,3,zu11,2,2023-03-28_11h25.37.494,threat_forest,2021.2.3,61.111695066221564,
16,0,16,0,3,0,3,0,,,,,,,,,,right,2.2988644000142813,603.7795087000122,zu11,584.6407772999955,588.1439375999616,603.7795087000122,None,True,4,['r'],False,0.18,0.2,0.1,1.0,1.0,0.7058405977926203,0.0,succ_gain,1,5,602.8135645999573,None,4,zu11,2,2023-03-28_11h25.37.494,threat_forest,2021.2.3,61.111695066221564,
16,0,16,0,4,0,4,0,,,,,,,,,,right,1.6917790999868885,611.8925962999929,zu11,611.8925962999929,None,606.1106857999694,608.1251336999703,False,5,['r'],True,0.375,0.5,0.25,1.0,1.0,0.9850568223215076,0.0,wait_cost,0,4,608.1251336999703,None,5,zu11,2,2023-03-28_11h25.37.494,threat_forest,2021.2.3,61.111695066221564,
16,0,16,0,5,0,5,0,,,,,,,,,,left,2.0318435999797657,618.9486541999504,zu11,613.6038325999398,615.6181943999836,618.9486541999504,None,False,4,['r'],False,0.18,0.2,0.1,1.0,1.0,0.7058405977926203,0.0,wait_cost,1,3,615.6181943999836,None,4,zu11,2,2023-03-28_11h25.37.494,threat_forest,2021.2.3,61.111695066221564,
16,0,16,0,6,0,6,0,,,,,,,,,,right,0.7575059999944642,626.2276016999967,zu11,626.2276016999967,None,620.997393699945,623.0114173999755,False,3,['r'],True,0.375,0.5,0.25,1.0,1.0,0.9850568223215076,-0.25,wait_cost,0,2,623.0114173999755,None,3,zu11,2,2023-03-28_11h25.37.494,threat_forest,2021.2.3,61.111695066221564,
16,0,16,0,7,0,7,0,,,,,,,,,,right,0.8559994999086484,631.4704288999783,zu11,631.4704288999783,None,620.997393699945,623.0114173999755,False,2,['r'],True,0.375,0.5,0.25,1.0,1.0,0.9850568223215076,-0.625,wait_cost,0,1,629.0223428999307,None,2,zu11,2,2023-03-28_11h25.37.494,threat_forest,2021.2.3,61.111695066221564,
16,0,16,0,,,,,,,,,,,,,,,,,,,,,,,,,,,,,,,,,,,,634.3674294999801,None,1,zu11,2,2023-03-28_11h25.37.494,threat_forest,2021.2.3,61.111695066221564,
17,0,17,0,0,0,0,0,,,,,,,635.6511175999185,639.1629018000094,None,left,2.4746063000056893,642.1605297999922,zu11,642.1605297999922,None,635.6511175999185,639.1629018000094,True,4,['p'],True,0.5,0.5,0.0,0.0,1.0,0.6309297535714574,0.0,unsucc_cost,0,2,,,,zu11,2,2023-03-28_11h25.37.494,threat_forest,2021.2.3,61.111695066221564,
17,0,17,0,1,0,1,0,,,,,,,,,,left,0.7067072000354528,649.9530031000031,zu11,644.658046699944,646.6725655000191,649.9530031000031,None,False,2,['p'],False,0.2222222222222222,0.6666666666666666,0.6666666666666666,2.0,1.0,0.77250688571426,-0.7777777777777778,wait_cost,1,1,646.6725655000191,None,2,zu11,2,2023-03-28_11h25.37.494,threat_forest,2021.2.3,61.111695066221564,
17,0,17,0,2,0,2,0,,,,,,,,,,right,0.6763079999946058,656.2973751999671,zu11,644.658046699944,646.6725655000191,656.2973751999671,None,True,1,['p'],False,0.2222222222222222,0.6666666666666666,0.6666666666666666,2.0,1.0,0.77250688571426,0.2222222222222222,succ_gain,1,2,652.7010701999534,None,1,zu11,2,2023-03-28_11h25.37.494,threat_forest,2021.2.3,61.111695066221564,
17,0,17,0,3,0,3,0,,,,,,,,,,right,0.6355179999954998,659.893686599913,zu11,644.658046699944,646.6725655000191,659.893686599913,None,True,2,['p'],False,0.2222222222222222,0.6666666666666666,0.6666666666666666,2.0,1.0,0.77250688571426,-0.7777777777777778,unsucc_cost,1,0,659.0113253999734,None,2,zu11,2,2023-03-28_11h25.37.494,threat_forest,2021.2.3,61.111695066221564,
17,0,17,0,,,,,,,,,,,,,,,,,,,,,,,,,,,,,,,,,,,,662.5745296999812,None,0,zu11,2,2023-03-28_11h25.37.494,threat_forest,2021.2.3,61.111695066221564,
