miniblock.thisRepN,miniblock.thisTrialN,miniblock.thisN,miniblock.thisIndex,day.thisRepN,day.thisTrialN,day.thisN,day.thisIndex,welcoming.started,welcoming.stopped,key_resp_2.keys,key_resp_2.rt,key_resp_2.started,key_resp_2.stopped,forest.started,fixation_forest.started,fixation_forest.stopped,key_resp.keys,key_resp.rt,key_resp.started,Subject_ID,weather_left.started,weather_left.stopped,weather_right.started,weather_right.stopped,foraging T/F,in_LP,p/r heuristic,good_weather.T/F,p_succ_correct,p_succ_uncorrected,r_threat,n_oponents,gain_if_succ,weather_entropy,OP_value_difference,action_outcome,forest_side_L=0_R=1,out_LP,fixation_day.started,fixation_day.stopped,n_day-1.out_LP.,participant,session,date,expName,psychopyVersion,frameRate,
,,,,,,,,14.106901299994206,None,space,2.211281099996995,14.106901299994206,None,,,,,,,,,,,,,,,,,,,,,,,,,,,,,kp4,2,2023-03-24_11h26.51.253,threat_forest,2021.2.3,60.03673047531552,
0,0,0,0,0,0,0,0,,,,,,,16.382299199991394,19.887813299981644,None,left,1.8731989999942016,20.554424200003268,kp4,16.382299199991394,19.887813299981644,20.554424200003268,None,False,5,['r'],False,0.21875,0.25,0.125,1.0,1.0,0.7908280489481783,0.0,wait_cost,1,4,,,,kp4,2,2023-03-24_11h26.51.253,threat_forest,2021.2.3,60.03673047531552,
0,0,0,0,1,0,1,0,,,,,,,,,,right,0.7758674999931827,27.547280300001148,kp4,16.382299199991394,19.887813299981644,27.547280300001148,None,True,4,['r'],False,0.21875,0.25,0.125,1.0,1.0,0.7908280489481783,0.0,succ_gain,1,5,24.461621900001774,None,4,kp4,2,2023-03-24_11h26.51.253,threat_forest,2021.2.3,60.03673047531552,
0,0,0,0,2,0,2,0,,,,,,,,,,left,1.1827416000014637,33.69381009999779,kp4,16.382299199991394,19.887813299981644,33.69381009999779,None,False,5,['r'],False,0.21875,0.25,0.125,1.0,1.0,0.7908280489481783,0.0,wait_cost,1,4,30.356062399980146,None,5,kp4,2,2023-03-24_11h26.51.253,threat_forest,2021.2.3,60.03673047531552,
0,0,0,0,3,0,3,0,,,,,,,,,,right,1.126393900020048,38.79735239999718,kp4,38.79735239999718,None,34.90213139998377,36.91649299999699,False,4,['r'],True,0.32,0.4,0.2,1.0,1.0,0.9455672104350704,0.0,wait_cost,0,3,36.91649299999699,None,4,kp4,2,2023-03-24_11h26.51.253,threat_forest,2021.2.3,60.03673047531552,
0,0,0,0,4,0,4,0,,,,,,,,,,right,0.857435500016436,42.782892999995966,kp4,42.782892999995966,None,34.90213139998377,36.91649299999699,False,3,['r'],True,0.32,0.4,0.2,1.0,1.0,0.9455672104350704,-0.2,wait_cost,0,2,41.961748599977,None,3,kp4,2,2023-03-24_11h26.51.253,threat_forest,2021.2.3,60.03673047531552,
0,0,0,0,5,0,5,0,,,,,,,,,,left,1.055851299985079,48.827812099974835,kp4,48.827812099974835,None,34.90213139998377,36.91649299999699,True,2,['r'],True,0.32,0.4,0.2,1.0,1.0,0.9455672104350704,-0.6799999999999999,unsucc_cost,0,0,45.674970699998084,None,2,kp4,2,2023-03-24_11h26.51.253,threat_forest,2021.2.3,60.03673047531552,
0,0,0,0,,,,,,,,,,,,,,,,,,,,,,,,,,,,,,,,,,,,51.92554719999316,None,0,kp4,2,2023-03-24_11h26.51.253,threat_forest,2021.2.3,60.03673047531552,
1,0,1,0,0,0,0,0,,,,,,,54.73935379998875,58.23532979999436,None,left,0.654466699983459,59.672763199982,kp4,59.672763199982,None,54.73935379998875,58.23532979999436,True,4,['p'],True,0.4166666666666667,0.5,0.1666666666666666,1.0,2.0,0.9358932809493992,0.0,unsucc_cost,0,2,,,,kp4,2,2023-03-24_11h26.51.253,threat_forest,2021.2.3,60.03673047531552,
1,0,1,0,1,0,1,0,,,,,,,,,,left,0.5411104000231717,64.1949587999843,kp4,64.1949587999843,None,54.73935379998875,58.23532979999436,True,2,['p'],True,0.4166666666666667,0.5,0.1666666666666666,1.0,2.0,0.9358932809493992,-0.5833333333333333,succ_gain,0,4,62.3595912999881,None,2,kp4,2,2023-03-24_11h26.51.253,threat_forest,2021.2.3,60.03673047531552,
1,0,1,0,2,0,2,0,,,,,,,,,,left,0.5167881999805104,68.52347029998782,kp4,68.52347029998782,None,54.73935379998875,58.23532979999436,True,4,['p'],True,0.4166666666666667,0.5,0.1666666666666666,1.0,2.0,0.9358932809493992,0.0,fight_cost,0,1,66.77211869999883,None,4,kp4,2,2023-03-24_11h26.51.253,threat_forest,2021.2.3,60.03673047531552,
1,0,1,0,3,0,3,0,,,,,,,,,,left,0.45590629999060184,73.9857438999752,kp4,73.9857438999752,None,54.73935379998875,58.23532979999436,True,1,['p'],True,0.4166666666666667,0.5,0.1666666666666666,1.0,2.0,0.9358932809493992,0.4166666666666667,unsucc_cost,0,0,71.0847607999749,None,1,kp4,2,2023-03-24_11h26.51.253,threat_forest,2021.2.3,60.03673047531552,
1,0,1,0,,,,,,,,,,,,,,,,,,,,,,,,,,,,,,,,,,,,76.47981859999709,None,0,kp4,2,2023-03-24_11h26.51.253,threat_forest,2021.2.3,60.03673047531552,
2,0,2,0,0,0,0,0,,,,,,,78.48050819998025,81.98031799998716,None,left,0.6403726999997161,85.01814869997906,kp4,85.01814869997906,None,78.48050819998025,81.98031799998716,True,4,['p'],True,0.5714285714285714,0.5714285714285714,0.0,0.0,2.0,0.6216097450797566,0.0,succ_gain,0,6,,,,kp4,2,2023-03-24_11h26.51.253,threat_forest,2021.2.3,60.03673047531552,
2,0,2,0,1,0,1,0,,,,,,,,,,right,0.5650325999886263,90.0909171999956,kp4,90.0909171999956,None,78.48050819998025,81.98031799998716,False,6,['p'],True,0.5714285714285714,0.5714285714285714,0.0,0.0,2.0,0.6216097450797566,0.0,wait_cost,0,5,87.70266529999208,None,6,kp4,2,2023-03-24_11h26.51.253,threat_forest,2021.2.3,60.03673047531552,
2,0,2,0,2,0,2,0,,,,,,,,,,left,1.640799499989953,95.5091094999807,kp4,90.683620900003,92.69788969997899,95.5091094999807,None,False,5,['p'],False,0.46875,0.625,0.25,2.0,2.0,0.9634951148421658,0.0,wait_cost,1,4,92.69788969997899,None,5,kp4,2,2023-03-24_11h26.51.253,threat_forest,2021.2.3,60.03673047531552,
2,0,2,0,3,0,3,0,,,,,,,,,,left,0.6121807000017725,100.51775769999949,kp4,100.51775769999949,None,97.17745920000016,99.19192179999663,True,4,['p'],True,0.5714285714285714,0.5714285714285714,0.0,0.0,2.0,0.6216097450797566,0.0,unsucc_cost,0,2,99.19192179999663,None,4,kp4,2,2023-03-24_11h26.51.253,threat_forest,2021.2.3,60.03673047531552,
2,0,2,0,4,0,4,0,,,,,,,,,,right,0.7978692000033334,104.76101170000038,kp4,104.76101170000038,None,97.17745920000016,99.19192179999663,False,2,['p'],True,0.5714285714285714,0.5714285714285714,0.0,0.0,2.0,0.6216097450797566,-0.4285714285714286,wait_cost,0,1,103.17146839998895,None,2,kp4,2,2023-03-24_11h26.51.253,threat_forest,2021.2.3,60.03673047531552,
2,0,2,0,5,0,5,0,,,,,,,,,,right,0.35341469998820685,110.13914269997622,kp4,105.5863004999992,107.60073599999305,110.13914269997622,None,True,1,['p'],False,0.46875,0.625,0.25,2.0,2.0,0.9634951148421658,0.46875,unsucc_cost,1,0,107.60073599999305,None,1,kp4,2,2023-03-24_11h26.51.253,threat_forest,2021.2.3,60.03673047531552,
2,0,2,0,,,,,,,,,,,,,,,,,,,,,,,,,,,,,,,,,,,,112.52949239997542,None,0,kp4,2,2023-03-24_11h26.51.253,threat_forest,2021.2.3,60.03673047531552,
3,0,3,0,0,0,0,0,,,,,,,115.62430619998486,119.12435410000035,None,right,0.7260484000144061,122.32939639998949,kp4,115.62430619998486,119.12435410000035,122.32939639998949,None,True,4,['p'],False,0.2040816326530612,0.2857142857142857,0.2857142857142857,2.0,2.0,0.9335459102197724,0.0,unsucc_cost,1,2,,,,kp4,2,2023-03-24_11h26.51.253,threat_forest,2021.2.3,60.03673047531552,
3,0,3,0,1,0,1,0,,,,,,,,,,right,1.4594453999889083,127.43653139998787,kp4,127.43653139998787,None,123.08657029998722,125.10104670000146,False,2,['p'],True,0.25,0.25,0.0,0.0,2.0,0.5118595071429148,-0.75,wait_cost,0,1,125.10104670000146,None,2,kp4,2,2023-03-24_11h26.51.253,threat_forest,2021.2.3,60.03673047531552,
3,0,3,0,2,0,2,0,,,,,,,,,,right,0.5246856999874581,134.13158180000028,kp4,128.91464289999567,130.92902660000254,134.13158180000028,None,True,1,['p'],False,0.2040816326530612,0.2857142857142857,0.2857142857142857,2.0,2.0,0.9335459102197724,0.2040816326530612,unsucc_cost,1,0,130.92902660000254,None,1,kp4,2,2023-03-24_11h26.51.253,threat_forest,2021.2.3,60.03673047531552,
3,0,3,0,,,,,,,,,,,,,,,,,,,,,,,,,,,,,,,,,,,,136.69015959999524,None,0,kp4,2,2023-03-24_11h26.51.253,threat_forest,2021.2.3,60.03673047531552,
4,0,4,0,0,0,0,0,,,,,,,139.25357959998655,142.7542585999763,None,left,1.7238444999966305,145.23155029999907,kp4,139.25357959998655,142.7542585999763,145.23155029999907,None,False,5,['p'],False,0.2592592592592592,0.3333333333333333,0.2222222222222222,2.0,2.0,0.9327883776363324,0.0,wait_cost,1,4,,,,kp4,2,2023-03-24_11h26.51.253,threat_forest,2021.2.3,60.03673047531552,
4,0,4,0,1,0,1,0,,,,,,,,,,right,0.6876469000126235,149.8835604999913,kp4,139.25357959998655,142.7542585999763,149.8835604999913,None,True,4,['p'],False,0.2592592592592592,0.3333333333333333,0.2222222222222222,2.0,2.0,0.9327883776363324,0.0,fight_cost,1,1,148.99541809997754,None,4,kp4,2,2023-03-24_11h26.51.253,threat_forest,2021.2.3,60.03673047531552,
4,0,4,0,2,0,2,0,,,,,,,,,,left,0.4941650999826379,153.5631463000027,kp4,153.5631463000027,None,150.59433140000328,152.60873249999713,True,1,['p'],True,0.4444444444444445,0.6666666666666666,0.3333333333333333,1.0,2.0,0.9656336071428248,0.4444444444444444,unsucc_cost,0,0,152.60873249999713,None,1,kp4,2,2023-03-24_11h26.51.253,threat_forest,2021.2.3,60.03673047531552,
4,0,4,0,,,,,,,,,,,,,,,,,,,,,,,,,,,,,,,,,,,,156.0890836000035,None,0,kp4,2,2023-03-24_11h26.51.253,threat_forest,2021.2.3,60.03673047531552,
5,0,5,0,0,0,0,0,,,,,,,159.1874981999863,162.6831595999829,None,right,1.1479048999899533,165.1549238000007,kp4,159.1874981999863,162.6831595999829,165.1549238000007,None,True,4,['p'],False,0.2222222222222222,0.2222222222222222,0.0,0.0,1.0,0.4821593609696809,0.0,succ_gain,1,5,,,,kp4,2,2023-03-24_11h26.51.253,threat_forest,2021.2.3,60.03673047531552,
5,0,5,0,1,0,1,0,,,,,,,,,,right,0.9072262000117917,172.15282389998902,kp4,172.15282389998902,None,166.32956889999332,168.34390839998377,False,5,['p'],True,0.4444444444444445,0.6666666666666666,0.3333333333333333,1.0,1.0,0.9656336071428248,0.0,wait_cost,0,4,168.34390839998377,None,5,kp4,2,2023-03-24_11h26.51.253,threat_forest,2021.2.3,60.03673047531552,
5,0,5,0,2,0,2,0,,,,,,,,,,right,1.9182271999889053,177.6255344999954,kp4,173.08984909998253,175.10421039999346,177.6255344999954,None,True,4,['p'],False,0.2222222222222222,0.2222222222222222,0.0,0.0,1.0,0.4821593609696809,0.0,fight_cost,1,1,175.10421039999346,None,4,kp4,2,2023-03-24_11h26.51.253,threat_forest,2021.2.3,60.03673047531552,
5,0,5,0,3,0,3,0,,,,,,,,,,right,0.6416053999855649,182.4830766999803,kp4,173.08984909998253,175.10421039999346,182.4830766999803,None,True,1,['p'],False,0.2222222222222222,0.2222222222222222,0.0,0.0,1.0,0.4821593609696809,0.2222222222222222,succ_gain,1,2,181.58148939997773,None,1,kp4,2,2023-03-24_11h26.51.253,threat_forest,2021.2.3,60.03673047531552,
5,0,5,0,4,0,4,0,,,,,,,,,,right,1.7561831999919377,186.0716265999945,kp4,186.0716265999945,None,183.14697709999746,185.1615732999926,False,2,['p'],True,0.4444444444444445,0.6666666666666666,0.3333333333333333,1.0,1.0,0.9656336071428248,-0.5555555555555556,wait_cost,0,1,185.1615732999926,None,2,kp4,2,2023-03-24_11h26.51.253,threat_forest,2021.2.3,60.03673047531552,
5,0,5,0,5,0,5,0,,,,,,,,,,left,0.7049588999943808,191.86103329999605,kp4,191.86103329999605,None,183.14697709999746,185.1615732999926,True,1,['p'],True,0.4444444444444445,0.6666666666666666,0.3333333333333333,1.0,1.0,0.9656336071428248,0.4444444444444444,succ_gain,0,2,189.87380410000333,None,1,kp4,2,2023-03-24_11h26.51.253,threat_forest,2021.2.3,60.03673047531552,
5,0,5,0,6,0,6,0,,,,,,,,,,left,1.748595299985027,197.5405625999847,kp4,192.58833909998066,194.60267959997873,197.5405625999847,None,False,2,['p'],False,0.2222222222222222,0.2222222222222222,0.0,0.0,1.0,0.4821593609696809,-0.7777777777777778,wait_cost,1,1,194.60267959997873,None,2,kp4,2,2023-03-24_11h26.51.253,threat_forest,2021.2.3,60.03673047531552,
5,0,5,0,7,0,7,0,,,,,,,,,,right,1.0976827000267804,204.61028120000265,kp4,192.58833909998066,194.60267959997873,204.61028120000265,None,True,1,['p'],False,0.2222222222222222,0.2222222222222222,0.0,0.0,1.0,0.4821593609696809,0.2222222222222222,succ_gain,1,2,201.3298312999832,None,1,kp4,2,2023-03-24_11h26.51.253,threat_forest,2021.2.3,60.03673047531552,
5,0,5,0,,,,,,,,,,,,,,,,,,,,,,,,,,,,,,,,,,,,207.74044229998253,None,2,kp4,2,2023-03-24_11h26.51.253,threat_forest,2021.2.3,60.03673047531552,
6,0,6,0,0,0,0,0,,,,,,,208.93797279999126,212.43709799999488,None,left,0.6765536000020802,215.39039950000006,kp4,215.39039950000006,None,208.93797279999126,212.43709799999488,True,5,['r'],True,0.6,0.6,0.0,0.0,2.0,0.6126016192893442,0.0,unsucc_cost,0,3,,,,kp4,2,2023-03-24_11h26.51.253,threat_forest,2021.2.3,60.03673047531552,
6,0,6,0,1,0,1,0,,,,,,,,,,left,0.48027910001110286,219.26717899998766,kp4,219.26717899998766,None,208.93797279999126,212.43709799999488,True,3,['r'],True,0.6,0.6,0.0,0.0,2.0,0.6126016192893442,0.0,succ_gain,0,5,218.097597999993,None,3,kp4,2,2023-03-24_11h26.51.253,threat_forest,2021.2.3,60.03673047531552,
6,0,6,0,2,0,2,0,,,,,,,,,,left,1.7331142999755684,225.00163379998412,kp4,219.77975190000143,221.7942680999986,225.00163379998412,None,False,5,['r'],False,0.4444444444444445,0.6666666666666666,0.3333333333333333,2.0,2.0,0.9656336071428248,0.0,wait_cost,1,4,221.7942680999986,None,5,kp4,2,2023-03-24_11h26.51.253,threat_forest,2021.2.3,60.03673047531552,
6,0,6,0,3,0,3,0,,,,,,,,,,right,0.9880509999929927,229.4424170999846,kp4,219.77975190000143,221.7942680999986,229.4424170999846,None,True,4,['r'],False,0.4444444444444445,0.6666666666666666,0.3333333333333333,2.0,2.0,0.9656336071428248,0.0,succ_gain,1,6,228.7710628999921,None,4,kp4,2,2023-03-24_11h26.51.253,threat_forest,2021.2.3,60.03673047531552,
6,0,6,0,4,0,4,0,,,,,,,,,,right,0.703446300001815,233.0086706999864,kp4,233.0086706999864,None,230.45310809998773,232.46750919998158,False,6,['r'],True,0.6,0.6,0.0,0.0,2.0,0.6126016192893442,0.0,wait_cost,0,5,232.46750919998158,None,6,kp4,2,2023-03-24_11h26.51.253,threat_forest,2021.2.3,60.03673047531552,
6,0,6,0,5,0,5,0,,,,,,,,,,left,0.7476902999915183,239.02229819999775,kp4,233.73357349997968,235.7478605999786,239.02229819999775,None,False,5,['r'],False,0.4444444444444445,0.6666666666666666,0.3333333333333333,2.0,2.0,0.9656336071428248,0.0,wait_cost,1,4,235.7478605999786,None,5,kp4,2,2023-03-24_11h26.51.253,threat_forest,2021.2.3,60.03673047531552,
6,0,6,0,6,0,6,0,,,,,,,,,,right,0.37386520000291057,245.51276069998858,kp4,245.51276069998858,None,239.7943808999844,241.80880139998044,False,4,['r'],True,0.6,0.6,0.0,0.0,2.0,0.6126016192893442,0.0,wait_cost,0,3,241.80880139998044,None,4,kp4,2,2023-03-24_11h26.51.253,threat_forest,2021.2.3,60.03673047531552,
6,0,6,0,7,0,7,0,,,,,,,,,,left,0.6327211999741849,250.07648629997857,kp4,245.90521489997627,247.9196418999927,250.07648629997857,None,False,3,['r'],False,0.4444444444444445,0.6666666666666666,0.3333333333333333,2.0,2.0,0.9656336071428248,-0.3333333333333333,wait_cost,1,2,247.9196418999927,None,3,kp4,2,2023-03-24_11h26.51.253,threat_forest,2021.2.3,60.03673047531552,
6,0,6,0,,,,,,,,,,,,,,,,,,,,,,,,,,,,,,,,,,,,252.74847189997672,None,2,kp4,2,2023-03-24_11h26.51.253,threat_forest,2021.2.3,60.03673047531552,
7,0,7,0,0,0,0,0,,,,,,,253.848496599996,257.3495789000008,None,right,2.2577763999870513,258.02250049999566,kp4,253.848496599996,257.3495789000008,258.02250049999566,None,True,4,['p'],False,0.2448979591836734,0.2857142857142857,0.1428571428571428,1.0,2.0,0.8400769154957735,0.0,succ_gain,1,6,,,,kp4,2,2023-03-24_11h26.51.253,threat_forest,2021.2.3,60.03673047531552,
7,0,7,0,1,0,1,0,,,,,,,,,,left,0.7916559999866877,265.2748073999828,kp4,253.848496599996,257.3495789000008,265.2748073999828,None,False,6,['p'],False,0.2448979591836734,0.2857142857142857,0.1428571428571428,1.0,2.0,0.8400769154957735,0.0,wait_cost,1,5,262.32284399998025,None,6,kp4,2,2023-03-24_11h26.51.253,threat_forest,2021.2.3,60.03673047531552,
7,0,7,0,2,0,2,0,,,,,,,,,,left,1.256511599989608,268.7749250999768,kp4,253.848496599996,257.3495789000008,268.7749250999768,None,False,5,['p'],False,0.2448979591836734,0.2857142857142857,0.1428571428571428,1.0,2.0,0.8400769154957735,0.0,wait_cost,1,4,268.1007932999928,None,5,kp4,2,2023-03-24_11h26.51.253,threat_forest,2021.2.3,60.03673047531552,
7,0,7,0,3,0,3,0,,,,,,,,,,right,0.46319800001219846,273.1631123999832,kp4,253.848496599996,257.3495789000008,273.1631123999832,None,True,4,['p'],False,0.2448979591836734,0.2857142857142857,0.1428571428571428,1.0,2.0,0.8400769154957735,0.0,unsucc_cost,1,2,272.0804193999793,None,4,kp4,2,2023-03-24_11h26.51.253,threat_forest,2021.2.3,60.03673047531552,
7,0,7,0,4,0,4,0,,,,,,,,,,right,0.512049399985699,278.974358699983,kp4,253.848496599996,257.3495789000008,278.974358699983,None,True,2,['p'],False,0.2448979591836734,0.2857142857142857,0.1428571428571428,1.0,2.0,0.8400769154957735,-0.7551020408163265,succ_gain,1,4,275.6604780999769,None,2,kp4,2,2023-03-24_11h26.51.253,threat_forest,2021.2.3,60.03673047531552,
7,0,7,0,5,0,5,0,,,,,,,,,,right,1.1670719000103418,282.37901609999244,kp4,282.37901609999244,None,279.5071814999974,281.5215823999897,False,4,['p'],True,0.375,0.5,0.25,1.0,2.0,0.9850568223215076,0.0,wait_cost,0,3,281.5215823999897,None,4,kp4,2,2023-03-24_11h26.51.253,threat_forest,2021.2.3,60.03673047531552,
7,0,7,0,6,0,6,0,,,,,,,,,,left,0.7300751000002492,289.27063039998757,kp4,283.5701453999791,285.58445509997546,289.27063039998757,None,False,3,['p'],False,0.2448979591836734,0.2857142857142857,0.1428571428571428,1.0,2.0,0.8400769154957735,-0.1428571428571428,wait_cost,1,2,285.58445509997546,None,3,kp4,2,2023-03-24_11h26.51.253,threat_forest,2021.2.3,60.03673047531552,
7,0,7,0,7,0,7,0,,,,,,,,,,right,0.7284699000010733,293.15148749999935,kp4,293.15148749999935,None,290.03066069999477,292.0451935000019,False,2,['p'],True,0.375,0.5,0.25,1.0,2.0,0.9850568223215076,-0.625,wait_cost,0,1,292.0451935000019,None,2,kp4,2,2023-03-24_11h26.51.253,threat_forest,2021.2.3,60.03673047531552,
7,0,7,0,,,,,,,,,,,,,,,,,,,,,,,,,,,,,,,,,,,,295.9248327999958,None,1,kp4,2,2023-03-24_11h26.51.253,threat_forest,2021.2.3,60.03673047531552,
8,0,8,0,0,0,0,0,,,,,,,296.6671391999698,300.170933299989,None,left,1.6421778000076301,303.63854810001794,kp4,296.6671391999698,300.170933299989,303.63854810001794,None,False,4,['r'],False,0.2222222222222222,0.6666666666666666,0.6666666666666666,2.0,1.0,0.77250688571426,0.0,wait_cost,1,3,,,,kp4,2,2023-03-24_11h26.51.253,threat_forest,2021.2.3,60.03673047531552,
8,0,8,0,1,0,1,0,,,,,,,,,,left,0.9988947000238113,309.46872629999416,kp4,309.46872629999416,None,305.2997588000144,307.314218399988,True,3,['r'],True,0.25,0.25,0.0,0.0,1.0,0.5118595071429148,0.0,unsucc_cost,0,1,307.314218399988,None,3,kp4,2,2023-03-24_11h26.51.253,threat_forest,2021.2.3,60.03673047531552,
8,0,8,0,2,0,2,0,,,,,,,,,,left,0.4795365000027232,313.75841110001784,kp4,313.75841110001784,None,305.2997588000144,307.314218399988,True,1,['r'],True,0.25,0.25,0.0,0.0,1.0,0.5118595071429148,0.25,succ_gain,0,2,312.50946789997397,None,1,kp4,2,2023-03-24_11h26.51.253,threat_forest,2021.2.3,60.03673047531552,
8,0,8,0,3,0,3,0,,,,,,,,,,right,1.8199926000088453,319.08695650001755,kp4,319.08695650001755,None,305.2997588000144,307.314218399988,False,2,['r'],True,0.25,0.25,0.0,0.0,1.0,0.5118595071429148,-0.75,wait_cost,0,1,316.2725466999691,None,2,kp4,2,2023-03-24_11h26.51.253,threat_forest,2021.2.3,60.03673047531552,
8,0,8,0,4,0,4,0,,,,,,,,,,right,0.362901900021825,324.7424836999853,kp4,320.935183900001,322.949688099965,324.7424836999853,None,True,1,['r'],False,0.2222222222222222,0.6666666666666666,0.6666666666666666,2.0,1.0,0.77250688571426,0.2222222222222222,fight_cost,1,0,322.949688099965,None,1,kp4,2,2023-03-24_11h26.51.253,threat_forest,2021.2.3,60.03673047531552,
8,0,8,0,,,,,,,,,,,,,,,,,,,,,,,,,,,,,,,,,,,,327.1457537999959,None,0,kp4,2,2023-03-24_11h26.51.253,threat_forest,2021.2.3,60.03673047531552,
9,0,9,0,0,0,0,0,,,,,,,329.5484361000126,333.04173840000294,None,left,1.359784500033129,334.2186980000115,kp4,329.5484361000126,333.04173840000294,334.2186980000115,None,False,5,['r'],False,0.2,0.2,0.0,0.0,1.0,0.4554859150035951,0.0,wait_cost,1,4,,,,kp4,2,2023-03-24_11h26.51.253,threat_forest,2021.2.3,60.03673047531552,
9,0,9,0,1,0,1,0,,,,,,,,,,left,1.3974448000080884,339.1235493000131,kp4,329.5484361000126,333.04173840000294,339.1235493000131,None,False,4,['r'],False,0.2,0.2,0.0,0.0,1.0,0.4554859150035951,0.0,wait_cost,1,3,337.6194841999677,None,4,kp4,2,2023-03-24_11h26.51.253,threat_forest,2021.2.3,60.03673047531552,
9,0,9,0,2,0,2,0,,,,,,,,,,left,0.5092680999659933,345.537545899977,kp4,345.537545899977,None,340.55058059998555,342.5648321000044,True,3,['r'],True,0.4444444444444445,0.6666666666666666,0.3333333333333333,1.0,1.0,0.9656336071428248,-0.3333333333333333,fight_cost,0,0,342.5648321000044,None,3,kp4,2,2023-03-24_11h26.51.253,threat_forest,2021.2.3,60.03673047531552,
9,0,9,0,,,,,,,,,,,,,,,,,,,,,,,,,,,,,,,,,,,,348.09318839997286,None,0,kp4,2,2023-03-24_11h26.51.253,threat_forest,2021.2.3,60.03673047531552,
10,0,10,0,0,0,0,0,,,,,,,350.2798119999934,353.7874704999849,None,left,0.4834788999869488,355.4131410999689,kp4,355.4131410999689,None,350.2798119999934,353.7874704999849,True,5,['r'],True,0.4444444444444445,0.6666666666666666,0.3333333333333333,1.0,2.0,0.9656336071428248,0.0,unsucc_cost,0,3,,,,kp4,2,2023-03-24_11h26.51.253,threat_forest,2021.2.3,60.03673047531552,
10,0,10,0,1,0,1,0,,,,,,,,,,right,0.48321760003454983,360.15130819997285,kp4,360.15130819997285,None,350.2798119999934,353.7874704999849,False,3,['r'],True,0.4444444444444445,0.6666666666666666,0.3333333333333333,1.0,2.0,0.9656336071428248,-0.3333333333333333,wait_cost,0,2,357.933636199974,None,3,kp4,2,2023-03-24_11h26.51.253,threat_forest,2021.2.3,60.03673047531552,
10,0,10,0,2,0,2,0,,,,,,,,,,right,1.3907175000058487,366.14609200000996,kp4,360.6648398999823,362.6793202999979,366.14609200000996,None,True,2,['r'],False,0.2448979591836734,0.2857142857142857,0.1428571428571428,1.0,2.0,0.8400769154957735,-0.7551020408163265,unsucc_cost,1,0,362.6793202999979,None,2,kp4,2,2023-03-24_11h26.51.253,threat_forest,2021.2.3,60.03673047531552,
10,0,10,0,,,,,,,,,,,,,,,,,,,,,,,,,,,,,,,,,,,,369.572892999975,None,0,kp4,2,2023-03-24_11h26.51.253,threat_forest,2021.2.3,60.03673047531552,
11,0,11,0,0,0,0,0,,,,,,,372.28477610001573,375.780616700009,None,right,0.8329373000306077,376.6633165999665,kp4,372.28477610001573,375.780616700009,376.6633165999665,None,True,5,['p'],False,0.46875,0.625,0.25,2.0,1.0,0.9634951148421658,0.0,succ_gain,1,6,,,,kp4,2,2023-03-24_11h26.51.253,threat_forest,2021.2.3,60.03673047531552,
11,0,11,0,1,0,1,0,,,,,,,,,,right,0.5829074999783188,383.21809089998715,kp4,383.21809089998715,None,377.51615519996267,379.53031249996275,False,6,['p'],True,0.6,0.6,0.0,0.0,1.0,0.6126016192893442,0.0,wait_cost,0,5,379.53031249996275,None,6,kp4,2,2023-03-24_11h26.51.253,threat_forest,2021.2.3,60.03673047531552,
11,0,11,0,2,0,2,0,,,,,,,,,,left,1.3564880000194535,386.61778859997867,kp4,383.8267448999686,385.8412301999633,386.61778859997867,None,False,5,['p'],False,0.46875,0.625,0.25,2.0,1.0,0.9634951148421658,0.0,wait_cost,1,4,385.8412301999633,None,5,kp4,2,2023-03-24_11h26.51.253,threat_forest,2021.2.3,60.03673047531552,
11,0,11,0,3,0,3,0,,,,,,,,,,left,0.4488573999842629,392.158649399993,kp4,392.158649399993,None,388.00712049996946,390.0206557000056,True,4,['p'],True,0.6,0.6,0.0,0.0,1.0,0.6126016192893442,0.0,succ_gain,0,5,390.0206557000056,None,4,kp4,2,2023-03-24_11h26.51.253,threat_forest,2021.2.3,60.03673047531552,
11,0,11,0,4,0,4,0,,,,,,,,,,right,1.2065156000317074,396.0341715000104,kp4,396.0341715000104,None,388.00712049996946,390.0206557000056,False,5,['p'],True,0.6,0.6,0.0,0.0,1.0,0.6126016192893442,0.0,wait_cost,0,4,394.6496752999956,None,5,kp4,2,2023-03-24_11h26.51.253,threat_forest,2021.2.3,60.03673047531552,
11,0,11,0,5,0,5,0,,,,,,,,,,left,1.1782922000274993,402.1566881999606,kp4,397.2644644000102,399.27857049996965,402.1566881999606,None,False,4,['p'],False,0.46875,0.625,0.25,2.0,1.0,0.9634951148421658,0.0,wait_cost,1,3,399.27857049996965,None,4,kp4,2,2023-03-24_11h26.51.253,threat_forest,2021.2.3,60.03673047531552,
11,0,11,0,6,0,6,0,,,,,,,,,,right,0.6274573999689892,408.29320020001614,kp4,408.29320020001614,None,403.35859199997503,405.37298539996846,False,3,['p'],True,0.6,0.6,0.0,0.0,1.0,0.6126016192893442,0.0,wait_cost,0,2,405.37298539996846,None,3,kp4,2,2023-03-24_11h26.51.253,threat_forest,2021.2.3,60.03673047531552,
11,0,11,0,7,0,7,0,,,,,,,,,,left,1.305307400005404,413.1114757999894,kp4,408.9553479999886,410.96770310000284,413.1114757999894,None,False,2,['p'],False,0.46875,0.625,0.25,2.0,1.0,0.9634951148421658,-0.53125,wait_cost,1,1,410.96770310000284,None,2,kp4,2,2023-03-24_11h26.51.253,threat_forest,2021.2.3,60.03673047531552,
11,0,11,0,,,,,,,,,,,,,,,,,,,,,,,,,,,,,,,,,,,,416.4626280000084,None,1,kp4,2,2023-03-24_11h26.51.253,threat_forest,2021.2.3,60.03673047531552,
12,0,12,0,0,0,0,0,,,,,,,418.7254782000091,422.2404843000113,None,left,1.3377986999694258,425.3586820999626,kp4,418.7254782000091,422.2404843000113,425.3586820999626,None,False,5,['p'],False,0.36,0.6,0.4,2.0,1.0,0.9801625908629508,0.0,wait_cost,1,4,,,,kp4,2,2023-03-24_11h26.51.253,threat_forest,2021.2.3,60.03673047531552,
12,0,12,0,1,0,1,0,,,,,,,,,,left,0.6274923000019044,430.4418502000044,kp4,430.4418502000044,None,426.7200415999978,428.7344015999697,True,4,['p'],True,0.5,0.5,0.0,0.0,1.0,0.6309297535714574,0.0,unsucc_cost,0,2,428.7344015999697,None,4,kp4,2,2023-03-24_11h26.51.253,threat_forest,2021.2.3,60.03673047531552,
12,0,12,0,2,0,2,0,,,,,,,,,,left,0.6437475000275299,434.0464703000034,kp4,434.0464703000034,None,426.7200415999978,428.7344015999697,True,2,['p'],True,0.5,0.5,0.0,0.0,1.0,0.6309297535714574,-0.5,unsucc_cost,0,0,433.11376259999815,None,2,kp4,2,2023-03-24_11h26.51.253,threat_forest,2021.2.3,60.03673047531552,
12,0,12,0,,,,,,,,,,,,,,,,,,,,,,,,,,,,,,,,,,,,436.72714350000024,None,0,kp4,2,2023-03-24_11h26.51.253,threat_forest,2021.2.3,60.03673047531552,
13,0,13,0,0,0,0,0,,,,,,,438.0637470000074,441.56552180001745,None,left,0.6330352000077255,442.814618000004,kp4,442.814618000004,None,438.0637470000074,441.56552180001745,True,5,['p'],True,0.4444444444444445,0.6666666666666666,0.3333333333333333,1.0,2.0,0.9656336071428248,0.0,unsucc_cost,0,3,,,,kp4,2,2023-03-24_11h26.51.253,threat_forest,2021.2.3,60.03673047531552,
13,0,13,0,1,0,1,0,,,,,,,,,,left,0.5863356999470852,448.1680839000037,kp4,448.1680839000037,None,438.0637470000074,441.56552180001745,True,3,['p'],True,0.4444444444444445,0.6666666666666666,0.3333333333333333,1.0,2.0,0.9656336071428248,-0.3333333333333333,fight_cost,0,0,445.4855878999806,None,3,kp4,2,2023-03-24_11h26.51.253,threat_forest,2021.2.3,60.03673047531552,
13,0,13,0,,,,,,,,,,,,,,,,,,,,,,,,,,,,,,,,,,,,450.79726580000715,None,0,kp4,2,2023-03-24_11h26.51.253,threat_forest,2021.2.3,60.03673047531552,
14,0,14,0,0,0,0,0,,,,,,,453.3072154999827,456.80831339996075,None,right,0.5929541999939829,460.1160280999611,kp4,453.3072154999827,456.80831339996075,460.1160280999611,None,True,5,['p'],False,0.24,0.4,0.4,2.0,2.0,0.9801625908629508,0.0,succ_gain,1,6,,,,kp4,2,2023-03-24_11h26.51.253,threat_forest,2021.2.3,60.03673047531552,
14,0,14,0,1,0,1,0,,,,,,,,,,right,0.7799914999632165,463.27550769998925,kp4,463.27550769998925,None,460.738365600002,462.752822200011,False,6,['p'],True,0.3333333333333333,0.3333333333333333,0.0,0.0,2.0,0.5793801642856949,0.0,wait_cost,0,5,462.752822200011,None,6,kp4,2,2023-03-24_11h26.51.253,threat_forest,2021.2.3,60.03673047531552,
14,0,14,0,2,0,2,0,,,,,,,,,,right,0.6668404000229202,467.0992895999807,kp4,467.0992895999807,None,460.738365600002,462.752822200011,False,5,['p'],True,0.3333333333333333,0.3333333333333333,0.0,0.0,2.0,0.5793801642856949,0.0,wait_cost,0,4,466.09960429999046,None,5,kp4,2,2023-03-24_11h26.51.253,threat_forest,2021.2.3,60.03673047531552,
14,0,14,0,3,0,3,0,,,,,,,,,,right,1.051727399986703,472.7340935000102,kp4,467.7982857999741,469.81292729999404,472.7340935000102,None,True,4,['p'],False,0.24,0.4,0.4,2.0,2.0,0.9801625908629508,0.0,fight_cost,1,1,469.81292729999404,None,4,kp4,2,2023-03-24_11h26.51.253,threat_forest,2021.2.3,60.03673047531552,
14,0,14,0,4,0,4,0,,,,,,,,,,left,0.4105254999594763,478.49254700000165,kp4,478.49254700000165,None,473.8132305999752,475.8239231999614,True,1,['p'],True,0.3333333333333333,0.3333333333333333,0.0,0.0,2.0,0.5793801642856949,0.3333333333333332,succ_gain,0,3,475.8239231999614,None,1,kp4,2,2023-03-24_11h26.51.253,threat_forest,2021.2.3,60.03673047531552,
14,0,14,0,5,0,5,0,,,,,,,,,,left,1.826968899986241,481.9185621999786,kp4,481.9185621999786,None,473.8132305999752,475.8239231999614,True,3,['p'],True,0.3333333333333333,0.3333333333333333,0.0,0.0,2.0,0.5793801642856949,0.0,unsucc_cost,0,1,480.9357941999915,None,3,kp4,2,2023-03-24_11h26.51.253,threat_forest,2021.2.3,60.03673047531552,
14,0,14,0,6,0,6,0,,,,,,,,,,right,2.551538800005801,486.35576639999636,kp4,483.7667641000007,485.7812524000183,486.35576639999636,None,True,1,['p'],False,0.24,0.4,0.4,2.0,2.0,0.9801625908629508,0.24,fight_cost,1,0,485.7812524000183,None,1,kp4,2,2023-03-24_11h26.51.253,threat_forest,2021.2.3,60.03673047531552,
14,0,14,0,,,,,,,,,,,,,,,,,,,,,,,,,,,,,,,,,,,,490.94324200000847,None,0,kp4,2,2023-03-24_11h26.51.253,threat_forest,2021.2.3,60.03673047531552,
15,0,15,0,0,0,0,0,,,,,,,493.7631124999607,497.26980589999584,None,left,0.5906169000081718,499.2292198999785,kp4,499.2292198999785,None,493.7631124999607,497.26980589999584,True,5,['r'],True,0.375,0.5,0.25,1.0,1.0,0.9850568223215076,0.0,unsucc_cost,0,3,,,,kp4,2,2023-03-24_11h26.51.253,threat_forest,2021.2.3,60.03673047531552,
15,0,15,0,1,0,1,0,,,,,,,,,,right,1.1008625999675132,502.9928441999946,kp4,499.83548100001644,501.84956659999443,502.9928441999946,None,True,3,['r'],False,0.2,0.2,0.0,0.0,1.0,0.4554859150035951,0.0,unsucc_cost,1,1,501.84956659999443,None,3,kp4,2,2023-03-24_11h26.51.253,threat_forest,2021.2.3,60.03673047531552,
15,0,15,0,2,0,2,0,,,,,,,,,,right,0.6073691999772564,508.54849449999165,kp4,499.83548100001644,501.84956659999443,508.54849449999165,None,True,1,['r'],False,0.2,0.2,0.0,0.0,1.0,0.4554859150035951,0.1999999999999999,unsucc_cost,1,0,506.1287978999899,None,1,kp4,2,2023-03-24_11h26.51.253,threat_forest,2021.2.3,60.03673047531552,
15,0,15,0,,,,,,,,,,,,,,,,,,,,,,,,,,,,,,,,,,,,511.1908432999626,None,0,kp4,2,2023-03-24_11h26.51.253,threat_forest,2021.2.3,60.03673047531552,
16,0,16,0,0,0,0,0,,,,,,,513.0713886999874,516.585626999964,None,right,1.2257173000252806,519.5953374999808,kp4,519.5953374999808,None,513.0713886999874,516.585626999964,False,5,['p'],True,0.5,0.5,0.0,0.0,2.0,0.6309297535714574,0.0,wait_cost,0,4,,,,kp4,2,2023-03-24_11h26.51.253,threat_forest,2021.2.3,60.03673047531552,
16,0,16,0,1,0,1,0,,,,,,,,,,right,1.140421099960804,524.314649500011,kp4,524.314649500011,None,513.0713886999874,516.585626999964,False,4,['p'],True,0.5,0.5,0.0,0.0,2.0,0.6309297535714574,0.0,wait_cost,0,3,522.8631617999636,None,4,kp4,2,2023-03-24_11h26.51.253,threat_forest,2021.2.3,60.03673047531552,
16,0,16,0,2,0,2,0,,,,,,,,,,right,1.0734540999983437,529.2940880999668,kp4,529.2940880999668,None,513.0713886999874,516.585626999964,False,3,['p'],True,0.5,0.5,0.0,0.0,2.0,0.6309297535714574,0.0,wait_cost,0,2,527.4921663000132,None,3,kp4,2,2023-03-24_11h26.51.253,threat_forest,2021.2.3,60.03673047531552,
16,0,16,0,3,0,3,0,,,,,,,,,,right,0.46450080000795424,536.0412918999791,kp4,530.3898124999832,532.4042428999674,536.0412918999791,None,True,2,['p'],False,0.36,0.6,0.4,2.0,2.0,0.9801625908629508,-0.64,unsucc_cost,1,0,532.4042428999674,None,2,kp4,2,2023-03-24_11h26.51.253,threat_forest,2021.2.3,60.03673047531552,
16,0,16,0,,,,,,,,,,,,,,,,,,,,,,,,,,,,,,,,,,,,538.5485761999735,None,0,kp4,2,2023-03-24_11h26.51.253,threat_forest,2021.2.3,60.03673047531552,
17,0,17,0,0,0,0,0,,,,,,,539.5133272999665,543.0278858999955,None,left,0.6061431000125594,544.1833398999879,kp4,544.1833398999879,None,539.5133272999665,543.0278858999955,True,4,['r'],True,0.4444444444444445,0.6666666666666666,0.3333333333333333,1.0,2.0,0.9656336071428248,0.0,fight_cost,0,1,,,,kp4,2,2023-03-24_11h26.51.253,threat_forest,2021.2.3,60.03673047531552,
17,0,17,0,1,0,1,0,,,,,,,,,,left,0.35575270000845194,549.5107737999642,kp4,549.5107737999642,None,539.5133272999665,543.0278858999955,True,1,['r'],True,0.4444444444444445,0.6666666666666666,0.3333333333333333,1.0,2.0,0.9656336071428248,0.4444444444444444,succ_gain,0,3,546.8243837999762,None,1,kp4,2,2023-03-24_11h26.51.253,threat_forest,2021.2.3,60.03673047531552,
17,0,17,0,2,0,2,0,,,,,,,,,,left,0.7720841000555083,554.9344463999732,kp4,554.9344463999732,None,539.5133272999665,543.0278858999955,True,3,['r'],True,0.4444444444444445,0.6666666666666666,0.3333333333333333,1.0,2.0,0.9656336071428248,-0.3333333333333333,succ_gain,0,5,551.9029222999816,None,3,kp4,2,2023-03-24_11h26.51.253,threat_forest,2021.2.3,60.03673047531552,
17,0,17,0,3,0,3,0,,,,,,,,,,right,1.7719903000397608,558.8132716999971,kp4,558.8132716999971,None,539.5133272999665,543.0278858999955,False,5,['r'],True,0.4444444444444445,0.6666666666666666,0.3333333333333333,1.0,2.0,0.9656336071428248,0.0,wait_cost,0,4,557.7475180999609,None,5,kp4,2,2023-03-24_11h26.51.253,threat_forest,2021.2.3,60.03673047531552,
17,0,17,0,4,0,4,0,,,,,,,,,,left,0.6069627999677323,564.2210419999901,kp4,560.6118359999964,562.6262087000068,564.2210419999901,None,False,4,['r'],False,0.2040816326530612,0.2857142857142857,0.2857142857142857,2.0,2.0,0.9335459102197724,0.0,wait_cost,1,3,562.6262087000068,None,4,kp4,2,2023-03-24_11h26.51.253,threat_forest,2021.2.3,60.03673047531552,
17,0,17,0,5,0,5,0,,,,,,,,,,right,0.6046623999718577,568.946209799964,kp4,568.946209799964,None,564.8577292999835,566.8602797999629,False,3,['r'],True,0.4444444444444445,0.6666666666666666,0.3333333333333333,1.0,2.0,0.9656336071428248,-0.3333333333333333,wait_cost,0,2,566.8602797999629,None,3,kp4,2,2023-03-24_11h26.51.253,threat_forest,2021.2.3,60.03673047531552,
17,0,17,0,6,0,6,0,,,,,,,,,,left,0.8733970000175759,573.8591510999831,kp4,569.5700823999941,571.584529499989,573.8591510999831,None,False,2,['r'],False,0.2040816326530612,0.2857142857142857,0.2857142857142857,2.0,2.0,0.9335459102197724,-0.7959183673469388,wait_cost,1,1,571.584529499989,None,2,kp4,2,2023-03-24_11h26.51.253,threat_forest,2021.2.3,60.03673047531552,
17,0,17,0,7,0,7,0,,,,,,,,,,right,0.44909250002820045,577.5998405999853,kp4,577.5998405999853,None,574.7655890000169,576.7794816999813,False,1,['r'],True,0.4444444444444445,0.6666666666666666,0.3333333333333333,1.0,2.0,0.9656336071428248,0.4444444444444444,wait_cost,0,0,576.7794816999813,None,1,kp4,2,2023-03-24_11h26.51.253,threat_forest,2021.2.3,60.03673047531552,
17,0,17,0,,,,,,,,,,,,,,,,,,,,,,,,,,,,,,,,,,,,580.0932141999947,None,0,kp4,2,2023-03-24_11h26.51.253,threat_forest,2021.2.3,60.03673047531552,
