miniblock.thisRepN,miniblock.thisTrialN,miniblock.thisN,miniblock.thisIndex,day.thisRepN,day.thisTrialN,day.thisN,day.thisIndex,welcoming.started,welcoming.stopped,key_resp_2.keys,key_resp_2.rt,key_resp_2.started,key_resp_2.stopped,forest.started,fixation_forest.started,fixation_forest.stopped,key_resp.keys,key_resp.rt,key_resp.started,Subject_ID,weather_left.started,weather_left.stopped,weather_right.started,weather_right.stopped,foraging T/F,in_LP,p/r heuristic,good_weather.T/F,p_succ_correct,p_succ_uncorrected,r_threat,n_oponents,gain_if_succ,weather_entropy,OP_value_difference,action_outcome,forest_side_L=0_R=1,out_LP,fixation_day.started,fixation_day.stopped,n_day-1.out_LP.,participant,session,date,expName,psychopyVersion,frameRate,
,,,,,,,,11.375706299673766,None,space,1.6134883998893201,11.375706299673766,None,,,,,,,,,,,,,,,,,,,,,,,,,,,,,lb11,4,2022-05-13_14h51.03.825,threat_forest,2021.2.3,59.93737739782386,
0,0,0,0,0,0,0,0,,,,,,,13.072544399648905,16.573878499679267,None,right,0.658345699775964,18.92933139996603,lb11,13.072544399648905,16.573878499679267,18.92933139996603,None,True,4,['p'],False,0.3333333333333333,0.5,0.3333333333333333,2.0,1.0,1.0,0.0,unsucc_cost,1,2,,,,lb11,4,2022-05-13_14h51.03.825,threat_forest,2021.2.3,59.93737739782386,
0,0,0,0,1,0,1,0,,,,,,,,,,left,1.1183092999272048,22.77872519986704,lb11,22.77872519986704,None,19.608135299757123,21.60664979973808,True,2,['p'],True,0.4,0.4,0.0,0.0,1.0,0.6126016192893442,-0.6,succ_gain,0,3,21.60664979973808,None,2,lb11,4,2022-05-13_14h51.03.825,threat_forest,2021.2.3,59.93737739782386,
0,0,0,0,2,0,2,0,,,,,,,,,,left,0.6995867001824081,27.672457499895245,lb11,27.672457499895245,None,19.608135299757123,21.60664979973808,True,3,['p'],True,0.4,0.4,0.0,0.0,1.0,0.6126016192893442,0.0,fight_cost,0,0,25.940524299629033,None,3,lb11,4,2022-05-13_14h51.03.825,threat_forest,2021.2.3,59.93737739782386,
0,0,0,0,,,,,,,,,,,,,,,,,,,,,,,,,,,,,,,,,,,,30.399026799947023,None,0,lb11,4,2022-05-13_14h51.03.825,threat_forest,2021.2.3,59.93737739782386,
1,0,1,0,0,0,0,0,,,,,,,33.929840999655426,37.432059899903834,None,right,0.7616812000051141,38.37967889988795,lb11,33.929840999655426,37.432059899903834,38.37967889988795,None,True,4,['p'],False,0.3061224489795918,0.4285714285714285,0.2857142857142857,2.0,2.0,0.9885754083994552,0.0,unsucc_cost,1,2,,,,lb11,4,2022-05-13_14h51.03.825,threat_forest,2021.2.3,59.93737739782386,
1,0,1,0,1,0,1,0,,,,,,,,,,right,0.8540459000505507,43.220329999923706,lb11,33.929840999655426,37.432059899903834,43.220329999923706,None,True,2,['p'],False,0.3061224489795918,0.4285714285714285,0.2857142857142857,2.0,2.0,0.9885754083994552,-0.6938775510204083,succ_gain,1,4,41.17391029978171,None,2,lb11,4,2022-05-13_14h51.03.825,threat_forest,2021.2.3,59.93737739782386,
1,0,1,0,2,0,2,0,,,,,,,,,,left,0.7399438000284135,49.539553499780595,lb11,49.539553499780595,None,44.09926000004634,46.10740459989756,True,4,['p'],True,0.4,0.4,0.0,0.0,2.0,0.6126016192893442,0.0,unsucc_cost,0,2,46.10740459989756,None,4,lb11,4,2022-05-13_14h51.03.825,threat_forest,2021.2.3,59.93737739782386,
1,0,1,0,3,0,3,0,,,,,,,,,,left,0.9222194999456406,52.984270699787885,lb11,52.984270699787885,None,44.09926000004634,46.10740459989756,True,2,['p'],True,0.4,0.4,0.0,0.0,2.0,0.6126016192893442,-0.6,succ_gain,0,4,52.32423899974674,None,2,lb11,4,2022-05-13_14h51.03.825,threat_forest,2021.2.3,59.93737739782386,
1,0,1,0,4,0,4,0,,,,,,,,,,left,1.1453432999551296,57.87825329974294,lb11,53.92447859980166,55.924199800007045,57.87825329974294,None,False,4,['p'],False,0.3061224489795918,0.4285714285714285,0.2857142857142857,2.0,2.0,0.9885754083994552,0.0,wait_cost,1,3,55.924199800007045,None,4,lb11,4,2022-05-13_14h51.03.825,threat_forest,2021.2.3,59.93737739782386,
1,0,1,0,5,0,5,0,,,,,,,,,,left,0.714145100209862,64.84376929979771,lb11,64.84376929979771,None,59.05216039996594,61.057471899781376,True,3,['p'],True,0.4,0.4,0.0,0.0,2.0,0.6126016192893442,0.0,succ_gain,0,5,61.057471899781376,None,3,lb11,4,2022-05-13_14h51.03.825,threat_forest,2021.2.3,59.93737739782386,
1,0,1,0,6,0,6,0,,,,,,,,,,left,0.49465549970045686,71.31829389976338,lb11,65.58198660006747,67.59099739976227,71.31829389976338,None,False,5,['p'],False,0.3061224489795918,0.4285714285714285,0.2857142857142857,2.0,2.0,0.9885754083994552,0.0,wait_cost,1,4,67.59099739976227,None,5,lb11,4,2022-05-13_14h51.03.825,threat_forest,2021.2.3,59.93737739782386,
1,0,1,0,7,0,7,0,,,,,,,,,,right,0.4973014001734555,76.07544699963182,lb11,76.07544699963182,None,71.84697379963472,73.85785109968856,False,4,['p'],True,0.4,0.4,0.0,0.0,2.0,0.6126016192893442,0.0,wait_cost,0,3,73.85785109968856,None,4,lb11,4,2022-05-13_14h51.03.825,threat_forest,2021.2.3,59.93737739782386,
1,0,1,0,,,,,,,,,,,,,,,,,,,,,,,,,,,,,,,,,,,,78.59129610005766,None,3,lb11,4,2022-05-13_14h51.03.825,threat_forest,2021.2.3,59.93737739782386,
2,0,2,0,0,0,0,0,,,,,,,80.18233869969845,83.69121919991449,None,left,1.236951199825853,86.40930159995332,lb11,80.18233869969845,83.69121919991449,86.40930159995332,None,False,4,['p'],False,0.2040816326530612,0.2857142857142857,0.2857142857142857,2.0,2.0,0.9335459102197724,0.0,wait_cost,1,3,,,,lb11,4,2022-05-13_14h51.03.825,threat_forest,2021.2.3,59.93737739782386,
2,0,2,0,1,0,1,0,,,,,,,,,,left,2.4840355003252625,90.27899009967223,lb11,90.27899009967223,None,87.67934300005436,89.69121059961617,True,3,['p'],True,0.25,0.25,0.0,0.0,2.0,0.5118595071429148,0.0,unsucc_cost,0,1,89.69121059961617,None,3,lb11,4,2022-05-13_14h51.03.825,threat_forest,2021.2.3,59.93737739782386,
2,0,2,0,2,0,2,0,,,,,,,,,,left,0.6922448999248445,97.88771989988163,lb11,97.88771989988163,None,87.67934300005436,89.69121059961617,True,1,['p'],True,0.25,0.25,0.0,0.0,2.0,0.5118595071429148,0.25,fight_cost,0,0,94.80822659982368,None,1,lb11,4,2022-05-13_14h51.03.825,threat_forest,2021.2.3,59.93737739782386,
2,0,2,0,,,,,,,,,,,,,,,,,,,,,,,,,,,,,,,,,,,,100.6251579998061,None,0,lb11,4,2022-05-13_14h51.03.825,threat_forest,2021.2.3,59.93737739782386,
3,0,3,0,0,0,0,0,,,,,,,101.64854139974341,105.15839039999992,None,right,0.6067578997462988,106.42701809993014,lb11,101.64854139974341,105.15839039999992,106.42701809993014,None,True,5,['r'],False,0.25,0.5,0.5,2.0,1.0,0.9463946303571862,0.0,succ_gain,1,6,,,,lb11,4,2022-05-13_14h51.03.825,threat_forest,2021.2.3,59.93737739782386,
3,0,3,0,1,0,1,0,,,,,,,,,,left,1.4201973997987807,109.64880049973726,lb11,101.64854139974341,105.15839039999992,109.64880049973726,None,False,6,['r'],False,0.25,0.5,0.5,2.0,1.0,0.9463946303571862,0.0,wait_cost,1,5,109.07482289988548,None,6,lb11,4,2022-05-13_14h51.03.825,threat_forest,2021.2.3,59.93737739782386,
3,0,3,0,2,0,2,0,,,,,,,,,,right,1.0194228999316692,115.27712959982455,lb11,115.27712959982455,None,111.09198549995199,113.09154979977757,False,5,['r'],True,0.3333333333333333,0.3333333333333333,0.0,0.0,1.0,0.5793801642856949,0.0,wait_cost,0,4,113.09154979977757,None,5,lb11,4,2022-05-13_14h51.03.825,threat_forest,2021.2.3,59.93737739782386,
3,0,3,0,3,0,3,0,,,,,,,,,,right,1.1913503999821842,119.45481179980561,lb11,119.45481179980561,None,111.09198549995199,113.09154979977757,False,4,['r'],True,0.3333333333333333,0.3333333333333333,0.0,0.0,1.0,0.5793801642856949,0.0,wait_cost,0,3,118.32511079963297,None,4,lb11,4,2022-05-13_14h51.03.825,threat_forest,2021.2.3,59.93737739782386,
3,0,3,0,4,0,4,0,,,,,,,,,,right,1.7913856003433466,123.93724890006706,lb11,120.66490799980238,122.67502809967846,123.93724890006706,None,True,3,['r'],False,0.25,0.5,0.5,2.0,1.0,0.9463946303571862,-0.5,unsucc_cost,1,1,122.67502809967846,None,3,lb11,4,2022-05-13_14h51.03.825,threat_forest,2021.2.3,59.93737739782386,
3,0,3,0,5,0,5,0,,,,,,,,,,right,0.6458946000784636,129.31250949995592,lb11,120.66490799980238,122.67502809967846,129.31250949995592,None,True,1,['r'],False,0.25,0.5,0.5,2.0,1.0,0.9463946303571862,0.25,unsucc_cost,1,0,127.77519129961729,None,1,lb11,4,2022-05-13_14h51.03.825,threat_forest,2021.2.3,59.93737739782386,
3,0,3,0,,,,,,,,,,,,,,,,,,,,,,,,,,,,,,,,,,,,131.9752783998847,None,0,lb11,4,2022-05-13_14h51.03.825,threat_forest,2021.2.3,59.93737739782386,
4,0,4,0,0,0,0,0,,,,,,,134.38668549992144,137.88163649989292,None,left,1.1469616000540555,140.61771519994363,lb11,134.38668549992144,137.88163649989292,140.61771519994363,None,False,5,['r'],False,0.16,0.2,0.2,2.0,1.0,0.8198746470064713,0.0,wait_cost,1,4,,,,lb11,4,2022-05-13_14h51.03.825,threat_forest,2021.2.3,59.93737739782386,
4,0,4,0,1,0,1,0,,,,,,,,,,left,1.679808699991554,144.72386420005932,lb11,134.38668549992144,137.88163649989292,144.72386420005932,None,False,4,['r'],False,0.16,0.2,0.2,2.0,1.0,0.8198746470064713,0.0,wait_cost,1,3,143.79211499961093,None,4,lb11,4,2022-05-13_14h51.03.825,threat_forest,2021.2.3,59.93737739782386,
4,0,4,0,2,0,2,0,,,,,,,,,,left,1.7498725997284055,149.27344039967284,lb11,149.27344039967284,None,146.43652259977534,148.44220909988508,True,3,['r'],True,0.375,0.5,0.25,1.0,1.0,0.9850568223215076,-0.25,fight_cost,0,0,148.44220909988508,None,3,lb11,4,2022-05-13_14h51.03.825,threat_forest,2021.2.3,59.93737739782386,
4,0,4,0,,,,,,,,,,,,,,,,,,,,,,,,,,,,,,,,,,,,153.04183459980413,None,0,lb11,4,2022-05-13_14h51.03.825,threat_forest,2021.2.3,59.93737739782386,
5,0,5,0,0,0,0,0,,,,,,,154.42948989989236,157.94276099978015,None,left,1.021257999818772,160.0968648996204,lb11,154.42948989989236,157.94276099978015,160.0968648996204,None,False,4,['p'],False,0.2448979591836734,0.2857142857142857,0.1428571428571428,1.0,2.0,0.8400769154957735,0.0,wait_cost,1,3,,,,lb11,4,2022-05-13_14h51.03.825,threat_forest,2021.2.3,59.93737739782386,
5,0,5,0,1,0,1,0,,,,,,,,,,left,0.8199304998852313,165.5716091999784,lb11,154.42948989989236,157.94276099978015,165.5716091999784,None,False,3,['p'],False,0.2448979591836734,0.2857142857142857,0.1428571428571428,1.0,2.0,0.8400769154957735,-0.1428571428571428,wait_cost,1,2,163.14237539982423,None,3,lb11,4,2022-05-13_14h51.03.825,threat_forest,2021.2.3,59.93737739782386,
5,0,5,0,2,0,2,0,,,,,,,,,,left,0.7744192997924984,171.62249169964343,lb11,171.62249169964343,None,166.40957369981334,168.40909059997648,True,2,['p'],True,0.4444444444444445,0.6666666666666666,0.3333333333333333,1.0,2.0,0.9656336071428248,-0.5555555555555556,succ_gain,0,4,168.40909059997648,None,2,lb11,4,2022-05-13_14h51.03.825,threat_forest,2021.2.3,59.93737739782386,
5,0,5,0,3,0,3,0,,,,,,,,,,left,0.9857729999348521,175.3528146999888,lb11,175.3528146999888,None,166.40957369981334,168.40909059997648,True,4,['p'],True,0.4444444444444445,0.6666666666666666,0.3333333333333333,1.0,2.0,0.9656336071428248,0.0,succ_gain,0,6,174.4425165997818,None,4,lb11,4,2022-05-13_14h51.03.825,threat_forest,2021.2.3,59.93737739782386,
5,0,5,0,4,0,4,0,,,,,,,,,,right,0.5476449001580477,181.7856083996594,lb11,181.7856083996594,None,166.40957369981334,168.40909059997648,False,6,['p'],True,0.4444444444444445,0.6666666666666666,0.3333333333333333,1.0,2.0,0.9656336071428248,0.0,wait_cost,0,5,178.35929399961606,None,6,lb11,4,2022-05-13_14h51.03.825,threat_forest,2021.2.3,59.93737739782386,
5,0,5,0,5,0,5,0,,,,,,,,,,right,0.4461622000671923,185.66739009972662,lb11,185.66739009972662,None,166.40957369981334,168.40909059997648,False,5,['p'],True,0.4444444444444445,0.6666666666666666,0.3333333333333333,1.0,2.0,0.9656336071428248,0.0,wait_cost,0,4,184.35927450004965,None,5,lb11,4,2022-05-13_14h51.03.825,threat_forest,2021.2.3,59.93737739782386,
5,0,5,0,6,0,6,0,,,,,,,,,,right,0.39050820004194975,189.25029239989817,lb11,189.25029239989817,None,166.40957369981334,168.40909059997648,False,4,['p'],True,0.4444444444444445,0.6666666666666666,0.3333333333333333,1.0,2.0,0.9656336071428248,0.0,wait_cost,0,3,188.1589806000702,None,4,lb11,4,2022-05-13_14h51.03.825,threat_forest,2021.2.3,59.93737739782386,
5,0,5,0,7,0,7,0,,,,,,,,,,left,0.8128786999732256,195.07871109992266,lb11,189.65949880005792,191.65973889967427,195.07871109992266,None,False,3,['p'],False,0.2448979591836734,0.2857142857142857,0.1428571428571428,1.0,2.0,0.8400769154957735,-0.1428571428571428,wait_cost,1,2,191.65973889967427,None,3,lb11,4,2022-05-13_14h51.03.825,threat_forest,2021.2.3,59.93737739782386,
5,0,5,0,,,,,,,,,,,,,,,,,,,,,,,,,,,,,,,,,,,,197.90950069995597,None,2,lb11,4,2022-05-13_14h51.03.825,threat_forest,2021.2.3,59.93737739782386,
6,0,6,0,0,0,0,0,,,,,,,200.49937629979104,204.01474449969828,None,right,0.9124535000883043,205.8077295999974,lb11,200.49937629979104,204.01474449969828,205.8077295999974,None,True,4,['r'],False,0.2448979591836734,0.2857142857142857,0.1428571428571428,1.0,2.0,0.8400769154957735,0.0,fight_cost,1,1,,,,lb11,4,2022-05-13_14h51.03.825,threat_forest,2021.2.3,59.93737739782386,
6,0,6,0,1,0,1,0,,,,,,,,,,right,1.173186699859798,212.17787569994107,lb11,212.17787569994107,None,206.7444370999001,208.7429780997336,False,1,['r'],True,0.375,0.5,0.25,1.0,2.0,0.9850568223215076,0.375,wait_cost,0,0,208.7429780997336,None,1,lb11,4,2022-05-13_14h51.03.825,threat_forest,2021.2.3,59.93737739782386,
6,0,6,0,,,,,,,,,,,,,,,,,,,,,,,,,,,,,,,,,,,,215.39309370005503,None,0,lb11,4,2022-05-13_14h51.03.825,threat_forest,2021.2.3,59.93737739782386,
7,0,7,0,0,0,0,0,,,,,,,216.71539849974215,220.21033609984443,None,left,0.9153811000287533,223.35021519986913,lb11,216.71539849974215,220.21033609984443,223.35021519986913,None,False,5,['p'],False,0.18,0.2,0.1,1.0,2.0,0.7058405977926203,0.0,wait_cost,1,4,,,,lb11,4,2022-05-13_14h51.03.825,threat_forest,2021.2.3,59.93737739782386,
7,0,7,0,1,0,1,0,,,,,,,,,,left,0.8250902998261154,226.87661989964545,lb11,216.71539849974215,220.21033609984443,226.87661989964545,None,False,4,['p'],False,0.18,0.2,0.1,1.0,2.0,0.7058405977926203,0.0,wait_cost,1,3,226.3096952000633,None,4,lb11,4,2022-05-13_14h51.03.825,threat_forest,2021.2.3,59.93737739782386,
7,0,7,0,2,0,2,0,,,,,,,,,,left,0.5761122000403702,233.22634649975225,lb11,216.71539849974215,220.21033609984443,233.22634649975225,None,False,3,['p'],False,0.18,0.2,0.1,1.0,2.0,0.7058405977926203,-0.1,wait_cost,1,2,229.72706789989024,None,3,lb11,4,2022-05-13_14h51.03.825,threat_forest,2021.2.3,59.93737739782386,
7,0,7,0,3,0,3,0,,,,,,,,,,right,1.3193198000080884,238.82839989988133,lb11,216.71539849974215,220.21033609984443,238.82839989988133,None,True,2,['p'],False,0.18,0.2,0.1,1.0,2.0,0.7058405977926203,-0.8200000000000001,fight_cost,1,0,235.8362276996486,None,2,lb11,4,2022-05-13_14h51.03.825,threat_forest,2021.2.3,59.93737739782386,
7,0,7,0,,,,,,,,,,,,,,,,,,,,,,,,,,,,,,,,,,,,242.19333019992337,None,0,lb11,4,2022-05-13_14h51.03.825,threat_forest,2021.2.3,59.93737739782386,
8,0,8,0,0,0,0,0,,,,,,,244.87820539996028,248.37702520005405,None,left,0.867389100138098,251.0739368996583,lb11,251.0739368996583,None,244.87820539996028,248.37702520005405,True,4,['p'],True,0.3333333333333333,0.3333333333333333,0.0,0.0,2.0,0.5793801642856949,0.0,unsucc_cost,0,2,,,,lb11,4,2022-05-13_14h51.03.825,threat_forest,2021.2.3,59.93737739782386,
8,0,8,0,1,0,1,0,,,,,,,,,,left,1.1258239997550845,255.2997896997258,lb11,255.2997896997258,None,244.87820539996028,248.37702520005405,True,2,['p'],True,0.3333333333333333,0.3333333333333333,0.0,0.0,2.0,0.5793801642856949,-0.6666666666666667,unsucc_cost,0,0,253.96057299990207,None,2,lb11,4,2022-05-13_14h51.03.825,threat_forest,2021.2.3,59.93737739782386,
8,0,8,0,,,,,,,,,,,,,,,,,,,,,,,,,,,,,,,,,,,,258.4439114998095,None,0,lb11,4,2022-05-13_14h51.03.825,threat_forest,2021.2.3,59.93737739782386,
9,0,9,0,0,0,0,0,,,,,,,260.23322479985654,263.7339345999062,None,left,0.9137392998673022,266.5125786997378,lb11,266.5125786997378,None,260.23322479985654,263.7339345999062,True,4,['p'],True,0.375,0.5,0.25,1.0,1.0,0.9850568223215076,0.0,unsucc_cost,0,2,,,,lb11,4,2022-05-13_14h51.03.825,threat_forest,2021.2.3,59.93737739782386,
9,0,9,0,1,0,1,0,,,,,,,,,,left,0.9304158999584615,273.2344905999489,lb11,267.44434769963846,269.44397389981896,273.2344905999489,None,False,2,['p'],False,0.2,0.2,0.0,0.0,1.0,0.4554859150035951,-0.8,wait_cost,1,1,269.44397389981896,None,2,lb11,4,2022-05-13_14h51.03.825,threat_forest,2021.2.3,59.93737739782386,
9,0,9,0,2,0,2,0,,,,,,,,,,left,0.9851935002952814,279.98904279991984,lb11,279.98904279991984,None,274.20245439978316,276.21081630000845,True,1,['p'],True,0.375,0.5,0.25,1.0,1.0,0.9850568223215076,0.375,unsucc_cost,0,0,276.21081630000845,None,1,lb11,4,2022-05-13_14h51.03.825,threat_forest,2021.2.3,59.93737739782386,
9,0,9,0,,,,,,,,,,,,,,,,,,,,,,,,,,,,,,,,,,,,282.9945535999723,None,0,lb11,4,2022-05-13_14h51.03.825,threat_forest,2021.2.3,59.93737739782386,
10,0,10,0,0,0,0,0,,,,,,,285.1988939996809,288.71095229964703,None,left,0.7436723997816443,290.07698749983683,lb11,290.07698749983683,None,285.1988939996809,288.71095229964703,True,4,['p'],True,0.3333333333333333,0.3333333333333333,0.0,0.0,2.0,0.5793801642856949,0.0,succ_gain,0,6,,,,lb11,4,2022-05-13_14h51.03.825,threat_forest,2021.2.3,59.93737739782386,
10,0,10,0,1,0,1,0,,,,,,,,,,left,0.7301212004385889,294.4215666996315,lb11,294.4215666996315,None,285.1988939996809,288.71095229964703,True,6,['p'],True,0.3333333333333333,0.3333333333333333,0.0,0.0,2.0,0.5793801642856949,0.0,fight_cost,0,3,292.8610705998726,None,6,lb11,4,2022-05-13_14h51.03.825,threat_forest,2021.2.3,59.93737739782386,
10,0,10,0,2,0,2,0,,,,,,,,,,left,0.8421465000137687,299.98544159997255,lb11,299.98544159997255,None,285.1988939996809,288.71095229964703,True,3,['p'],True,0.3333333333333333,0.3333333333333333,0.0,0.0,2.0,0.5793801642856949,0.0,unsucc_cost,0,1,297.19456780003384,None,3,lb11,4,2022-05-13_14h51.03.825,threat_forest,2021.2.3,59.93737739782386,
10,0,10,0,3,0,3,0,,,,,,,,,,right,0.7987893000245094,304.289814400021,lb11,300.8448087000288,302.8445680998266,304.289814400021,None,True,1,['p'],False,0.2222222222222222,0.6666666666666666,0.6666666666666666,2.0,2.0,0.77250688571426,0.2222222222222222,unsucc_cost,1,0,302.8445680998266,None,1,lb11,4,2022-05-13_14h51.03.825,threat_forest,2021.2.3,59.93737739782386,
10,0,10,0,,,,,,,,,,,,,,,,,,,,,,,,,,,,,,,,,,,,307.1110723996535,None,0,lb11,4,2022-05-13_14h51.03.825,threat_forest,2021.2.3,59.93737739782386,
11,0,11,0,0,0,0,0,,,,,,,309.55277209961787,313.06125559983775,None,left,0.8825739002786577,314.5271648997441,lb11,314.5271648997441,None,309.55277209961787,313.06125559983775,True,4,['p'],True,0.375,0.5,0.25,1.0,2.0,0.9850568223215076,0.0,fight_cost,0,1,,,,lb11,4,2022-05-13_14h51.03.825,threat_forest,2021.2.3,59.93737739782386,
11,0,11,0,1,0,1,0,,,,,,,,,,right,0.9689758997410536,318.764713099692,lb11,315.42828270001337,317.42795969964936,318.764713099692,None,True,1,['p'],False,0.2,0.2,0.0,0.0,2.0,0.4554859150035951,0.1999999999999999,unsucc_cost,1,0,317.42795969964936,None,1,lb11,4,2022-05-13_14h51.03.825,threat_forest,2021.2.3,59.93737739782386,
11,0,11,0,,,,,,,,,,,,,,,,,,,,,,,,,,,,,,,,,,,,321.7783592999913,None,0,lb11,4,2022-05-13_14h51.03.825,threat_forest,2021.2.3,59.93737739782386,
12,0,12,0,0,0,0,0,,,,,,,322.8044242998585,326.3098375997506,None,right,0.9678243999369442,327.53071499988437,lb11,322.8044242998585,326.3098375997506,327.53071499988437,None,True,4,['p'],False,0.16,0.2,0.2,2.0,2.0,0.8198746470064713,0.0,unsucc_cost,1,2,,,,lb11,4,2022-05-13_14h51.03.825,threat_forest,2021.2.3,59.93737739782386,
12,0,12,0,1,0,1,0,,,,,,,,,,left,0.8077738997526467,334.1165403998457,lb11,334.1165403998457,None,328.5379894999787,330.5449486998841,True,2,['p'],True,0.2222222222222222,0.3333333333333333,0.3333333333333333,2.0,2.0,0.9656336071428248,-0.7777777777777779,succ_gain,0,4,330.5449486998841,None,2,lb11,4,2022-05-13_14h51.03.825,threat_forest,2021.2.3,59.93737739782386,
12,0,12,0,2,0,2,0,,,,,,,,,,left,0.572255099657923,339.9786435998976,lb11,339.9786435998976,None,328.5379894999787,330.5449486998841,True,4,['p'],True,0.2222222222222222,0.3333333333333333,0.3333333333333333,2.0,2.0,0.9656336071428248,0.0,fight_cost,0,1,336.9500430999324,None,4,lb11,4,2022-05-13_14h51.03.825,threat_forest,2021.2.3,59.93737739782386,
12,0,12,0,3,0,3,0,,,,,,,,,,left,0.5970356999896467,346.35968469968066,lb11,346.35968469968066,None,328.5379894999787,330.5449486998841,True,1,['p'],True,0.2222222222222222,0.3333333333333333,0.3333333333333333,2.0,2.0,0.9656336071428248,0.2222222222222221,succ_gain,0,3,342.57856899965554,None,1,lb11,4,2022-05-13_14h51.03.825,threat_forest,2021.2.3,59.93737739782386,
12,0,12,0,4,0,4,0,,,,,,,,,,left,0.6566864000633359,352.19532289961353,lb11,352.19532289961353,None,328.5379894999787,330.5449486998841,True,3,['p'],True,0.2222222222222222,0.3333333333333333,0.3333333333333333,2.0,2.0,0.9656336071428248,-0.3333333333333333,unsucc_cost,0,1,348.99470359971747,None,3,lb11,4,2022-05-13_14h51.03.825,threat_forest,2021.2.3,59.93737739782386,
12,0,12,0,5,0,5,0,,,,,,,,,,left,0.5466911001130939,358.0130811999552,lb11,358.0130811999552,None,328.5379894999787,330.5449486998841,True,1,['p'],True,0.2222222222222222,0.3333333333333333,0.3333333333333333,2.0,2.0,0.9656336071428248,0.2222222222222221,fight_cost,0,0,354.88710359996185,None,1,lb11,4,2022-05-13_14h51.03.825,threat_forest,2021.2.3,59.93737739782386,
12,0,12,0,,,,,,,,,,,,,,,,,,,,,,,,,,,,,,,,,,,,360.57871989998966,None,0,lb11,4,2022-05-13_14h51.03.825,threat_forest,2021.2.3,59.93737739782386,
13,0,13,0,0,0,0,0,,,,,,,361.98680870002136,365.4949610000476,None,left,0.7929818998090923,367.82743229996413,lb11,367.82743229996413,None,361.98680870002136,365.4949610000476,True,4,['r'],True,0.6,0.6,0.0,0.0,2.0,0.6126016192893442,0.0,succ_gain,0,6,,,,lb11,4,2022-05-13_14h51.03.825,threat_forest,2021.2.3,59.93737739782386,
13,0,13,0,1,0,1,0,,,,,,,,,,left,0.5935851000249386,373.42430819990113,lb11,373.42430819990113,None,361.98680870002136,365.4949610000476,True,6,['r'],True,0.6,0.6,0.0,0.0,2.0,0.6126016192893442,0.0,unsucc_cost,0,4,370.65389419998974,None,6,lb11,4,2022-05-13_14h51.03.825,threat_forest,2021.2.3,59.93737739782386,
13,0,13,0,2,0,2,0,,,,,,,,,,right,1.2159466999582946,377.30169859994203,lb11,374.04995839996263,376.06246199971065,377.30169859994203,None,True,4,['r'],False,0.46875,0.625,0.25,2.0,2.0,0.9634951148421658,0.0,succ_gain,1,6,376.06246199971065,None,4,lb11,4,2022-05-13_14h51.03.825,threat_forest,2021.2.3,59.93737739782386,
13,0,13,0,3,0,3,0,,,,,,,,,,right,0.5811799000948668,382.8154961997643,lb11,382.8154961997643,None,378.5463501997292,380.54584719985723,False,6,['r'],True,0.6,0.6,0.0,0.0,2.0,0.6126016192893442,0.0,wait_cost,0,5,380.54584719985723,None,6,lb11,4,2022-05-13_14h51.03.825,threat_forest,2021.2.3,59.93737739782386,
13,0,13,0,4,0,4,0,,,,,,,,,,right,0.47013780009001493,388.53934259992093,lb11,388.53934259992093,None,378.5463501997292,380.54584719985723,False,5,['r'],True,0.6,0.6,0.0,0.0,2.0,0.6126016192893442,0.0,wait_cost,0,4,385.4289905000478,None,5,lb11,4,2022-05-13_14h51.03.825,threat_forest,2021.2.3,59.93737739782386,
13,0,13,0,5,0,5,0,,,,,,,,,,left,0.6699673999100924,394.29974199971184,lb11,389.0295100999065,391.02919439971447,394.29974199971184,None,False,4,['r'],False,0.46875,0.625,0.25,2.0,2.0,0.9634951148421658,0.0,wait_cost,1,3,391.02919439971447,None,4,lb11,4,2022-05-13_14h51.03.825,threat_forest,2021.2.3,59.93737739782386,
13,0,13,0,6,0,6,0,,,,,,,,,,left,0.6991582000628114,400.1436938997358,lb11,389.0295100999065,391.02919439971447,400.1436938997358,None,False,3,['r'],False,0.46875,0.625,0.25,2.0,2.0,0.9634951148421658,-0.25,wait_cost,1,2,397.01271090004593,None,3,lb11,4,2022-05-13_14h51.03.825,threat_forest,2021.2.3,59.93737739782386,
13,0,13,0,7,0,7,0,,,,,,,,,,right,0.9034733003936708,404.641552799847,lb11,404.641552799847,None,400.8628221000545,402.8626240999438,False,2,['r'],True,0.6,0.6,0.0,0.0,2.0,0.6126016192893442,-0.4,wait_cost,0,1,402.8626240999438,None,2,lb11,4,2022-05-13_14h51.03.825,threat_forest,2021.2.3,59.93737739782386,
13,0,13,0,,,,,,,,,,,,,,,,,,,,,,,,,,,,,,,,,,,,407.5628263000399,None,1,lb11,4,2022-05-13_14h51.03.825,threat_forest,2021.2.3,59.93737739782386,
14,0,14,0,0,0,0,0,,,,,,,410.4545109998435,413.95533659961075,None,left,0.7986460002139211,417.48125869967043,lb11,417.48125869967043,None,410.4545109998435,413.95533659961075,True,4,['r'],True,0.375,0.5,0.25,1.0,1.0,0.9850568223215076,0.0,succ_gain,0,5,,,,lb11,4,2022-05-13_14h51.03.825,threat_forest,2021.2.3,59.93737739782386,
14,0,14,0,1,0,1,0,,,,,,,,,,right,1.3295408999547362,422.61685899971053,lb11,418.3059036997147,420.31298669986427,422.61685899971053,None,True,5,['r'],False,0.2448979591836734,0.2857142857142857,0.1428571428571428,1.0,1.0,0.8400769154957735,0.0,succ_gain,1,6,420.31298669986427,None,5,lb11,4,2022-05-13_14h51.03.825,threat_forest,2021.2.3,59.93737739782386,
14,0,14,0,2,0,2,0,,,,,,,,,,left,0.9897083998657763,426.9322536997497,lb11,426.9322536997497,None,423.9634604998864,425.9630863000639,True,6,['r'],True,0.375,0.5,0.25,1.0,1.0,0.9850568223215076,0.0,unsucc_cost,0,4,425.9630863000639,None,6,lb11,4,2022-05-13_14h51.03.825,threat_forest,2021.2.3,59.93737739782386,
14,0,14,0,3,0,3,0,,,,,,,,,,left,1.068702599965036,433.26785939978436,lb11,427.9503623996861,429.96286359988153,433.26785939978436,None,False,4,['r'],False,0.2448979591836734,0.2857142857142857,0.1428571428571428,1.0,1.0,0.8400769154957735,0.0,wait_cost,1,3,429.96286359988153,None,4,lb11,4,2022-05-13_14h51.03.825,threat_forest,2021.2.3,59.93737739782386,
14,0,14,0,4,0,4,0,,,,,,,,,,left,0.6937742000445724,439.608593699988,lb11,427.9503623996861,429.96286359988153,439.608593699988,None,False,3,['r'],False,0.2448979591836734,0.2857142857142857,0.1428571428571428,1.0,1.0,0.8400769154957735,-0.1428571428571428,wait_cost,1,2,436.3633010997437,None,3,lb11,4,2022-05-13_14h51.03.825,threat_forest,2021.2.3,59.93737739782386,
14,0,14,0,5,0,5,0,,,,,,,,,,left,0.6640487001277506,443.6736249998212,lb11,427.9503623996861,429.96286359988153,443.6736249998212,None,False,2,['r'],False,0.2448979591836734,0.2857142857142857,0.1428571428571428,1.0,1.0,0.8400769154957735,-0.7551020408163265,wait_cost,1,1,442.3468271996826,None,2,lb11,4,2022-05-13_14h51.03.825,threat_forest,2021.2.3,59.93737739782386,
14,0,14,0,6,0,6,0,,,,,,,,,,left,0.6798033001832664,448.6260588997975,lb11,448.6260588997975,None,444.3631919999607,446.36342299962416,True,1,['r'],True,0.375,0.5,0.25,1.0,1.0,0.9850568223215076,0.375,unsucc_cost,0,0,446.36342299962416,None,1,lb11,4,2022-05-13_14h51.03.825,threat_forest,2021.2.3,59.93737739782386,
14,0,14,0,,,,,,,,,,,,,,,,,,,,,,,,,,,,,,,,,,,,451.3467854997143,None,0,lb11,4,2022-05-13_14h51.03.825,threat_forest,2021.2.3,59.93737739782386,
15,0,15,0,0,0,0,0,,,,,,,451.8874317998998,455.3828932000324,None,left,0.7193821999244392,455.94875909993425,lb11,455.94875909993425,None,451.8874317998998,455.3828932000324,True,5,['r'],True,0.6,0.6,0.0,0.0,1.0,0.6126016192893442,0.0,unsucc_cost,0,3,,,,lb11,4,2022-05-13_14h51.03.825,threat_forest,2021.2.3,59.93737739782386,
15,0,15,0,1,0,1,0,,,,,,,,,,left,0.5825730999931693,459.4375209999271,lb11,459.4375209999271,None,451.8874317998998,455.3828932000324,True,3,['r'],True,0.6,0.6,0.0,0.0,1.0,0.6126016192893442,0.0,unsucc_cost,0,1,458.71310359984636,None,3,lb11,4,2022-05-13_14h51.03.825,threat_forest,2021.2.3,59.93737739782386,
15,0,15,0,2,0,2,0,,,,,,,,,,right,1.156863100361079,462.78375729965046,lb11,460.0477796997875,462.04725299961865,462.78375729965046,None,True,1,['r'],False,0.46875,0.625,0.25,2.0,1.0,0.9634951148421658,0.46875,fight_cost,1,0,462.04725299961865,None,1,lb11,4,2022-05-13_14h51.03.825,threat_forest,2021.2.3,59.93737739782386,
15,0,15,0,,,,,,,,,,,,,,,,,,,,,,,,,,,,,,,,,,,,465.980134899728,None,0,lb11,4,2022-05-13_14h51.03.825,threat_forest,2021.2.3,59.93737739782386,
16,0,16,0,0,0,0,0,,,,,,,466.8733059996739,470.3803339996375,None,left,0.8499224996194243,471.1163987000473,lb11,471.1163987000473,None,466.8733059996739,470.3803339996375,True,5,['p'],True,0.24,0.4,0.4,2.0,2.0,0.9801625908629508,0.0,unsucc_cost,0,3,,,,lb11,4,2022-05-13_14h51.03.825,threat_forest,2021.2.3,59.93737739782386,
16,0,16,0,1,0,1,0,,,,,,,,,,left,1.252960099838674,476.7391528999433,lb11,476.7391528999433,None,466.8733059996739,470.3803339996375,True,3,['p'],True,0.24,0.4,0.4,2.0,2.0,0.9801625908629508,-0.4,succ_gain,0,5,474.01344199990854,None,3,lb11,4,2022-05-13_14h51.03.825,threat_forest,2021.2.3,59.93737739782386,
16,0,16,0,2,0,2,0,,,,,,,,,,left,0.6288367002271116,481.9417951996438,lb11,481.9417951996438,None,466.8733059996739,470.3803339996375,True,5,['p'],True,0.24,0.4,0.4,2.0,2.0,0.9801625908629508,0.0,succ_gain,0,6,480.01372589962557,None,5,lb11,4,2022-05-13_14h51.03.825,threat_forest,2021.2.3,59.93737739782386,
16,0,16,0,3,0,3,0,,,,,,,,,,left,0.5512836999259889,487.5609736996703,lb11,482.59778469987214,484.5968129998073,487.5609736996703,None,False,6,['p'],False,0.16,0.2,0.2,2.0,2.0,0.8198746470064713,0.0,wait_cost,1,5,484.5968129998073,None,6,lb11,4,2022-05-13_14h51.03.825,threat_forest,2021.2.3,59.93737739782386,
16,0,16,0,4,0,4,0,,,,,,,,,,left,0.4980239002034068,491.68416869966313,lb11,482.59778469987214,484.5968129998073,491.68416869966313,None,False,5,['p'],False,0.16,0.2,0.2,2.0,2.0,0.8198746470064713,0.0,wait_cost,1,4,490.1473367996514,None,5,lb11,4,2022-05-13_14h51.03.825,threat_forest,2021.2.3,59.93737739782386,
16,0,16,0,5,0,5,0,,,,,,,,,,right,0.5041078999638557,495.199507500045,lb11,495.199507500045,None,492.2256751996465,494.23070679977536,False,4,['p'],True,0.24,0.4,0.4,2.0,2.0,0.9801625908629508,0.0,wait_cost,0,3,494.23070679977536,None,4,lb11,4,2022-05-13_14h51.03.825,threat_forest,2021.2.3,59.93737739782386,
16,0,16,0,6,0,6,0,,,,,,,,,,left,0.39174250001087785,500.070882699918,lb11,495.7307843999006,497.7305361996405,500.070882699918,None,False,3,['p'],False,0.16,0.2,0.2,2.0,2.0,0.8198746470064713,-0.2,wait_cost,1,2,497.7305361996405,None,3,lb11,4,2022-05-13_14h51.03.825,threat_forest,2021.2.3,59.93737739782386,
16,0,16,0,7,0,7,0,,,,,,,,,,left,1.039050799794495,503.07959279976785,lb11,495.7307843999006,497.7305361996405,503.07959279976785,None,False,2,['p'],False,0.16,0.2,0.2,2.0,2.0,0.8198746470064713,-0.8400000000000001,wait_cost,1,1,502.4805582999252,None,2,lb11,4,2022-05-13_14h51.03.825,threat_forest,2021.2.3,59.93737739782386,
16,0,16,0,,,,,,,,,,,,,,,,,,,,,,,,,,,,,,,,,,,,506.16388999996707,None,1,lb11,4,2022-05-13_14h51.03.825,threat_forest,2021.2.3,59.93737739782386,
17,0,17,0,0,0,0,0,,,,,,,507.9680695999414,511.480815500021,None,left,0.7727208998985589,512.85905739991,lb11,512.85905739991,None,507.9680695999414,511.480815500021,True,4,['p'],True,0.5,0.5,0.0,0.0,2.0,0.6309297535714574,0.0,unsucc_cost,0,2,,,,lb11,4,2022-05-13_14h51.03.825,threat_forest,2021.2.3,59.93737739782386,
17,0,17,0,1,0,1,0,,,,,,,,,,right,0.7350587002001703,519.4849195000716,lb11,513.6666528997011,515.6810175999999,519.4849195000716,None,True,2,['p'],False,0.4081632653061224,0.5714285714285714,0.2857142857142857,2.0,2.0,0.9885754083994552,-0.5918367346938775,succ_gain,1,4,515.6810175999999,None,2,lb11,4,2022-05-13_14h51.03.825,threat_forest,2021.2.3,59.93737739782386,
17,0,17,0,2,0,2,0,,,,,,,,,,left,0.6992383999750018,524.3451091996394,lb11,524.3451091996394,None,520.2527222996578,522.2643009000458,True,4,['p'],True,0.5,0.5,0.0,0.0,2.0,0.6309297535714574,0.0,succ_gain,0,6,522.2643009000458,None,4,lb11,4,2022-05-13_14h51.03.825,threat_forest,2021.2.3,59.93737739782386,
17,0,17,0,3,0,3,0,,,,,,,,,,left,0.4612042000517249,530.0192183000036,lb11,525.0658228998072,527.0809545000084,530.0192183000036,None,False,6,['p'],False,0.4081632653061224,0.5714285714285714,0.2857142857142857,2.0,2.0,0.9885754083994552,0.0,wait_cost,1,5,527.0809545000084,None,6,lb11,4,2022-05-13_14h51.03.825,threat_forest,2021.2.3,59.93737739782386,
17,0,17,0,4,0,4,0,,,,,,,,,,left,0.7336051003076136,534.1465805000626,lb11,525.0658228998072,527.0809545000084,534.1465805000626,None,False,5,['p'],False,0.4081632653061224,0.5714285714285714,0.2857142857142857,2.0,2.0,0.9885754083994552,0.0,wait_cost,1,4,532.4980729999952,None,5,lb11,4,2022-05-13_14h51.03.825,threat_forest,2021.2.3,59.93737739782386,
17,0,17,0,5,0,5,0,,,,,,,,,,left,0.42018610006198287,540.3952420996502,lb11,525.0658228998072,527.0809545000084,540.3952420996502,None,False,4,['p'],False,0.4081632653061224,0.5714285714285714,0.2857142857142857,2.0,2.0,0.9885754083994552,0.0,wait_cost,1,3,536.8978871996514,None,4,lb11,4,2022-05-13_14h51.03.825,threat_forest,2021.2.3,59.93737739782386,
17,0,17,0,6,0,6,0,,,,,,,,,,left,0.41104040015488863,546.1952216997743,lb11,525.0658228998072,527.0809545000084,546.1952216997743,None,False,3,['p'],False,0.4081632653061224,0.5714285714285714,0.2857142857142857,2.0,2.0,0.9885754083994552,-0.2857142857142857,wait_cost,1,2,542.8655043998733,None,3,lb11,4,2022-05-13_14h51.03.825,threat_forest,2021.2.3,59.93737739782386,
17,0,17,0,7,0,7,0,,,,,,,,,,left,0.34883839963003993,551.6297504999675,lb11,525.0658228998072,527.0809545000084,551.6297504999675,None,False,2,['p'],False,0.4081632653061224,0.5714285714285714,0.2857142857142857,2.0,2.0,0.9885754083994552,-0.5918367346938775,wait_cost,1,1,548.631619299762,None,2,lb11,4,2022-05-13_14h51.03.825,threat_forest,2021.2.3,59.93737739782386,
17,0,17,0,,,,,,,,,,,,,,,,,,,,,,,,,,,,,,,,,,,,553.9983764998615,None,1,lb11,4,2022-05-13_14h51.03.825,threat_forest,2021.2.3,59.93737739782386,
