miniblock.thisRepN,miniblock.thisTrialN,miniblock.thisN,miniblock.thisIndex,day.thisRepN,day.thisTrialN,day.thisN,day.thisIndex,welcoming.started,welcoming.stopped,key_resp_2.keys,key_resp_2.rt,key_resp_2.started,key_resp_2.stopped,forest.started,fixation_forest.started,fixation_forest.stopped,key_resp.keys,key_resp.rt,key_resp.started,Subject_ID,weather_left.started,weather_left.stopped,weather_right.started,weather_right.stopped,foraging T/F,in_LP,p/r heuristic,good_weather.T/F,p_succ_correct,p_succ_uncorrected,r_threat,n_oponents,gain_if_succ,weather_entropy,OP_value_difference,action_outcome,forest_side_L=0_R=1,out_LP,fixation_day.started,fixation_day.stopped,n_day-1.out_LP.,participant,session,date,expName,psychopyVersion,frameRate,
,,,,,,,,10.792393099982291,None,space,6.590283000143245,10.792393099982291,None,,,,,,,,,,,,,,,,,,,,,,,,,,,,,xt17,4,2022-04-21_14h58.54.356,threat_forest,2021.2.3,60.10962800457097,
0,0,0,0,0,0,0,0,,,,,,,17.44749019993469,20.956983299925923,None,left,1.9991578001063317,24.37549000000581,xt17,24.37549000000581,None,17.44749019993469,20.956983299925923,True,5,['r'],True,0.4166666666666667,0.5,0.1666666666666666,1.0,2.0,0.9358932809493992,0.0,fight_cost,0,2,,,,xt17,4,2022-04-21_14h58.54.356,threat_forest,2021.2.3,60.10962800457097,
0,0,0,0,1,0,1,0,,,,,,,,,,right,2.054848999949172,30.374765099957585,xt17,30.374765099957585,None,17.44749019993469,20.956983299925923,False,2,['r'],True,0.4166666666666667,0.5,0.1666666666666666,1.0,2.0,0.9358932809493992,-0.5833333333333333,wait_cost,0,1,28.407116699963808,None,2,xt17,4,2022-04-21_14h58.54.356,threat_forest,2021.2.3,60.10962800457097,
0,0,0,0,2,0,2,0,,,,,,,,,,right,2.8480725998524576,36.02596349990927,xt17,32.457342999987304,34.45730990008451,36.02596349990927,None,True,1,['r'],False,0.2962962962962963,0.3333333333333333,0.1111111111111111,1.0,2.0,0.8325252476189534,0.2962962962962963,unsucc_cost,1,0,34.45730990008451,None,1,xt17,4,2022-04-21_14h58.54.356,threat_forest,2021.2.3,60.10962800457097,
0,0,0,0,,,,,,,,,,,,,,,,,,,,,,,,,,,,,,,,,,,,40.892151300096884,None,0,xt17,4,2022-04-21_14h58.54.356,threat_forest,2021.2.3,60.10962800457097,
1,0,1,0,0,0,0,0,,,,,,,43.695144600002095,47.207432199968025,None,left,1.7602381999604404,50.97456029988825,xt17,43.695144600002095,47.207432199968025,50.97456029988825,None,False,4,['r'],False,0.2222222222222222,0.6666666666666666,0.6666666666666666,2.0,1.0,0.77250688571426,0.0,wait_cost,1,3,,,,xt17,4,2022-04-21_14h58.54.356,threat_forest,2021.2.3,60.10962800457097,
1,0,1,0,1,0,1,0,,,,,,,,,,left,2.7046656999737024,56.95817369990982,xt17,56.95817369990982,None,52.757903000107035,54.75752629991621,True,3,['r'],True,0.5,0.5,0.0,0.0,1.0,0.6309297535714574,0.0,unsucc_cost,0,1,54.75752629991621,None,3,xt17,4,2022-04-21_14h58.54.356,threat_forest,2021.2.3,60.10962800457097,
1,0,1,0,2,0,2,0,,,,,,,,,,left,0.5956987999379635,64.32522140000947,xt17,64.32522140000947,None,52.757903000107035,54.75752629991621,True,1,['r'],True,0.5,0.5,0.0,0.0,1.0,0.6309297535714574,0.5,unsucc_cost,0,0,61.69099340005778,None,1,xt17,4,2022-04-21_14h58.54.356,threat_forest,2021.2.3,60.10962800457097,
1,0,1,0,,,,,,,,,,,,,,,,,,,,,,,,,,,,,,,,,,,,66.94123080000281,None,0,xt17,4,2022-04-21_14h58.54.356,threat_forest,2021.2.3,60.10962800457097,
2,0,2,0,0,0,0,0,,,,,,,68.36778079997748,71.87447710009292,None,left,2.3026338000781834,74.40832350007258,xt17,74.40832350007258,None,68.36778079997748,71.87447710009292,True,4,['r'],True,0.4444444444444445,0.6666666666666666,0.3333333333333333,1.0,2.0,0.9656336071428248,0.0,succ_gain,0,6,,,,xt17,4,2022-04-21_14h58.54.356,threat_forest,2021.2.3,60.10962800457097,
2,0,2,0,1,0,1,0,,,,,,,,,,left,1.0890154999215156,81.17798989987932,xt17,76.74161010002717,78.74120689998381,81.17798989987932,None,False,6,['r'],False,0.18,0.2,0.1,1.0,2.0,0.7058405977926203,0.0,wait_cost,1,5,78.74120689998381,None,6,xt17,4,2022-04-21_14h58.54.356,threat_forest,2021.2.3,60.10962800457097,
2,0,2,0,2,0,2,0,,,,,,,,,,left,0.8424675001297146,87.50913370004855,xt17,76.74161010002717,78.74120689998381,87.50913370004855,None,False,5,['r'],False,0.18,0.2,0.1,1.0,2.0,0.7058405977926203,0.0,wait_cost,1,4,84.29130610008724,None,5,xt17,4,2022-04-21_14h58.54.356,threat_forest,2021.2.3,60.10962800457097,
2,0,2,0,3,0,3,0,,,,,,,,,,left,2.6016059999819845,93.57525240001269,xt17,93.57525240001269,None,88.37493590009399,90.37474599992856,True,4,['r'],True,0.4444444444444445,0.6666666666666666,0.3333333333333333,1.0,2.0,0.9656336071428248,0.0,unsucc_cost,0,2,90.37474599992856,None,4,xt17,4,2022-04-21_14h58.54.356,threat_forest,2021.2.3,60.10962800457097,
2,0,2,0,4,0,4,0,,,,,,,,,,left,1.4309265001211315,100.81081940000877,xt17,96.20847339998,98.20823329989798,100.81081940000877,None,False,2,['r'],False,0.18,0.2,0.1,1.0,2.0,0.7058405977926203,-0.8200000000000001,wait_cost,1,1,98.20823329989798,None,2,xt17,4,2022-04-21_14h58.54.356,threat_forest,2021.2.3,60.10962800457097,
2,0,2,0,5,0,5,0,,,,,,,,,,left,1.9460126999765635,106.3254054998979,xt17,106.3254054998979,None,102.25854040007107,104.25834299996495,True,1,['r'],True,0.4444444444444445,0.6666666666666666,0.3333333333333333,1.0,2.0,0.9656336071428248,0.4444444444444444,fight_cost,0,0,104.25834299996495,None,1,xt17,4,2022-04-21_14h58.54.356,threat_forest,2021.2.3,60.10962800457097,
2,0,2,0,,,,,,,,,,,,,,,,,,,,,,,,,,,,,,,,,,,,110.29188310005702,None,0,xt17,4,2022-04-21_14h58.54.356,threat_forest,2021.2.3,60.10962800457097,
3,0,3,0,0,0,0,0,,,,,,,112.41268440010026,115.9250753999222,None,left,1.2717543998733163,116.62547439988703,xt17,112.41268440010026,115.9250753999222,116.62547439988703,None,False,4,['p'],False,0.25,0.5,0.5,2.0,1.0,0.9463946303571862,0.0,wait_cost,1,3,,,,xt17,4,2022-04-21_14h58.54.356,threat_forest,2021.2.3,60.10962800457097,
3,0,3,0,1,0,1,0,,,,,,,,,,right,1.103892699815333,120.55881180008873,xt17,120.55881180008873,None,117.92557299998589,119.92520989989862,False,3,['p'],True,0.3333333333333333,0.3333333333333333,0.0,0.0,1.0,0.5793801642856949,0.0,wait_cost,0,2,119.92520989989862,None,3,xt17,4,2022-04-21_14h58.54.356,threat_forest,2021.2.3,60.10962800457097,
3,0,3,0,2,0,2,0,,,,,,,,,,left,1.0483462999109179,125.24284869991243,xt17,121.69227260001935,123.69189559994265,125.24284869991243,None,False,2,['p'],False,0.25,0.5,0.5,2.0,1.0,0.9463946303571862,-0.75,wait_cost,1,1,123.69189559994265,None,2,xt17,4,2022-04-21_14h58.54.356,threat_forest,2021.2.3,60.10962800457097,
3,0,3,0,3,0,3,0,,,,,,,,,,right,0.8463596999645233,129.37554619996808,xt17,121.69227260001935,123.69189559994265,129.37554619996808,None,True,1,['p'],False,0.25,0.5,0.5,2.0,1.0,0.9463946303571862,0.25,succ_gain,1,2,128.3086874000728,None,1,xt17,4,2022-04-21_14h58.54.356,threat_forest,2021.2.3,60.10962800457097,
3,0,3,0,4,0,4,0,,,,,,,,,,left,1.9487904999405146,133.65911990008317,xt17,121.69227260001935,123.69189559994265,133.65911990008317,None,False,2,['p'],False,0.25,0.5,0.5,2.0,1.0,0.9463946303571862,-0.75,wait_cost,1,1,132.2421289999038,None,2,xt17,4,2022-04-21_14h58.54.356,threat_forest,2021.2.3,60.10962800457097,
3,0,3,0,5,0,5,0,,,,,,,,,,left,1.9065108001232147,141.42685239994898,xt17,141.42685239994898,None,135.62564169988036,137.62567900004797,True,1,['p'],True,0.3333333333333333,0.3333333333333333,0.0,0.0,1.0,0.5793801642856949,0.3333333333333332,fight_cost,0,0,137.62567900004797,None,1,xt17,4,2022-04-21_14h58.54.356,threat_forest,2021.2.3,60.10962800457097,
3,0,3,0,,,,,,,,,,,,,,,,,,,,,,,,,,,,,,,,,,,,145.35914770001546,None,0,xt17,4,2022-04-21_14h58.54.356,threat_forest,2021.2.3,60.10962800457097,
4,0,4,0,0,0,0,0,,,,,,,147.42799500003457,150.94235139992088,None,left,1.2525220001116395,152.55974610010162,xt17,147.42799500003457,150.94235139992088,152.55974610010162,None,False,5,['p'],False,0.25,0.5,0.5,2.0,2.0,0.9463946303571862,0.0,wait_cost,1,4,,,,xt17,4,2022-04-21_14h58.54.356,threat_forest,2021.2.3,60.10962800457097,
4,0,4,0,1,0,1,0,,,,,,,,,,left,1.8340376000851393,157.27632330008782,xt17,157.27632330008782,None,153.8426314999815,155.8423246999737,True,4,['p'],True,0.3333333333333333,0.3333333333333333,0.0,0.0,2.0,0.5793801642856949,0.0,succ_gain,0,6,155.8423246999737,None,4,xt17,4,2022-04-21_14h58.54.356,threat_forest,2021.2.3,60.10962800457097,
4,0,4,0,2,0,2,0,,,,,,,,,,left,1.1619889000430703,162.85974560002796,xt17,159.14265529997647,161.14245539996773,162.85974560002796,None,False,6,['p'],False,0.25,0.5,0.5,2.0,2.0,0.9463946303571862,0.0,wait_cost,1,5,161.14245539996773,None,6,xt17,4,2022-04-21_14h58.54.356,threat_forest,2021.2.3,60.10962800457097,
4,0,4,0,3,0,3,0,,,,,,,,,,left,1.245632200036198,168.04298099991865,xt17,168.04298099991865,None,164.04310110001825,166.04257769999094,True,5,['p'],True,0.3333333333333333,0.3333333333333333,0.0,0.0,2.0,0.5793801642856949,0.0,succ_gain,0,6,166.04257769999094,None,5,xt17,4,2022-04-21_14h58.54.356,threat_forest,2021.2.3,60.10962800457097,
4,0,4,0,4,0,4,0,,,,,,,,,,left,1.3919315999373794,172.07620340003632,xt17,169.30954930000007,171.30933069996536,172.07620340003632,None,False,6,['p'],False,0.25,0.5,0.5,2.0,2.0,0.9463946303571862,0.0,wait_cost,1,5,171.30933069996536,None,6,xt17,4,2022-04-21_14h58.54.356,threat_forest,2021.2.3,60.10962800457097,
4,0,4,0,5,0,5,0,,,,,,,,,,right,0.7756022999528795,178.84318850003183,xt17,178.84318850003183,None,173.4930628000293,175.49269989994355,False,5,['p'],True,0.3333333333333333,0.3333333333333333,0.0,0.0,2.0,0.5793801642856949,0.0,wait_cost,0,4,175.49269989994355,None,5,xt17,4,2022-04-21_14h58.54.356,threat_forest,2021.2.3,60.10962800457097,
4,0,4,0,6,0,6,0,,,,,,,,,,right,0.9394908000249416,182.6099336000625,xt17,182.6099336000625,None,173.4930628000293,175.49269989994355,False,4,['p'],True,0.3333333333333333,0.3333333333333333,0.0,0.0,2.0,0.5793801642856949,0.0,wait_cost,0,3,181.64299950003624,None,4,xt17,4,2022-04-21_14h58.54.356,threat_forest,2021.2.3,60.10962800457097,
4,0,4,0,7,0,7,0,,,,,,,,,,left,1.5311185999307781,187.34340839996003,xt17,183.57634499995038,185.57613789988682,187.34340839996003,None,False,3,['p'],False,0.25,0.5,0.5,2.0,2.0,0.9463946303571862,-0.5,wait_cost,1,2,185.57613789988682,None,3,xt17,4,2022-04-21_14h58.54.356,threat_forest,2021.2.3,60.10962800457097,
4,0,4,0,,,,,,,,,,,,,,,,,,,,,,,,,,,,,,,,,,,,190.89291889988817,None,2,xt17,4,2022-04-21_14h58.54.356,threat_forest,2021.2.3,60.10962800457097,
5,0,5,0,0,0,0,0,,,,,,,192.04845319991,195.5596239999868,None,right,1.4520133999176323,196.0768794999458,xt17,192.04845319991,195.5596239999868,196.0768794999458,None,True,5,['r'],False,0.4444444444444445,0.6666666666666666,0.3333333333333333,2.0,2.0,0.9656336071428248,0.0,unsucc_cost,1,3,,,,xt17,4,2022-04-21_14h58.54.356,threat_forest,2021.2.3,60.10962800457097,
5,0,5,0,1,0,1,0,,,,,,,,,,right,2.3333115000277758,201.06002720003016,xt17,201.06002720003016,None,197.55994180007838,199.5597155999858,False,3,['r'],True,0.6,0.6,0.0,0.0,2.0,0.6126016192893442,0.0,wait_cost,0,2,199.5597155999858,None,3,xt17,4,2022-04-21_14h58.54.356,threat_forest,2021.2.3,60.10962800457097,
5,0,5,0,2,0,2,0,,,,,,,,,,right,1.1491839000955224,207.6605724999681,xt17,203.41000870009884,205.4098259001039,207.6605724999681,None,True,2,['r'],False,0.4444444444444445,0.6666666666666666,0.3333333333333333,2.0,2.0,0.9656336071428248,-0.5555555555555556,succ_gain,1,4,205.4098259001039,None,2,xt17,4,2022-04-21_14h58.54.356,threat_forest,2021.2.3,60.10962800457097,
5,0,5,0,3,0,3,0,,,,,,,,,,left,1.1831833000760525,212.79378820001148,xt17,203.41000870009884,205.4098259001039,212.79378820001148,None,False,4,['r'],False,0.4444444444444445,0.6666666666666666,0.3333333333333333,2.0,2.0,0.9656336071428248,0.0,wait_cost,1,3,210.82660329993814,None,4,xt17,4,2022-04-21_14h58.54.356,threat_forest,2021.2.3,60.10962800457097,
5,0,5,0,4,0,4,0,,,,,,,,,,right,0.9040949998889118,219.76097490009852,xt17,203.41000870009884,205.4098259001039,219.76097490009852,None,True,3,['r'],False,0.4444444444444445,0.6666666666666666,0.3333333333333333,2.0,2.0,0.9656336071428248,-0.3333333333333333,succ_gain,1,5,215.99344739993103,None,3,xt17,4,2022-04-21_14h58.54.356,threat_forest,2021.2.3,60.10962800457097,
5,0,5,0,5,0,5,0,,,,,,,,,,right,1.0281553999520838,223.42862930009142,xt17,223.42862930009142,None,220.6935248998925,222.69339310005307,False,5,['r'],True,0.6,0.6,0.0,0.0,2.0,0.6126016192893442,0.0,wait_cost,0,4,222.69339310005307,None,5,xt17,4,2022-04-21_14h58.54.356,threat_forest,2021.2.3,60.10962800457097,
5,0,5,0,6,0,6,0,,,,,,,,,,right,0.5396464001387358,228.84389059990644,xt17,228.84389059990644,None,220.6935248998925,222.69339310005307,False,4,['r'],True,0.6,0.6,0.0,0.0,2.0,0.6126016192893442,0.0,wait_cost,0,3,226.47672279994003,None,4,xt17,4,2022-04-21_14h58.54.356,threat_forest,2021.2.3,60.10962800457097,
5,0,5,0,7,0,7,0,,,,,,,,,,right,0.5514151998795569,233.4105887999758,xt17,233.4105887999758,None,220.6935248998925,222.69339310005307,False,3,['r'],True,0.6,0.6,0.0,0.0,2.0,0.6126016192893442,0.0,wait_cost,0,2,231.41020400007255,None,3,xt17,4,2022-04-21_14h58.54.356,threat_forest,2021.2.3,60.10962800457097,
5,0,5,0,,,,,,,,,,,,,,,,,,,,,,,,,,,,,,,,,,,,235.99367529992014,None,2,xt17,4,2022-04-21_14h58.54.356,threat_forest,2021.2.3,60.10962800457097,
6,0,6,0,0,0,0,0,,,,,,,239.0607549000997,242.56038319994695,None,left,1.1660501998849213,244.81113120005466,xt17,239.0607549000997,242.56038319994695,244.81113120005466,None,False,5,['p'],False,0.2222222222222222,0.6666666666666666,0.6666666666666666,2.0,2.0,0.77250688571426,0.0,wait_cost,1,4,,,,xt17,4,2022-04-21_14h58.54.356,threat_forest,2021.2.3,60.10962800457097,
6,0,6,0,1,0,1,0,,,,,,,,,,left,0.9497827999293804,251.66065429989249,xt17,251.66065429989249,None,245.99398189992644,247.99391900002956,True,4,['p'],True,0.5,0.5,0.0,0.0,2.0,0.6309297535714574,0.0,unsucc_cost,0,2,247.99391900002956,None,4,xt17,4,2022-04-21_14h58.54.356,threat_forest,2021.2.3,60.10962800457097,
6,0,6,0,2,0,2,0,,,,,,,,,,left,0.8241045998875052,257.9110785999801,xt17,252.62743919994682,254.62744250008836,257.9110785999801,None,False,2,['p'],False,0.2222222222222222,0.6666666666666666,0.6666666666666666,2.0,2.0,0.77250688571426,-0.7777777777777778,wait_cost,1,1,254.62744250008836,None,2,xt17,4,2022-04-21_14h58.54.356,threat_forest,2021.2.3,60.10962800457097,
6,0,6,0,3,0,3,0,,,,,,,,,,right,1.170644999947399,262.37788229994476,xt17,252.62743919994682,254.62744250008836,262.37788229994476,None,True,1,['p'],False,0.2222222222222222,0.6666666666666666,0.6666666666666666,2.0,2.0,0.77250688571426,0.2222222222222222,fight_cost,1,0,260.76074380008504,None,1,xt17,4,2022-04-21_14h58.54.356,threat_forest,2021.2.3,60.10962800457097,
6,0,6,0,,,,,,,,,,,,,,,,,,,,,,,,,,,,,,,,,,,,265.5773986999411,None,0,xt17,4,2022-04-21_14h58.54.356,threat_forest,2021.2.3,60.10962800457097,
7,0,7,0,0,0,0,0,,,,,,,268.65316169988364,272.16075540008023,None,left,1.613969200057909,273.6615142999217,xt17,273.6615142999217,None,268.65316169988364,272.16075540008023,True,4,['p'],True,0.5555555555555556,0.6666666666666666,0.1666666666666666,1.0,2.0,0.8929352898779306,0.0,succ_gain,0,6,,,,xt17,4,2022-04-21_14h58.54.356,threat_forest,2021.2.3,60.10962800457097,
7,0,7,0,1,0,1,0,,,,,,,,,,left,2.0033162001054734,280.4480951000005,xt17,275.29451610008255,277.2941860000137,280.4480951000005,None,False,6,['p'],False,0.3950617283950617,0.4444444444444444,0.1111111111111111,1.0,2.0,0.8733423231021583,0.0,wait_cost,1,5,277.2941860000137,None,6,xt17,4,2022-04-21_14h58.54.356,threat_forest,2021.2.3,60.10962800457097,
7,0,7,0,2,0,2,0,,,,,,,,,,left,0.9797672999557108,287.56160110002384,xt17,275.29451610008255,277.2941860000137,287.56160110002384,None,False,5,['p'],False,0.3950617283950617,0.4444444444444444,0.1111111111111111,1.0,2.0,0.8733423231021583,0.0,wait_cost,1,4,284.47762809996493,None,5,xt17,4,2022-04-21_14h58.54.356,threat_forest,2021.2.3,60.10962800457097,
7,0,7,0,3,0,3,0,,,,,,,,,,left,1.8455737999174744,291.4946755999699,xt17,291.4946755999699,None,288.5634367999155,290.57773829996586,True,4,['p'],True,0.5555555555555556,0.6666666666666666,0.1666666666666666,1.0,2.0,0.8929352898779306,0.0,succ_gain,0,6,290.57773829996586,None,4,xt17,4,2022-04-21_14h58.54.356,threat_forest,2021.2.3,60.10962800457097,
7,0,7,0,4,0,4,0,,,,,,,,,,right,1.6908232998102903,296.66180450003594,xt17,296.66180450003594,None,288.5634367999155,290.57773829996586,False,6,['p'],True,0.5555555555555556,0.6666666666666666,0.1666666666666666,1.0,2.0,0.8929352898779306,0.0,wait_cost,0,5,295.3611713000573,None,6,xt17,4,2022-04-21_14h58.54.356,threat_forest,2021.2.3,60.10962800457097,
7,0,7,0,5,0,5,0,,,,,,,,,,left,2.525346700102091,301.9958204999566,xt17,298.37814390007406,300.37788929999806,301.9958204999566,None,False,5,['p'],False,0.3950617283950617,0.4444444444444444,0.1111111111111111,1.0,2.0,0.8733423231021583,0.0,wait_cost,1,4,300.37788929999806,None,5,xt17,4,2022-04-21_14h58.54.356,threat_forest,2021.2.3,60.10962800457097,
7,0,7,0,6,0,6,0,,,,,,,,,,right,0.5803362000733614,310.2448929999955,xt17,310.2448929999955,None,304.54485270008445,306.54458429990336,False,4,['p'],True,0.5555555555555556,0.6666666666666666,0.1666666666666666,1.0,2.0,0.8929352898779306,0.0,wait_cost,0,3,306.54458429990336,None,4,xt17,4,2022-04-21_14h58.54.356,threat_forest,2021.2.3,60.10962800457097,
7,0,7,0,7,0,7,0,,,,,,,,,,right,0.609592700144276,314.29536279989406,xt17,314.29536279989406,None,304.54485270008445,306.54458429990336,False,3,['p'],True,0.5555555555555556,0.6666666666666666,0.1666666666666666,1.0,2.0,0.8929352898779306,-0.1666666666666666,wait_cost,0,2,312.8448634999804,None,3,xt17,4,2022-04-21_14h58.54.356,threat_forest,2021.2.3,60.10962800457097,
7,0,7,0,,,,,,,,,,,,,,,,,,,,,,,,,,,,,,,,,,,,316.928167700069,None,2,xt17,4,2022-04-21_14h58.54.356,threat_forest,2021.2.3,60.10962800457097,
8,0,8,0,0,0,0,0,,,,,,,319.4837813999038,322.9949091000017,None,left,1.1961481999605894,325.67893989989534,xt17,319.4837813999038,322.9949091000017,325.67893989989534,None,False,4,['p'],False,0.2040816326530612,0.2857142857142857,0.2857142857142857,2.0,2.0,0.9335459102197724,0.0,wait_cost,1,3,,,,xt17,4,2022-04-21_14h58.54.356,threat_forest,2021.2.3,60.10962800457097,
8,0,8,0,1,0,1,0,,,,,,,,,,left,0.8914501001127064,329.87892649997957,xt17,319.4837813999038,322.9949091000017,329.87892649997957,None,False,3,['p'],False,0.2040816326530612,0.2857142857142857,0.2857142857142857,2.0,2.0,0.9335459102197724,-0.2857142857142857,wait_cost,1,2,328.8949370000046,None,3,xt17,4,2022-04-21_14h58.54.356,threat_forest,2021.2.3,60.10962800457097,
8,0,8,0,2,0,2,0,,,,,,,,,,right,1.4435157999396324,335.5961788999848,xt17,335.5961788999848,None,330.7954583000392,332.7950198999606,False,2,['p'],True,0.25,0.25,0.0,0.0,2.0,0.5118595071429148,-0.75,wait_cost,0,1,332.7950198999606,None,2,xt17,4,2022-04-21_14h58.54.356,threat_forest,2021.2.3,60.10962800457097,
8,0,8,0,3,0,3,0,,,,,,,,,,right,0.651419100118801,341.5959735000506,xt17,337.0625561000779,339.06179459998384,341.5959735000506,None,True,1,['p'],False,0.2040816326530612,0.2857142857142857,0.2857142857142857,2.0,2.0,0.9335459102197724,0.2040816326530612,unsucc_cost,1,0,339.06179459998384,None,1,xt17,4,2022-04-21_14h58.54.356,threat_forest,2021.2.3,60.10962800457097,
8,0,8,0,,,,,,,,,,,,,,,,,,,,,,,,,,,,,,,,,,,,344.2785499000456,None,0,xt17,4,2022-04-21_14h58.54.356,threat_forest,2021.2.3,60.10962800457097,
9,0,9,0,0,0,0,0,,,,,,,346.4863575999625,349.99521060008556,None,left,1.73055460001342,352.695800999878,xt17,346.4863575999625,349.99521060008556,352.695800999878,None,False,5,['r'],False,0.2592592592592592,0.3333333333333333,0.2222222222222222,2.0,2.0,0.9327883776363324,0.0,wait_cost,1,4,,,,xt17,4,2022-04-21_14h58.54.356,threat_forest,2021.2.3,60.10962800457097,
9,0,9,0,1,0,1,0,,,,,,,,,,right,2.405991700012237,359.0126944000367,xt17,346.4863575999625,349.99521060008556,359.0126944000367,None,True,4,['r'],False,0.2592592592592592,0.3333333333333333,0.2222222222222222,2.0,2.0,0.9327883776363324,0.0,unsucc_cost,1,2,356.4454276000615,None,4,xt17,4,2022-04-21_14h58.54.356,threat_forest,2021.2.3,60.10962800457097,
9,0,9,0,2,0,2,0,,,,,,,,,,left,2.392654900206253,366.3974899998866,xt17,366.3974899998866,None,361.44598759990185,363.44578900001943,True,2,['r'],True,0.375,0.5,0.25,1.0,2.0,0.9850568223215076,-0.625,unsucc_cost,0,0,363.44578900001943,None,2,xt17,4,2022-04-21_14h58.54.356,threat_forest,2021.2.3,60.10962800457097,
9,0,9,0,,,,,,,,,,,,,,,,,,,,,,,,,,,,,,,,,,,,370.8123812000267,None,0,xt17,4,2022-04-21_14h58.54.356,threat_forest,2021.2.3,60.10962800457097,
10,0,10,0,0,0,0,0,,,,,,,373.96507959999144,377.47910559992306,None,left,1.0507996000815183,379.5796282000374,xt17,373.96507959999144,377.47910559992306,379.5796282000374,None,False,4,['r'],False,0.24,0.4,0.4,2.0,2.0,0.9801625908629508,0.0,wait_cost,1,3,,,,xt17,4,2022-04-21_14h58.54.356,threat_forest,2021.2.3,60.10962800457097,
10,0,10,0,1,0,1,0,,,,,,,,,,right,1.3906032999511808,383.91309159994125,xt17,383.91309159994125,None,380.6626762000378,382.66266519995406,False,3,['r'],True,0.3333333333333333,0.3333333333333333,0.0,0.0,2.0,0.5793801642856949,0.0,wait_cost,0,2,382.66266519995406,None,3,xt17,4,2022-04-21_14h58.54.356,threat_forest,2021.2.3,60.10962800457097,
10,0,10,0,2,0,2,0,,,,,,,,,,left,0.796278600115329,389.52988020004705,xt17,385.3295509999152,387.32914970000274,389.52988020004705,None,False,2,['r'],False,0.24,0.4,0.4,2.0,2.0,0.9801625908629508,-0.76,wait_cost,1,1,387.32914970000274,None,2,xt17,4,2022-04-21_14h58.54.356,threat_forest,2021.2.3,60.10962800457097,
10,0,10,0,3,0,3,0,,,,,,,,,,right,0.8992281998507679,393.1633826000616,xt17,393.1633826000616,None,390.3463433999568,392.34595049987547,False,1,['r'],True,0.3333333333333333,0.3333333333333333,0.0,0.0,2.0,0.5793801642856949,0.3333333333333332,wait_cost,0,0,392.34595049987547,None,1,xt17,4,2022-04-21_14h58.54.356,threat_forest,2021.2.3,60.10962800457097,
10,0,10,0,,,,,,,,,,,,,,,,,,,,,,,,,,,,,,,,,,,,396.07937090005726,None,0,xt17,4,2022-04-21_14h58.54.356,threat_forest,2021.2.3,60.10962800457097,
11,0,11,0,0,0,0,0,,,,,,,399.42262029997073,402.92939760000445,None,right,0.9202944000717252,404.07988879992627,xt17,404.07988879992627,None,399.42262029997073,402.92939760000445,False,5,['r'],True,0.4444444444444445,0.6666666666666666,0.3333333333333333,1.0,1.0,0.9656336071428248,0.0,wait_cost,0,4,,,,xt17,4,2022-04-21_14h58.54.356,threat_forest,2021.2.3,60.10962800457097,
11,0,11,0,1,0,1,0,,,,,,,,,,left,0.9736389999743551,409.3323021000251,xt17,405.02979640010744,407.0295182999689,409.3323021000251,None,False,4,['r'],False,0.16,0.2,0.2,2.0,1.0,0.8198746470064713,0.0,wait_cost,1,3,407.0295182999689,None,4,xt17,4,2022-04-21_14h58.54.356,threat_forest,2021.2.3,60.10962800457097,
11,0,11,0,2,0,2,0,,,,,,,,,,right,0.9438934000208974,414.3798014000058,xt17,414.3798014000058,None,410.32982539990917,412.3296576999128,False,3,['r'],True,0.4444444444444445,0.6666666666666666,0.3333333333333333,1.0,1.0,0.9656336071428248,-0.3333333333333333,wait_cost,0,2,412.3296576999128,None,3,xt17,4,2022-04-21_14h58.54.356,threat_forest,2021.2.3,60.10962800457097,
11,0,11,0,3,0,3,0,,,,,,,,,,left,1.1996452999301255,418.6977836000733,xt17,415.3464726000093,417.34634949988686,418.6977836000733,None,False,2,['r'],False,0.16,0.2,0.2,2.0,1.0,0.8198746470064713,-0.8400000000000001,wait_cost,1,1,417.34634949988686,None,2,xt17,4,2022-04-21_14h58.54.356,threat_forest,2021.2.3,60.10962800457097,
11,0,11,0,4,0,4,0,,,,,,,,,,right,0.49661730020307004,423.5804415999446,xt17,415.3464726000093,417.34634949988686,423.5804415999446,None,True,1,['r'],False,0.16,0.2,0.2,2.0,1.0,0.8198746470064713,0.1599999999999999,fight_cost,1,0,421.92995509994216,None,1,xt17,4,2022-04-21_14h58.54.356,threat_forest,2021.2.3,60.10962800457097,
11,0,11,0,,,,,,,,,,,,,,,,,,,,,,,,,,,,,,,,,,,,426.09653449989855,None,0,xt17,4,2022-04-21_14h58.54.356,threat_forest,2021.2.3,60.10962800457097,
12,0,12,0,0,0,0,0,,,,,,,429.34778599999845,432.8465487000067,None,right,1.7587160000111908,434.31405579997227,xt17,434.31405579997227,None,429.34778599999845,432.8465487000067,False,4,['p'],True,0.25,0.25,0.0,0.0,1.0,0.5118595071429148,0.0,wait_cost,0,3,,,,xt17,4,2022-04-21_14h58.54.356,threat_forest,2021.2.3,60.10962800457097,
12,0,12,0,1,0,1,0,,,,,,,,,,left,1.8377134997863322,440.71398260002024,xt17,436.09675529995,438.09676610003226,440.71398260002024,None,False,3,['p'],False,0.2222222222222222,0.6666666666666666,0.6666666666666666,2.0,1.0,0.77250688571426,-0.6666666666666666,wait_cost,1,2,438.09676610003226,None,3,xt17,4,2022-04-21_14h58.54.356,threat_forest,2021.2.3,60.10962800457097,
12,0,12,0,2,0,2,0,,,,,,,,,,left,0.672238799976185,445.5304767000489,xt17,445.5304767000489,None,442.5804182998836,444.5800846000202,True,2,['p'],True,0.25,0.25,0.0,0.0,1.0,0.5118595071429148,-0.75,unsucc_cost,0,0,444.5800846000202,None,2,xt17,4,2022-04-21_14h58.54.356,threat_forest,2021.2.3,60.10962800457097,
12,0,12,0,,,,,,,,,,,,,,,,,,,,,,,,,,,,,,,,,,,,448.23021170007996,None,0,xt17,4,2022-04-21_14h58.54.356,threat_forest,2021.2.3,60.10962800457097,
13,0,13,0,0,0,0,0,,,,,,,449.7216290999204,453.23008959996514,None,right,0.8178875001613051,455.01586550008506,xt17,455.01586550008506,None,449.7216290999204,453.23008959996514,False,5,['p'],True,0.375,0.5,0.25,1.0,1.0,0.9850568223215076,0.0,wait_cost,0,4,,,,xt17,4,2022-04-21_14h58.54.356,threat_forest,2021.2.3,60.10962800457097,
13,0,13,0,1,0,1,0,,,,,,,,,,right,0.8896045999135822,459.163831199985,xt17,459.163831199985,None,449.7216290999204,453.23008959996514,False,4,['p'],True,0.375,0.5,0.25,1.0,1.0,0.9850568223215076,0.0,wait_cost,0,3,457.8635801000055,None,4,xt17,4,2022-04-21_14h58.54.356,threat_forest,2021.2.3,60.10962800457097,
13,0,13,0,2,0,2,0,,,,,,,,,,right,1.4439566999208182,462.8142637000419,xt17,460.0806923999917,462.0803161000367,462.8142637000419,None,True,3,['p'],False,0.2,0.2,0.0,0.0,1.0,0.4554859150035951,0.0,succ_gain,1,4,462.0803161000367,None,3,xt17,4,2022-04-21_14h58.54.356,threat_forest,2021.2.3,60.10962800457097,
13,0,13,0,3,0,3,0,,,,,,,,,,right,0.965883299941197,469.1479561000597,xt17,469.1479561000597,None,464.28079240000807,466.2803968999069,False,4,['p'],True,0.375,0.5,0.25,1.0,1.0,0.9850568223215076,0.0,wait_cost,0,3,466.2803968999069,None,4,xt17,4,2022-04-21_14h58.54.356,threat_forest,2021.2.3,60.10962800457097,
13,0,13,0,4,0,4,0,,,,,,,,,,left,2.6117253000847995,475.59737999993376,xt17,470.13055499992333,472.13048280007206,475.59737999993376,None,False,3,['p'],False,0.2,0.2,0.0,0.0,1.0,0.4554859150035951,0.0,wait_cost,1,2,472.13048280007206,None,3,xt17,4,2022-04-21_14h58.54.356,threat_forest,2021.2.3,60.10962800457097,
13,0,13,0,5,0,5,0,,,,,,,,,,left,0.9646807999815792,482.2319857000839,xt17,482.2319857000839,None,478.23097879998386,480.23062069993466,True,2,['p'],True,0.375,0.5,0.25,1.0,1.0,0.9850568223215076,-0.625,succ_gain,0,3,480.23062069993466,None,2,xt17,4,2022-04-21_14h58.54.356,threat_forest,2021.2.3,60.10962800457097,
13,0,13,0,6,0,6,0,,,,,,,,,,right,0.5178345001768321,487.63161740009673,xt17,487.63161740009673,None,478.23097879998386,480.23062069993466,False,3,['p'],True,0.375,0.5,0.25,1.0,1.0,0.9850568223215076,-0.25,wait_cost,0,2,485.21397639997303,None,3,xt17,4,2022-04-21_14h58.54.356,threat_forest,2021.2.3,60.10962800457097,
13,0,13,0,7,0,7,0,,,,,,,,,,left,0.41029240004718304,491.5995863999706,xt17,488.1809825000819,490.1807748998981,491.5995863999706,None,False,2,['p'],False,0.2,0.2,0.0,0.0,1.0,0.4554859150035951,-0.8,wait_cost,1,1,490.1807748998981,None,2,xt17,4,2022-04-21_14h58.54.356,threat_forest,2021.2.3,60.10962800457097,
13,0,13,0,,,,,,,,,,,,,,,,,,,,,,,,,,,,,,,,,,,,494.03105190000497,None,1,xt17,4,2022-04-21_14h58.54.356,threat_forest,2021.2.3,60.10962800457097,
14,0,14,0,0,0,0,0,,,,,,,495.6045462999027,499.1141135999933,None,right,1.268728399882093,502.3318459999282,xt17,495.6045462999027,499.1141135999933,502.3318459999282,None,True,4,['r'],False,0.46875,0.625,0.25,2.0,1.0,0.9634951148421658,0.0,succ_gain,1,5,,,,xt17,4,2022-04-21_14h58.54.356,threat_forest,2021.2.3,60.10962800457097,
14,0,14,0,1,0,1,0,,,,,,,,,,right,0.7528949999250472,507.8998374999501,xt17,507.8998374999501,None,503.6312210999895,505.6310910000466,False,5,['r'],True,0.6,0.6,0.0,0.0,1.0,0.6126016192893442,0.0,wait_cost,0,4,505.6310910000466,None,5,xt17,4,2022-04-21_14h58.54.356,threat_forest,2021.2.3,60.10962800457097,
14,0,14,0,2,0,2,0,,,,,,,,,,left,1.7910195998847485,511.964873699937,xt17,508.6814315998927,510.6810514999088,511.964873699937,None,False,4,['r'],False,0.46875,0.625,0.25,2.0,1.0,0.9634951148421658,0.0,wait_cost,1,3,510.6810514999088,None,4,xt17,4,2022-04-21_14h58.54.356,threat_forest,2021.2.3,60.10962800457097,
14,0,14,0,3,0,3,0,,,,,,,,,,left,2.29662419995293,519.5827870999929,xt17,519.5827870999929,None,513.7813625000417,515.7811793000437,True,3,['r'],True,0.6,0.6,0.0,0.0,1.0,0.6126016192893442,0.0,succ_gain,0,4,515.7811793000437,None,3,xt17,4,2022-04-21_14h58.54.356,threat_forest,2021.2.3,60.10962800457097,
14,0,14,0,4,0,4,0,,,,,,,,,,right,0.8136974000371993,525.9982145999093,xt17,525.9982145999093,None,513.7813625000417,515.7811793000437,False,4,['r'],True,0.6,0.6,0.0,0.0,1.0,0.6126016192893442,0.0,wait_cost,0,3,523.8978456000332,None,4,xt17,4,2022-04-21_14h58.54.356,threat_forest,2021.2.3,60.10962800457097,
14,0,14,0,5,0,5,0,,,,,,,,,,right,1.5089963001664728,529.6319883000106,xt17,529.6319883000106,None,513.7813625000417,515.7811793000437,False,3,['r'],True,0.6,0.6,0.0,0.0,1.0,0.6126016192893442,0.0,wait_cost,0,2,528.8313070998993,None,3,xt17,4,2022-04-21_14h58.54.356,threat_forest,2021.2.3,60.10962800457097,
14,0,14,0,6,0,6,0,,,,,,,,,,right,2.4263249000068754,536.2158727999777,xt17,531.1649394000415,533.1647471000906,536.2158727999777,None,True,2,['r'],False,0.46875,0.625,0.25,2.0,1.0,0.9634951148421658,-0.53125,succ_gain,1,3,533.1647471000906,None,2,xt17,4,2022-04-21_14h58.54.356,threat_forest,2021.2.3,60.10962800457097,
14,0,14,0,7,0,7,0,,,,,,,,,,left,1.6615314001683146,544.0487885000184,xt17,531.1649394000415,533.1647471000906,544.0487885000184,None,False,3,['r'],False,0.46875,0.625,0.25,2.0,1.0,0.9634951148421658,-0.25,wait_cost,1,2,540.6652335999534,None,3,xt17,4,2022-04-21_14h58.54.356,threat_forest,2021.2.3,60.10962800457097,
14,0,14,0,,,,,,,,,,,,,,,,,,,,,,,,,,,,,,,,,,,,547.7316399000119,None,2,xt17,4,2022-04-21_14h58.54.356,threat_forest,2021.2.3,60.10962800457097,
15,0,15,0,0,0,0,0,,,,,,,548.8704266001005,552.3816678998992,None,right,0.9787214999087155,553.69885289995,xt17,553.69885289995,None,548.8704266001005,552.3816678998992,False,4,['p'],True,0.375,0.5,0.25,1.0,1.0,0.9850568223215076,0.0,wait_cost,0,3,,,,xt17,4,2022-04-21_14h58.54.356,threat_forest,2021.2.3,60.10962800457097,
15,0,15,0,1,0,1,0,,,,,,,,,,left,1.6889174000825733,560.2156481000129,xt17,554.698784600012,556.6984343999065,560.2156481000129,None,False,3,['p'],False,0.2448979591836734,0.2857142857142857,0.1428571428571428,1.0,1.0,0.8400769154957735,-0.1428571428571428,wait_cost,1,2,556.6984343999065,None,3,xt17,4,2022-04-21_14h58.54.356,threat_forest,2021.2.3,60.10962800457097,
15,0,15,0,2,0,2,0,,,,,,,,,,right,1.3592302000615746,565.8658978999592,xt17,565.8658978999592,None,561.9321306999773,563.9317918999586,False,2,['p'],True,0.375,0.5,0.25,1.0,1.0,0.9850568223215076,-0.625,wait_cost,0,1,563.9317918999586,None,2,xt17,4,2022-04-21_14h58.54.356,threat_forest,2021.2.3,60.10962800457097,
15,0,15,0,3,0,3,0,,,,,,,,,,left,0.5414583999663591,571.7658557998948,xt17,571.7658557998948,None,561.9321306999773,563.9317918999586,True,1,['p'],True,0.375,0.5,0.25,1.0,1.0,0.9850568223215076,0.375,unsucc_cost,0,0,569.2486570000183,None,1,xt17,4,2022-04-21_14h58.54.356,threat_forest,2021.2.3,60.10962800457097,
15,0,15,0,,,,,,,,,,,,,,,,,,,,,,,,,,,,,,,,,,,,574.3321295999922,None,0,xt17,4,2022-04-21_14h58.54.356,threat_forest,2021.2.3,60.10962800457097,
16,0,16,0,0,0,0,0,,,,,,,575.441855299985,578.9487507999875,None,right,1.431740199914202,580.6010282000061,xt17,580.6010282000061,None,575.441855299985,578.9487507999875,False,4,['p'],True,0.4444444444444445,0.6666666666666666,0.3333333333333333,1.0,2.0,0.9656336071428248,0.0,wait_cost,0,3,,,,xt17,4,2022-04-21_14h58.54.356,threat_forest,2021.2.3,60.10962800457097,
16,0,16,0,1,0,1,0,,,,,,,,,,left,1.0528643000870943,587.5493357998785,xt17,587.5493357998785,None,575.441855299985,578.9487507999875,True,3,['p'],True,0.4444444444444445,0.6666666666666666,0.3333333333333333,1.0,2.0,0.9656336071428248,-0.3333333333333333,unsucc_cost,0,1,584.0488235000521,None,3,xt17,4,2022-04-21_14h58.54.356,threat_forest,2021.2.3,60.10962800457097,
16,0,16,0,2,0,2,0,,,,,,,,,,left,1.9230852001346648,592.1495145999361,xt17,592.1495145999361,None,575.441855299985,578.9487507999875,True,1,['p'],True,0.4444444444444445,0.6666666666666666,0.3333333333333333,1.0,2.0,0.9656336071428248,0.4444444444444444,fight_cost,0,0,590.6322470998857,None,1,xt17,4,2022-04-21_14h58.54.356,threat_forest,2021.2.3,60.10962800457097,
16,0,16,0,,,,,,,,,,,,,,,,,,,,,,,,,,,,,,,,,,,,596.0990311000496,None,0,xt17,4,2022-04-21_14h58.54.356,threat_forest,2021.2.3,60.10962800457097,
17,0,17,0,0,0,0,0,,,,,,,599.5228333999403,603.0324385999702,None,left,0.9124837999697775,606.2873378999066,xt17,599.5228333999403,603.0324385999702,606.2873378999066,None,False,4,['p'],False,0.16,0.2,0.2,2.0,1.0,0.8198746470064713,0.0,wait_cost,1,3,,,,xt17,4,2022-04-21_14h58.54.356,threat_forest,2021.2.3,60.10962800457097,
17,0,17,0,1,0,1,0,,,,,,,,,,left,1.8543209999334067,611.1161714000627,xt17,611.1161714000627,None,607.2327687998768,609.2325194999576,True,3,['p'],True,0.25,0.5,0.5,1.0,1.0,0.9463946303571862,-0.5,unsucc_cost,0,1,609.2325194999576,None,3,xt17,4,2022-04-21_14h58.54.356,threat_forest,2021.2.3,60.10962800457097,
17,0,17,0,2,0,2,0,,,,,,,,,,left,0.8350551999174058,615.8012876000721,xt17,612.999437399907,614.9997344999574,615.8012876000721,None,False,1,['p'],False,0.16,0.2,0.2,2.0,1.0,0.8198746470064713,0.1599999999999999,wait_cost,1,0,614.9997344999574,None,1,xt17,4,2022-04-21_14h58.54.356,threat_forest,2021.2.3,60.10962800457097,
17,0,17,0,,,,,,,,,,,,,,,,,,,,,,,,,,,,,,,,,,,,618.6661251999903,None,0,xt17,4,2022-04-21_14h58.54.356,threat_forest,2021.2.3,60.10962800457097,
