miniblock.thisRepN,miniblock.thisTrialN,miniblock.thisN,miniblock.thisIndex,day.thisRepN,day.thisTrialN,day.thisN,day.thisIndex,welcoming.started,welcoming.stopped,key_resp_2.keys,key_resp_2.rt,key_resp_2.started,key_resp_2.stopped,forest.started,fixation_forest.started,fixation_forest.stopped,key_resp.keys,key_resp.rt,key_resp.started,Subject_ID,weather_left.started,weather_left.stopped,weather_right.started,weather_right.stopped,foraging T/F,in_LP,p/r heuristic,good_weather.T/F,p_succ_correct,p_succ_uncorrected,r_threat,n_oponents,gain_if_succ,weather_entropy,OP_value_difference,action_outcome,forest_side_L=0_R=1,out_LP,fixation_day.started,fixation_day.stopped,n_day-1.out_LP.,participant,session,date,expName,psychopyVersion,frameRate,
,,,,,,,,5.768543004989624,None,space,2.8269670009613037,5.768543004989624,None,,,,,,,,,,,,,,,,,,,,,,,,,,,,,bh3,2,2023-04-04_10h17.26.911,threat_forest,2021.2.3,60.004177384327946,
0,0,0,0,0,0,0,0,,,,,,,8.631978034973145,12.139137983322144,None,right,1.5167598724365234,13.52181100845337,bh3,8.631978034973145,12.139137983322144,13.52181100845337,None,True,4,['r'],False,0.24,0.3,0.2,2.0,1.0,0.9003120349047065,0.0,succ_gain,1,5,,,,bh3,2,2023-04-04_10h17.26.911,threat_forest,2021.2.3,60.004177384327946,
0,0,0,0,1,0,1,0,,,,,,,,,,right,1.0373048782348633,19.38810896873474,bh3,19.38810896873474,None,15.06456995010376,17.07814884185791,False,5,['r'],True,0.375,0.5,0.25,1.0,1.0,0.9850568223215076,0.0,wait_cost,0,4,17.07814884185791,None,5,bh3,2,2023-04-04_10h17.26.911,threat_forest,2021.2.3,60.004177384327946,
0,0,0,0,2,0,2,0,,,,,,,,,,right,0.9698789119720459,23.28710103034973,bh3,23.28710103034973,None,15.06456995010376,17.07814884185791,False,4,['r'],True,0.375,0.5,0.25,1.0,1.0,0.9850568223215076,0.0,wait_cost,0,3,22.450533866882324,None,4,bh3,2,2023-04-04_10h17.26.911,threat_forest,2021.2.3,60.004177384327946,
0,0,0,0,3,0,3,0,,,,,,,,,,right,0.8800549507141113,29.058475017547607,bh3,29.058475017547607,None,15.06456995010376,17.07814884185791,False,3,['r'],True,0.375,0.5,0.25,1.0,1.0,0.9850568223215076,-0.25,wait_cost,0,2,26.288352012634277,None,3,bh3,2,2023-04-04_10h17.26.911,threat_forest,2021.2.3,60.004177384327946,
0,0,0,0,4,0,4,0,,,,,,,,,,right,1.1932148933410645,33.19844698905945,bh3,29.96119785308838,31.961359977722168,33.19844698905945,None,True,2,['r'],False,0.24,0.3,0.2,2.0,1.0,0.9003120349047065,-0.76,unsucc_cost,1,0,31.961359977722168,None,2,bh3,2,2023-04-04_10h17.26.911,threat_forest,2021.2.3,60.004177384327946,
0,0,0,0,,,,,,,,,,,,,,,,,,,,,,,,,,,,,,,,,,,,36.437084913253784,None,0,bh3,2,2023-04-04_10h17.26.911,threat_forest,2021.2.3,60.004177384327946,
1,0,1,0,0,0,0,0,,,,,,,38.636865854263306,42.14232802391052,None,right,0.7058038711547852,42.78082585334778,bh3,38.636865854263306,42.14232802391052,42.78082585334778,None,True,5,['r'],False,0.4444444444444445,0.6666666666666666,0.3333333333333333,2.0,2.0,0.9656336071428248,0.0,succ_gain,1,6,,,,bh3,2,2023-04-04_10h17.26.911,threat_forest,2021.2.3,60.004177384327946,
1,0,1,0,1,0,1,0,,,,,,,,,,right,1.215562105178833,46.70712399482727,bh3,38.636865854263306,42.14232802391052,46.70712399482727,None,True,6,['r'],False,0.4444444444444445,0.6666666666666666,0.3333333333333333,2.0,2.0,0.9656336071428248,0.0,succ_gain,1,6,45.52624988555908,None,6,bh3,2,2023-04-04_10h17.26.911,threat_forest,2021.2.3,60.004177384327946,
1,0,1,0,2,0,2,0,,,,,,,,,,left,1.2889220714569092,50.81139397621155,bh3,38.636865854263306,42.14232802391052,50.81139397621155,None,False,6,['r'],False,0.4444444444444445,0.6666666666666666,0.3333333333333333,2.0,2.0,0.9656336071428248,0.0,wait_cost,1,5,49.9478919506073,None,6,bh3,2,2023-04-04_10h17.26.911,threat_forest,2021.2.3,60.004177384327946,
1,0,1,0,3,0,3,0,,,,,,,,,,right,0.8147358894348145,56.61006689071655,bh3,56.61006689071655,None,52.12414598464966,54.128050804138184,False,5,['r'],True,0.6,0.6,0.0,0.0,2.0,0.6126016192893442,0.0,wait_cost,0,4,54.128050804138184,None,5,bh3,2,2023-04-04_10h17.26.911,threat_forest,2021.2.3,60.004177384327946,
1,0,1,0,4,0,4,0,,,,,,,,,,right,0.7007970809936523,63.11561584472656,bh3,57.4610059261322,59.46233892440796,63.11561584472656,None,True,4,['r'],False,0.4444444444444445,0.6666666666666666,0.3333333333333333,2.0,2.0,0.9656336071428248,0.0,succ_gain,1,6,59.46233892440796,None,4,bh3,2,2023-04-04_10h17.26.911,threat_forest,2021.2.3,60.004177384327946,
1,0,1,0,5,0,5,0,,,,,,,,,,right,0.7975180149078369,68.5909059047699,bh3,68.5909059047699,None,63.854700803756714,65.86556100845337,False,6,['r'],True,0.6,0.6,0.0,0.0,2.0,0.6126016192893442,0.0,wait_cost,0,5,65.86556100845337,None,6,bh3,2,2023-04-04_10h17.26.911,threat_forest,2021.2.3,60.004177384327946,
1,0,1,0,6,0,6,0,,,,,,,,,,right,0.8188831806182861,74.35728287696838,bh3,74.35728287696838,None,63.854700803756714,65.86556100845337,False,5,['r'],True,0.6,0.6,0.0,0.0,2.0,0.6126016192893442,0.0,wait_cost,0,4,71.42153596878052,None,5,bh3,2,2023-04-04_10h17.26.911,threat_forest,2021.2.3,60.004177384327946,
1,0,1,0,7,0,7,0,,,,,,,,,,left,1.3279259204864502,79.0602958202362,bh3,79.0602958202362,None,63.854700803756714,65.86556100845337,True,4,['r'],True,0.6,0.6,0.0,0.0,2.0,0.6126016192893442,0.0,unsucc_cost,0,2,77.19444799423218,None,4,bh3,2,2023-04-04_10h17.26.911,threat_forest,2021.2.3,60.004177384327946,
1,0,1,0,,,,,,,,,,,,,,,,,,,,,,,,,,,,,,,,,,,,82.436105966568,None,2,bh3,2,2023-04-04_10h17.26.911,threat_forest,2021.2.3,60.004177384327946,
2,0,2,0,0,0,0,0,,,,,,,83.4669418334961,86.97179198265076,None,right,1.4612040519714355,87.98239088058472,bh3,87.98239088058472,None,83.4669418334961,86.97179198265076,False,4,['p'],True,0.3333333333333333,0.3333333333333333,0.0,0.0,1.0,0.5793801642856949,0.0,wait_cost,0,3,,,,bh3,2,2023-04-04_10h17.26.911,threat_forest,2021.2.3,60.004177384327946,
2,0,2,0,1,0,1,0,,,,,,,,,,right,0.7346291542053223,94.48213386535645,bh3,89.47856903076172,91.49371695518494,94.48213386535645,None,True,3,['p'],False,0.2222222222222222,0.6666666666666666,0.6666666666666666,2.0,1.0,0.77250688571426,-0.6666666666666666,unsucc_cost,1,1,91.49371695518494,None,3,bh3,2,2023-04-04_10h17.26.911,threat_forest,2021.2.3,60.004177384327946,
2,0,2,0,2,0,2,0,,,,,,,,,,right,0.691309928894043,99.9631609916687,bh3,89.47856903076172,91.49371695518494,99.9631609916687,None,True,1,['p'],False,0.2222222222222222,0.6666666666666666,0.6666666666666666,2.0,1.0,0.77250688571426,0.2222222222222222,unsucc_cost,1,0,97.25043082237244,None,1,bh3,2,2023-04-04_10h17.26.911,threat_forest,2021.2.3,60.004177384327946,
2,0,2,0,,,,,,,,,,,,,,,,,,,,,,,,,,,,,,,,,,,,102.6930148601532,None,0,bh3,2,2023-04-04_10h17.26.911,threat_forest,2021.2.3,60.004177384327946,
3,0,3,0,0,0,0,0,,,,,,,104.09543180465698,107.59451985359192,None,right,1.3292999267578125,108.5881860256195,bh3,104.09543180465698,107.59451985359192,108.5881860256195,None,True,4,['r'],False,0.1728395061728395,0.2222222222222222,0.2222222222222222,2.0,2.0,0.8571721972794328,0.0,fight_cost,1,1,,,,bh3,2,2023-04-04_10h17.26.911,threat_forest,2021.2.3,60.004177384327946,
3,0,3,0,1,0,1,0,,,,,,,,,,right,0.7182080745697021,114.51424384117126,bh3,104.09543180465698,107.59451985359192,114.51424384117126,None,True,1,['r'],False,0.1728395061728395,0.2222222222222222,0.2222222222222222,2.0,2.0,0.8571721972794328,0.1728395061728395,succ_gain,1,3,111.96636700630188,None,1,bh3,2,2023-04-04_10h17.26.911,threat_forest,2021.2.3,60.004177384327946,
3,0,3,0,2,0,2,0,,,,,,,,,,right,0.7270569801330566,120.5342698097229,bh3,120.5342698097229,None,115.26088881492615,117.26566290855408,False,3,['r'],True,0.375,0.5,0.25,1.0,2.0,0.9850568223215076,-0.25,wait_cost,0,2,117.26566290855408,None,3,bh3,2,2023-04-04_10h17.26.911,threat_forest,2021.2.3,60.004177384327946,
3,0,3,0,3,0,3,0,,,,,,,,,,right,0.8502838611602783,126.18397784233093,bh3,126.18397784233093,None,115.26088881492615,117.26566290855408,False,2,['r'],True,0.375,0.5,0.25,1.0,2.0,0.9850568223215076,-0.625,wait_cost,0,1,123.29544496536255,None,2,bh3,2,2023-04-04_10h17.26.911,threat_forest,2021.2.3,60.004177384327946,
3,0,3,0,4,0,4,0,,,,,,,,,,left,1.3582770824432373,131.55546402931213,bh3,131.55546402931213,None,115.26088881492615,117.26566290855408,True,1,['r'],True,0.375,0.5,0.25,1.0,2.0,0.9850568223215076,0.375,unsucc_cost,0,0,129.0688669681549,None,1,bh3,2,2023-04-04_10h17.26.911,threat_forest,2021.2.3,60.004177384327946,
3,0,3,0,,,,,,,,,,,,,,,,,,,,,,,,,,,,,,,,,,,,134.94179391860962,None,0,bh3,2,2023-04-04_10h17.26.911,threat_forest,2021.2.3,60.004177384327946,
4,0,4,0,0,0,0,0,,,,,,,138.3007218837738,141.7992639541626,None,right,1.777169942855835,145.18218994140625,bh3,145.18218994140625,None,138.3007218837738,141.7992639541626,False,5,['p'],True,0.32,0.4,0.2,1.0,2.0,0.9455672104350704,0.0,wait_cost,0,4,,,,bh3,2,2023-04-04_10h17.26.911,threat_forest,2021.2.3,60.004177384327946,
4,0,4,0,1,0,1,0,,,,,,,,,,right,1.6361558437347412,152.4804449081421,bh3,146.99611687660217,149.00779390335083,152.4804449081421,None,True,4,['p'],False,0.1975308641975308,0.2222222222222222,0.1111111111111111,1.0,2.0,0.7461067557824965,0.0,unsucc_cost,1,2,149.00779390335083,None,4,bh3,2,2023-04-04_10h17.26.911,threat_forest,2021.2.3,60.004177384327946,
4,0,4,0,2,0,2,0,,,,,,,,,,right,1.0708742141723633,156.7010359764099,bh3,156.7010359764099,None,154.14961791038513,156.14872002601624,False,2,['p'],True,0.32,0.4,0.2,1.0,2.0,0.9455672104350704,-0.6799999999999999,wait_cost,0,1,156.14872002601624,None,2,bh3,2,2023-04-04_10h17.26.911,threat_forest,2021.2.3,60.004177384327946,
4,0,4,0,3,0,3,0,,,,,,,,,,right,0.8711349964141846,162.1246519088745,bh3,157.80548191070557,159.81926488876343,162.1246519088745,None,True,1,['p'],False,0.1975308641975308,0.2222222222222222,0.1111111111111111,1.0,2.0,0.7461067557824965,0.1975308641975308,unsucc_cost,1,0,159.81926488876343,None,1,bh3,2,2023-04-04_10h17.26.911,threat_forest,2021.2.3,60.004177384327946,
4,0,4,0,,,,,,,,,,,,,,,,,,,,,,,,,,,,,,,,,,,,165.02613401412964,None,0,bh3,2,2023-04-04_10h17.26.911,threat_forest,2021.2.3,60.004177384327946,
5,0,5,0,0,0,0,0,,,,,,,167.50300097465515,171.0147910118103,None,right,1.1350059509277344,172.47960901260376,bh3,172.47960901260376,None,167.50300097465515,171.0147910118103,False,4,['p'],True,0.375,0.5,0.25,1.0,1.0,0.9850568223215076,0.0,wait_cost,0,3,,,,bh3,2,2023-04-04_10h17.26.911,threat_forest,2021.2.3,60.004177384327946,
5,0,5,0,1,0,1,0,,,,,,,,,,right,1.1321539878845215,176.32440781593323,bh3,176.32440781593323,None,167.50300097465515,171.0147910118103,False,3,['p'],True,0.375,0.5,0.25,1.0,1.0,0.9850568223215076,-0.25,wait_cost,0,2,175.65330982208252,None,3,bh3,2,2023-04-04_10h17.26.911,threat_forest,2021.2.3,60.004177384327946,
5,0,5,0,2,0,2,0,,,,,,,,,,right,0.7420809268951416,180.61008095741272,bh3,177.49195003509521,179.4907078742981,180.61008095741272,None,True,2,['p'],False,0.16,0.2,0.2,2.0,1.0,0.8198746470064713,-0.8400000000000001,succ_gain,1,3,179.4907078742981,None,2,bh3,2,2023-04-04_10h17.26.911,threat_forest,2021.2.3,60.004177384327946,
5,0,5,0,3,0,3,0,,,,,,,,,,right,1.4813470840454102,184.4407160282135,bh3,177.49195003509521,179.4907078742981,184.4407160282135,None,True,3,['p'],False,0.16,0.2,0.2,2.0,1.0,0.8198746470064713,-0.2,unsucc_cost,1,1,183.395085811615,None,3,bh3,2,2023-04-04_10h17.26.911,threat_forest,2021.2.3,60.004177384327946,
5,0,5,0,4,0,4,0,,,,,,,,,,right,0.8438720703125,189.24741196632385,bh3,177.49195003509521,179.4907078742981,189.24741196632385,None,True,1,['p'],False,0.16,0.2,0.2,2.0,1.0,0.8198746470064713,0.1599999999999999,succ_gain,1,2,187.96717500686646,None,1,bh3,2,2023-04-04_10h17.26.911,threat_forest,2021.2.3,60.004177384327946,
5,0,5,0,5,0,5,0,,,,,,,,,,right,1.0349678993225098,195.03757095336914,bh3,177.49195003509521,179.4907078742981,195.03757095336914,None,True,2,['p'],False,0.16,0.2,0.2,2.0,1.0,0.8198746470064713,-0.8400000000000001,succ_gain,1,3,192.13841795921326,None,2,bh3,2,2023-04-04_10h17.26.911,threat_forest,2021.2.3,60.004177384327946,
5,0,5,0,6,0,6,0,,,,,,,,,,right,0.922760009765625,198.80016684532166,bh3,198.80016684532166,None,196.09551000595093,198.09516096115112,False,3,['p'],True,0.375,0.5,0.25,1.0,1.0,0.9850568223215076,-0.25,wait_cost,0,2,198.09516096115112,None,3,bh3,2,2023-04-04_10h17.26.911,threat_forest,2021.2.3,60.004177384327946,
5,0,5,0,7,0,7,0,,,,,,,,,,right,0.6548140048980713,203.56601095199585,bh3,203.56601095199585,None,196.09551000595093,198.09516096115112,False,2,['p'],True,0.375,0.5,0.25,1.0,1.0,0.9850568223215076,-0.625,wait_cost,0,1,201.7490110397339,None,2,bh3,2,2023-04-04_10h17.26.911,threat_forest,2021.2.3,60.004177384327946,
5,0,5,0,,,,,,,,,,,,,,,,,,,,,,,,,,,,,,,,,,,,206.25392603874207,None,1,bh3,2,2023-04-04_10h17.26.911,threat_forest,2021.2.3,60.004177384327946,
6,0,6,0,0,0,0,0,,,,,,,209.89462089538574,213.39465284347534,None,left,1.0785889625549316,217.10601496696472,bh3,217.10601496696472,None,209.89462089538574,213.39465284347534,True,5,['p'],True,0.4444444444444445,0.6666666666666666,0.3333333333333333,1.0,2.0,0.9656336071428248,0.0,succ_gain,0,6,,,,bh3,2,2023-04-04_10h17.26.911,threat_forest,2021.2.3,60.004177384327946,
6,0,6,0,1,0,1,0,,,,,,,,,,right,0.748183012008667,222.77021098136902,bh3,222.77021098136902,None,209.89462089538574,213.39465284347534,False,6,['p'],True,0.4444444444444445,0.6666666666666666,0.3333333333333333,1.0,2.0,0.9656336071428248,0.0,wait_cost,0,5,220.23602390289307,None,6,bh3,2,2023-04-04_10h17.26.911,threat_forest,2021.2.3,60.004177384327946,
6,0,6,0,2,0,2,0,,,,,,,,,,right,0.5954699516296387,227.17475080490112,bh3,227.17475080490112,None,209.89462089538574,213.39465284347534,False,5,['p'],True,0.4444444444444445,0.6666666666666666,0.3333333333333333,1.0,2.0,0.9656336071428248,0.0,wait_cost,0,4,225.54203987121582,None,5,bh3,2,2023-04-04_10h17.26.911,threat_forest,2021.2.3,60.004177384327946,
6,0,6,0,3,0,3,0,,,,,,,,,,left,1.0319669246673584,231.98847794532776,bh3,227.80178594589233,229.8138198852539,231.98847794532776,None,False,4,['p'],False,0.2040816326530612,0.2857142857142857,0.2857142857142857,2.0,2.0,0.9335459102197724,0.0,wait_cost,1,3,229.8138198852539,None,4,bh3,2,2023-04-04_10h17.26.911,threat_forest,2021.2.3,60.004177384327946,
6,0,6,0,4,0,4,0,,,,,,,,,,left,1.150376796722412,237.0214138031006,bh3,237.0214138031006,None,233.05313801765442,235.05250096321106,True,3,['p'],True,0.4444444444444445,0.6666666666666666,0.3333333333333333,1.0,2.0,0.9656336071428248,-0.3333333333333333,succ_gain,0,5,235.05250096321106,None,3,bh3,2,2023-04-04_10h17.26.911,threat_forest,2021.2.3,60.004177384327946,
6,0,6,0,5,0,5,0,,,,,,,,,,right,0.7929160594940186,240.77205300331116,bh3,240.77205300331116,None,233.05313801765442,235.05250096321106,False,5,['p'],True,0.4444444444444445,0.6666666666666666,0.3333333333333333,1.0,2.0,0.9656336071428248,0.0,wait_cost,0,4,240.19651794433594,None,5,bh3,2,2023-04-04_10h17.26.911,threat_forest,2021.2.3,60.004177384327946,
6,0,6,0,6,0,6,0,,,,,,,,,,left,1.173609972000122,246.95244693756104,bh3,241.60020899772644,243.61173796653748,246.95244693756104,None,False,4,['p'],False,0.2040816326530612,0.2857142857142857,0.2857142857142857,2.0,2.0,0.9335459102197724,0.0,wait_cost,1,3,243.61173796653748,None,4,bh3,2,2023-04-04_10h17.26.911,threat_forest,2021.2.3,60.004177384327946,
6,0,6,0,7,0,7,0,,,,,,,,,,right,0.6982388496398926,253.43876886367798,bh3,253.43876886367798,None,248.15229201316833,250.15239596366882,False,3,['p'],True,0.4444444444444445,0.6666666666666666,0.3333333333333333,1.0,2.0,0.9656336071428248,-0.3333333333333333,wait_cost,0,2,250.15239596366882,None,3,bh3,2,2023-04-04_10h17.26.911,threat_forest,2021.2.3,60.004177384327946,
6,0,6,0,,,,,,,,,,,,,,,,,,,,,,,,,,,,,,,,,,,,256.17787885665894,None,2,bh3,2,2023-04-04_10h17.26.911,threat_forest,2021.2.3,60.004177384327946,
7,0,7,0,0,0,0,0,,,,,,,258.96659994125366,262.46351981163025,None,right,1.6523780822753906,264.5610818862915,bh3,264.5610818862915,None,258.96659994125366,262.46351981163025,False,5,['p'],True,0.5,0.5,0.0,0.0,2.0,0.6309297535714574,0.0,wait_cost,0,4,,,,bh3,2,2023-04-04_10h17.26.911,threat_forest,2021.2.3,60.004177384327946,
7,0,7,0,1,0,1,0,,,,,,,,,,right,0.8733828067779541,269.2898659706116,bh3,269.2898659706116,None,258.96659994125366,262.46351981163025,False,4,['p'],True,0.5,0.5,0.0,0.0,2.0,0.6309297535714574,0.0,wait_cost,0,3,268.25586199760437,None,4,bh3,2,2023-04-04_10h17.26.911,threat_forest,2021.2.3,60.004177384327946,
7,0,7,0,2,0,2,0,,,,,,,,,,right,0.8850150108337402,273.13103580474854,bh3,270.1938669681549,272.1934280395508,273.13103580474854,None,True,3,['p'],False,0.4081632653061224,0.5714285714285714,0.2857142857142857,2.0,2.0,0.9885754083994552,-0.2857142857142857,unsucc_cost,1,1,272.1934280395508,None,3,bh3,2,2023-04-04_10h17.26.911,threat_forest,2021.2.3,60.004177384327946,
7,0,7,0,3,0,3,0,,,,,,,,,,left,0.9256749153137207,278.5058479309082,bh3,278.5058479309082,None,274.0522418022156,276.06476187705994,True,1,['p'],True,0.5,0.5,0.0,0.0,2.0,0.6309297535714574,0.5,succ_gain,0,3,276.06476187705994,None,1,bh3,2,2023-04-04_10h17.26.911,threat_forest,2021.2.3,60.004177384327946,
7,0,7,0,4,0,4,0,,,,,,,,,,left,1.957888126373291,283.369735956192,bh3,283.369735956192,None,274.0522418022156,276.06476187705994,True,3,['p'],True,0.5,0.5,0.0,0.0,2.0,0.6309297535714574,0.0,fight_cost,0,0,281.4704329967499,None,3,bh3,2,2023-04-04_10h17.26.911,threat_forest,2021.2.3,60.004177384327946,
7,0,7,0,,,,,,,,,,,,,,,,,,,,,,,,,,,,,,,,,,,,287.37702894210815,None,0,bh3,2,2023-04-04_10h17.26.911,threat_forest,2021.2.3,60.004177384327946,
8,0,8,0,0,0,0,0,,,,,,,291.18347001075745,294.6856210231781,None,right,1.704822063446045,296.9501328468323,bh3,296.9501328468323,None,291.18347001075745,294.6856210231781,False,5,['p'],True,0.4166666666666667,0.5,0.1666666666666666,1.0,2.0,0.9358932809493992,0.0,wait_cost,0,4,,,,bh3,2,2023-04-04_10h17.26.911,threat_forest,2021.2.3,60.004177384327946,
8,0,8,0,1,0,1,0,,,,,,,,,,right,0.8596189022064209,303.2661259174347,bh3,298.67606592178345,300.67463397979736,303.2661259174347,None,True,4,['p'],False,0.2962962962962963,0.3333333333333333,0.1111111111111111,1.0,2.0,0.8325252476189534,0.0,succ_gain,1,6,300.67463397979736,None,4,bh3,2,2023-04-04_10h17.26.911,threat_forest,2021.2.3,60.004177384327946,
8,0,8,0,2,0,2,0,,,,,,,,,,right,0.8889188766479492,309.3896038532257,bh3,309.3896038532257,None,304.1630058288574,306.16449093818665,False,6,['p'],True,0.4166666666666667,0.5,0.1666666666666666,1.0,2.0,0.9358932809493992,0.0,wait_cost,0,5,306.16449093818665,None,6,bh3,2,2023-04-04_10h17.26.911,threat_forest,2021.2.3,60.004177384327946,
8,0,8,0,3,0,3,0,,,,,,,,,,left,2.007215976715088,313.8123619556427,bh3,310.3062379360199,312.31027388572693,313.8123619556427,None,False,5,['p'],False,0.2962962962962963,0.3333333333333333,0.1111111111111111,1.0,2.0,0.8325252476189534,0.0,wait_cost,1,4,312.31027388572693,None,5,bh3,2,2023-04-04_10h17.26.911,threat_forest,2021.2.3,60.004177384327946,
8,0,8,0,4,0,4,0,,,,,,,,,,right,0.8656649589538574,321.1485538482666,bh3,310.3062379360199,312.31027388572693,321.1485538482666,None,True,4,['p'],False,0.2962962962962963,0.3333333333333333,0.1111111111111111,1.0,2.0,0.8325252476189534,0.0,succ_gain,1,6,317.8440399169922,None,4,bh3,2,2023-04-04_10h17.26.911,threat_forest,2021.2.3,60.004177384327946,
8,0,8,0,5,0,5,0,,,,,,,,,,right,0.8468167781829834,325.6587448120117,bh3,325.6587448120117,None,322.03439497947693,324.0336449146271,False,6,['p'],True,0.4166666666666667,0.5,0.1666666666666666,1.0,2.0,0.9358932809493992,0.0,wait_cost,0,5,324.0336449146271,None,6,bh3,2,2023-04-04_10h17.26.911,threat_forest,2021.2.3,60.004177384327946,
8,0,8,0,6,0,6,0,,,,,,,,,,left,1.2292962074279785,329.2088768482208,bh3,326.5298488140106,328.53881192207336,329.2088768482208,None,False,5,['p'],False,0.2962962962962963,0.3333333333333333,0.1111111111111111,1.0,2.0,0.8325252476189534,0.0,wait_cost,1,4,328.53881192207336,None,5,bh3,2,2023-04-04_10h17.26.911,threat_forest,2021.2.3,60.004177384327946,
8,0,8,0,7,0,7,0,,,,,,,,,,left,0.9412961006164551,335.86093401908875,bh3,326.5298488140106,328.53881192207336,335.86093401908875,None,False,4,['p'],False,0.2962962962962963,0.3333333333333333,0.1111111111111111,1.0,2.0,0.8325252476189534,0.0,wait_cost,1,3,332.4767439365387,None,4,bh3,2,2023-04-04_10h17.26.911,threat_forest,2021.2.3,60.004177384327946,
8,0,8,0,,,,,,,,,,,,,,,,,,,,,,,,,,,,,,,,,,,,338.8598668575287,None,3,bh3,2,2023-04-04_10h17.26.911,threat_forest,2021.2.3,60.004177384327946,
9,0,9,0,0,0,0,0,,,,,,,342.5569899082184,346.0580668449402,None,left,1.4427540302276611,346.9040958881378,bh3,342.5569899082184,346.0580668449402,346.9040958881378,None,False,5,['r'],False,0.2448979591836734,0.2857142857142857,0.1428571428571428,1.0,1.0,0.8400769154957735,0.0,wait_cost,1,4,,,,bh3,2,2023-04-04_10h17.26.911,threat_forest,2021.2.3,60.004177384327946,
9,0,9,0,1,0,1,0,,,,,,,,,,left,1.314054012298584,351.9491398334503,bh3,342.5569899082184,346.0580668449402,351.9491398334503,None,False,4,['r'],False,0.2448979591836734,0.2857142857142857,0.1428571428571428,1.0,1.0,0.8400769154957735,0.0,wait_cost,1,3,350.3966238498688,None,4,bh3,2,2023-04-04_10h17.26.911,threat_forest,2021.2.3,60.004177384327946,
9,0,9,0,2,0,2,0,,,,,,,,,,left,0.8199560642242432,355.83736395835876,bh3,355.83736395835876,None,353.2881188392639,355.2855398654938,True,3,['r'],True,0.375,0.5,0.25,1.0,1.0,0.9850568223215076,-0.25,unsucc_cost,0,1,355.2855398654938,None,3,bh3,2,2023-04-04_10h17.26.911,threat_forest,2021.2.3,60.004177384327946,
9,0,9,0,3,0,3,0,,,,,,,,,,right,0.7752749919891357,362.230437040329,bh3,356.6906659603119,358.7058198451996,362.230437040329,None,True,1,['r'],False,0.2448979591836734,0.2857142857142857,0.1428571428571428,1.0,1.0,0.8400769154957735,0.2448979591836735,succ_gain,1,2,358.7058198451996,None,1,bh3,2,2023-04-04_10h17.26.911,threat_forest,2021.2.3,60.004177384327946,
9,0,9,0,4,0,4,0,,,,,,,,,,left,1.3924870491027832,367.5304329395294,bh3,356.6906659603119,358.7058198451996,367.5304329395294,None,False,2,['r'],False,0.2448979591836734,0.2857142857142857,0.1428571428571428,1.0,1.0,0.8400769154957735,-0.7551020408163265,wait_cost,1,1,365.04547595977783,None,2,bh3,2,2023-04-04_10h17.26.911,threat_forest,2021.2.3,60.004177384327946,
9,0,9,0,5,0,5,0,,,,,,,,,,left,0.8807210922241211,373.2883689403534,bh3,373.2883689403534,None,368.95291090011597,370.9524869918823,True,1,['r'],True,0.375,0.5,0.25,1.0,1.0,0.9850568223215076,0.375,succ_gain,0,2,370.9524869918823,None,1,bh3,2,2023-04-04_10h17.26.911,threat_forest,2021.2.3,60.004177384327946,
9,0,9,0,6,0,6,0,,,,,,,,,,left,1.0318520069122314,377.4633598327637,bh3,374.19608783721924,376.2086248397827,377.4633598327637,None,False,2,['r'],False,0.2448979591836734,0.2857142857142857,0.1428571428571428,1.0,1.0,0.8400769154957735,-0.7551020408163265,wait_cost,1,1,376.2086248397827,None,2,bh3,2,2023-04-04_10h17.26.911,threat_forest,2021.2.3,60.004177384327946,
9,0,9,0,7,0,7,0,,,,,,,,,,right,1.0289008617401123,382.8280119895935,bh3,374.19608783721924,376.2086248397827,382.8280119895935,None,True,1,['r'],False,0.2448979591836734,0.2857142857142857,0.1428571428571428,1.0,1.0,0.8400769154957735,0.2448979591836735,unsucc_cost,1,0,380.52994990348816,None,1,bh3,2,2023-04-04_10h17.26.911,threat_forest,2021.2.3,60.004177384327946,
9,0,9,0,,,,,,,,,,,,,,,,,,,,,,,,,,,,,,,,,,,,385.8969478607178,None,0,bh3,2,2023-04-04_10h17.26.911,threat_forest,2021.2.3,60.004177384327946,
10,0,10,0,0,0,0,0,,,,,,,387.4576590061188,390.9575548171997,None,left,0.8918850421905518,391.73438692092896,bh3,391.73438692092896,None,387.4576590061188,390.9575548171997,True,5,['r'],True,0.375,0.5,0.25,1.0,2.0,0.9850568223215076,0.0,fight_cost,0,2,,,,bh3,2,2023-04-04_10h17.26.911,threat_forest,2021.2.3,60.004177384327946,
10,0,10,0,1,0,1,0,,,,,,,,,,left,0.6124260425567627,398.0970299243927,bh3,398.0970299243927,None,387.4576590061188,390.9575548171997,True,2,['r'],True,0.375,0.5,0.25,1.0,2.0,0.9850568223215076,-0.625,succ_gain,0,4,394.66218090057373,None,2,bh3,2,2023-04-04_10h17.26.911,threat_forest,2021.2.3,60.004177384327946,
10,0,10,0,2,0,2,0,,,,,,,,,,left,1.1533589363098145,402.92563796043396,bh3,398.7390010356903,400.7523789405823,402.92563796043396,None,False,4,['r'],False,0.2448979591836734,0.2857142857142857,0.1428571428571428,1.0,2.0,0.8400769154957735,0.0,wait_cost,1,3,400.7523789405823,None,4,bh3,2,2023-04-04_10h17.26.911,threat_forest,2021.2.3,60.004177384327946,
10,0,10,0,3,0,3,0,,,,,,,,,,left,0.7192909717559814,409.5424020290375,bh3,398.7390010356903,400.7523789405823,409.5424020290375,None,False,3,['r'],False,0.2448979591836734,0.2857142857142857,0.1428571428571428,1.0,2.0,0.8400769154957735,-0.1428571428571428,wait_cost,1,2,406.1248469352722,None,3,bh3,2,2023-04-04_10h17.26.911,threat_forest,2021.2.3,60.004177384327946,
10,0,10,0,4,0,4,0,,,,,,,,,,left,0.9738259315490723,412.9700698852539,bh3,412.9700698852539,None,410.29054594039917,412.2981448173523,True,2,['r'],True,0.375,0.5,0.25,1.0,2.0,0.9850568223215076,-0.625,succ_gain,0,4,412.2981448173523,None,2,bh3,2,2023-04-04_10h17.26.911,threat_forest,2021.2.3,60.004177384327946,
10,0,10,0,5,0,5,0,,,,,,,,,,left,0.5649271011352539,417.97448086738586,bh3,413.9738190174103,415.98565697669983,417.97448086738586,None,False,4,['r'],False,0.2448979591836734,0.2857142857142857,0.1428571428571428,1.0,2.0,0.8400769154957735,0.0,wait_cost,1,3,415.98565697669983,None,4,bh3,2,2023-04-04_10h17.26.911,threat_forest,2021.2.3,60.004177384327946,
10,0,10,0,6,0,6,0,,,,,,,,,,right,0.8850209712982178,423.0443308353424,bh3,423.0443308353424,None,418.5763478279114,420.5824840068817,False,3,['r'],True,0.375,0.5,0.25,1.0,2.0,0.9850568223215076,-0.25,wait_cost,0,2,420.5824840068817,None,3,bh3,2,2023-04-04_10h17.26.911,threat_forest,2021.2.3,60.004177384327946,
10,0,10,0,7,0,7,0,,,,,,,,,,left,0.6676828861236572,427.36754298210144,bh3,423.9653730392456,425.9803259372711,427.36754298210144,None,False,2,['r'],False,0.2448979591836734,0.2857142857142857,0.1428571428571428,1.0,2.0,0.8400769154957735,-0.7551020408163265,wait_cost,1,1,425.9803259372711,None,2,bh3,2,2023-04-04_10h17.26.911,threat_forest,2021.2.3,60.004177384327946,
10,0,10,0,,,,,,,,,,,,,,,,,,,,,,,,,,,,,,,,,,,,430.06893587112427,None,1,bh3,2,2023-04-04_10h17.26.911,threat_forest,2021.2.3,60.004177384327946,
11,0,11,0,0,0,0,0,,,,,,,431.5585768222809,435.07321882247925,None,left,0.667557954788208,438.8493049144745,bh3,438.8493049144745,None,431.5585768222809,435.07321882247925,True,5,['p'],True,0.5,0.5,0.0,0.0,1.0,0.6309297535714574,0.0,succ_gain,0,6,,,,bh3,2,2023-04-04_10h17.26.911,threat_forest,2021.2.3,60.004177384327946,
11,0,11,0,1,0,1,0,,,,,,,,,,right,1.851505994796753,443.95128083229065,bh3,443.95128083229065,None,431.5585768222809,435.07321882247925,False,6,['p'],True,0.5,0.5,0.0,0.0,1.0,0.6309297535714574,0.0,wait_cost,0,5,441.547269821167,None,6,bh3,2,2023-04-04_10h17.26.911,threat_forest,2021.2.3,60.004177384327946,
11,0,11,0,2,0,2,0,,,,,,,,,,right,0.47516417503356934,451.0279939174652,bh3,445.8381860256195,447.83759093284607,451.0279939174652,None,True,5,['p'],False,0.4081632653061224,0.5714285714285714,0.2857142857142857,2.0,1.0,0.9885754083994552,0.0,unsucc_cost,1,3,447.83759093284607,None,5,bh3,2,2023-04-04_10h17.26.911,threat_forest,2021.2.3,60.004177384327946,
11,0,11,0,3,0,3,0,,,,,,,,,,right,0.7066080570220947,456.66065883636475,bh3,445.8381860256195,447.83759093284607,456.66065883636475,None,True,3,['p'],False,0.4081632653061224,0.5714285714285714,0.2857142857142857,2.0,1.0,0.9885754083994552,-0.2857142857142857,succ_gain,1,4,453.5269889831543,None,3,bh3,2,2023-04-04_10h17.26.911,threat_forest,2021.2.3,60.004177384327946,
11,0,11,0,4,0,4,0,,,,,,,,,,right,1.0721321105957031,459.9629228115082,bh3,445.8381860256195,447.83759093284607,459.9629228115082,None,True,4,['p'],False,0.4081632653061224,0.5714285714285714,0.2857142857142857,2.0,1.0,0.9885754083994552,0.0,unsucc_cost,1,2,459.40329694747925,None,4,bh3,2,2023-04-04_10h17.26.911,threat_forest,2021.2.3,60.004177384327946,
11,0,11,0,5,0,5,0,,,,,,,,,,right,0.9876730442047119,465.6712520122528,bh3,445.8381860256195,447.83759093284607,465.6712520122528,None,True,2,['p'],False,0.4081632653061224,0.5714285714285714,0.2857142857142857,2.0,1.0,0.9885754083994552,-0.5918367346938775,unsucc_cost,1,0,463.0887129306793,None,2,bh3,2,2023-04-04_10h17.26.911,threat_forest,2021.2.3,60.004177384327946,
11,0,11,0,,,,,,,,,,,,,,,,,,,,,,,,,,,,,,,,,,,,468.68097496032715,None,0,bh3,2,2023-04-04_10h17.26.911,threat_forest,2021.2.3,60.004177384327946,
12,0,12,0,0,0,0,0,,,,,,,471.33427596092224,474.83321380615234,None,left,1.1547160148620605,476.8110568523407,bh3,476.8110568523407,None,471.33427596092224,474.83321380615234,True,5,['p'],True,0.4444444444444445,0.6666666666666666,0.3333333333333333,1.0,2.0,0.9656336071428248,0.0,unsucc_cost,0,3,,,,bh3,2,2023-04-04_10h17.26.911,threat_forest,2021.2.3,60.004177384327946,
12,0,12,0,1,0,1,0,,,,,,,,,,left,0.8316240310668945,481.9705538749695,bh3,481.9705538749695,None,471.33427596092224,474.83321380615234,True,3,['p'],True,0.4444444444444445,0.6666666666666666,0.3333333333333333,1.0,2.0,0.9656336071428248,-0.3333333333333333,succ_gain,0,5,480.00645780563354,None,3,bh3,2,2023-04-04_10h17.26.911,threat_forest,2021.2.3,60.004177384327946,
12,0,12,0,2,0,2,0,,,,,,,,,,right,0.8389811515808105,488.57932686805725,bh3,488.57932686805725,None,471.33427596092224,474.83321380615234,False,5,['p'],True,0.4444444444444445,0.6666666666666666,0.3333333333333333,1.0,2.0,0.9656336071428248,0.0,wait_cost,0,4,484.829195022583,None,5,bh3,2,2023-04-04_10h17.26.911,threat_forest,2021.2.3,60.004177384327946,
12,0,12,0,3,0,3,0,,,,,,,,,,right,1.2541899681091309,492.01566791534424,bh3,492.01566791534424,None,471.33427596092224,474.83321380615234,False,4,['p'],True,0.4444444444444445,0.6666666666666666,0.3333333333333333,1.0,2.0,0.9656336071428248,0.0,wait_cost,0,3,491.45986795425415,None,4,bh3,2,2023-04-04_10h17.26.911,threat_forest,2021.2.3,60.004177384327946,
12,0,12,0,4,0,4,0,,,,,,,,,,left,0.9197540283203125,497.09785890579224,bh3,493.29430890083313,495.3067309856415,497.09785890579224,None,False,3,['p'],False,0.2592592592592592,0.3333333333333333,0.2222222222222222,2.0,2.0,0.9327883776363324,-0.2222222222222222,wait_cost,1,2,495.3067309856415,None,3,bh3,2,2023-04-04_10h17.26.911,threat_forest,2021.2.3,60.004177384327946,
12,0,12,0,5,0,5,0,,,,,,,,,,left,1.127101182937622,503.7473158836365,bh3,493.29430890083313,495.3067309856415,503.7473158836365,None,False,2,['p'],False,0.2592592592592592,0.3333333333333333,0.2222222222222222,2.0,2.0,0.9327883776363324,-0.7407407407407408,wait_cost,1,1,500.0618050098419,None,2,bh3,2,2023-04-04_10h17.26.911,threat_forest,2021.2.3,60.004177384327946,
12,0,12,0,6,0,6,0,,,,,,,,,,right,1.3869221210479736,509.0215108394623,bh3,493.29430890083313,495.3067309856415,509.0215108394623,None,True,1,['p'],False,0.2592592592592592,0.3333333333333333,0.2222222222222222,2.0,2.0,0.9327883776363324,0.2592592592592592,succ_gain,1,3,506.91935300827026,None,1,bh3,2,2023-04-04_10h17.26.911,threat_forest,2021.2.3,60.004177384327946,
12,0,12,0,7,0,7,0,,,,,,,,,,right,0.9875490665435791,515.6291108131409,bh3,515.6291108131409,None,510.4458649158478,512.4587819576263,False,3,['p'],True,0.4444444444444445,0.6666666666666666,0.3333333333333333,1.0,2.0,0.9656336071428248,-0.3333333333333333,wait_cost,0,2,512.4587819576263,None,3,bh3,2,2023-04-04_10h17.26.911,threat_forest,2021.2.3,60.004177384327946,
12,0,12,0,,,,,,,,,,,,,,,,,,,,,,,,,,,,,,,,,,,,518.6688408851624,None,2,bh3,2,2023-04-04_10h17.26.911,threat_forest,2021.2.3,60.004177384327946,
13,0,13,0,0,0,0,0,,,,,,,520.8199269771576,524.3200209140778,None,right,1.4889330863952637,524.9792430400848,bh3,524.9792430400848,None,520.8199269771576,524.3200209140778,False,4,['p'],True,0.5,0.5,0.0,0.0,1.0,0.6309297535714574,0.0,wait_cost,0,3,,,,bh3,2,2023-04-04_10h17.26.911,threat_forest,2021.2.3,60.004177384327946,
13,0,13,0,1,0,1,0,,,,,,,,,,right,0.9936339855194092,529.8139989376068,bh3,526.4993789196014,528.5102570056915,529.8139989376068,None,True,3,['p'],False,0.36,0.6,0.4,2.0,1.0,0.9801625908629508,-0.4,unsucc_cost,1,1,528.5102570056915,None,3,bh3,2,2023-04-04_10h17.26.911,threat_forest,2021.2.3,60.004177384327946,
13,0,13,0,2,0,2,0,,,,,,,,,,right,0.7262818813323975,533.8641798496246,bh3,526.4993789196014,528.5102570056915,533.8641798496246,None,True,1,['p'],False,0.36,0.6,0.4,2.0,1.0,0.9801625908629508,0.36,fight_cost,1,0,532.8480880260468,None,1,bh3,2,2023-04-04_10h17.26.911,threat_forest,2021.2.3,60.004177384327946,
13,0,13,0,,,,,,,,,,,,,,,,,,,,,,,,,,,,,,,,,,,,536.6199758052826,None,0,bh3,2,2023-04-04_10h17.26.911,threat_forest,2021.2.3,60.004177384327946,
14,0,14,0,0,0,0,0,,,,,,,539.7251808643341,543.2345538139343,None,right,1.7521748542785645,545.004068851471,bh3,539.7251808643341,543.2345538139343,545.004068851471,None,True,4,['r'],False,0.25,0.5,0.5,2.0,1.0,0.9463946303571862,0.0,unsucc_cost,1,2,,,,bh3,2,2023-04-04_10h17.26.911,threat_forest,2021.2.3,60.004177384327946,
14,0,14,0,1,0,1,0,,,,,,,,,,left,0.7515311241149902,552.3383510112762,bh3,552.3383510112762,None,546.7847509384155,548.7874529361725,True,2,['r'],True,0.3333333333333333,0.3333333333333333,0.0,0.0,1.0,0.5793801642856949,-0.6666666666666667,unsucc_cost,0,0,548.7874529361725,None,2,bh3,2,2023-04-04_10h17.26.911,threat_forest,2021.2.3,60.004177384327946,
14,0,14,0,,,,,,,,,,,,,,,,,,,,,,,,,,,,,,,,,,,,555.1442918777466,None,0,bh3,2,2023-04-04_10h17.26.911,threat_forest,2021.2.3,60.004177384327946,
15,0,15,0,0,0,0,0,,,,,,,558.2299108505249,561.7299249172211,None,right,1.0869140625,563.6239140033722,bh3,563.6239140033722,None,558.2299108505249,561.7299249172211,False,5,['p'],True,0.4,0.4,0.0,0.0,1.0,0.6126016192893442,0.0,wait_cost,0,4,,,,bh3,2,2023-04-04_10h17.26.911,threat_forest,2021.2.3,60.004177384327946,
15,0,15,0,1,0,1,0,,,,,,,,,,left,0.9045860767364502,569.7864708900452,bh3,569.7864708900452,None,558.2299108505249,561.7299249172211,True,4,['p'],True,0.4,0.4,0.0,0.0,1.0,0.6126016192893442,0.0,unsucc_cost,0,2,566.7523508071899,None,4,bh3,2,2023-04-04_10h17.26.911,threat_forest,2021.2.3,60.004177384327946,
15,0,15,0,2,0,2,0,,,,,,,,,,left,2.0000741481781006,575.3502759933472,bh3,570.7295999526978,572.7422118186951,575.3502759933472,None,False,2,['p'],False,0.3061224489795918,0.4285714285714285,0.2857142857142857,2.0,1.0,0.9885754083994552,-0.6938775510204083,wait_cost,1,1,572.7422118186951,None,2,bh3,2,2023-04-04_10h17.26.911,threat_forest,2021.2.3,60.004177384327946,
15,0,15,0,3,0,3,0,,,,,,,,,,right,1.4365620613098145,580.965117931366,bh3,570.7295999526978,572.7422118186951,580.965117931366,None,True,1,['p'],False,0.3061224489795918,0.4285714285714285,0.2857142857142857,2.0,1.0,0.9885754083994552,0.3061224489795917,unsucc_cost,1,0,579.3826198577881,None,1,bh3,2,2023-04-04_10h17.26.911,threat_forest,2021.2.3,60.004177384327946,
15,0,15,0,,,,,,,,,,,,,,,,,,,,,,,,,,,,,,,,,,,,584.4387879371643,None,0,bh3,2,2023-04-04_10h17.26.911,threat_forest,2021.2.3,60.004177384327946,
16,0,16,0,0,0,0,0,,,,,,,585.6927800178528,589.1911399364471,None,left,0.915924072265625,591.7855498790741,bh3,591.7855498790741,None,585.6927800178528,589.1911399364471,True,5,['r'],True,0.4444444444444445,0.6666666666666666,0.3333333333333333,1.0,1.0,0.9656336071428248,0.0,succ_gain,0,6,,,,bh3,2,2023-04-04_10h17.26.911,threat_forest,2021.2.3,60.004177384327946,
16,0,16,0,1,0,1,0,,,,,,,,,,right,0.979119062423706,596.0320658683777,bh3,596.0320658683777,None,585.6927800178528,589.1911399364471,False,6,['r'],True,0.4444444444444445,0.6666666666666666,0.3333333333333333,1.0,1.0,0.9656336071428248,0.0,wait_cost,0,5,594.7428028583527,None,6,bh3,2,2023-04-04_10h17.26.911,threat_forest,2021.2.3,60.004177384327946,
16,0,16,0,2,0,2,0,,,,,,,,,,left,0.7867138385772705,601.4109399318695,bh3,597.0422368049622,599.0545928478241,601.4109399318695,None,False,5,['r'],False,0.2222222222222222,0.2222222222222222,0.0,0.0,1.0,0.4821593609696809,0.0,wait_cost,1,4,599.0545928478241,None,5,bh3,2,2023-04-04_10h17.26.911,threat_forest,2021.2.3,60.004177384327946,
16,0,16,0,3,0,3,0,,,,,,,,,,left,0.8856980800628662,607.4142599105835,bh3,607.4142599105835,None,602.2296679019928,604.2437329292297,True,4,['r'],True,0.4444444444444445,0.6666666666666666,0.3333333333333333,1.0,1.0,0.9656336071428248,0.0,succ_gain,0,5,604.2437329292297,None,4,bh3,2,2023-04-04_10h17.26.911,threat_forest,2021.2.3,60.004177384327946,
16,0,16,0,4,0,4,0,,,,,,,,,,left,0.6187431812286377,611.5730638504028,bh3,608.3361399173737,610.3504748344421,611.5730638504028,None,False,5,['r'],False,0.2222222222222222,0.2222222222222222,0.0,0.0,1.0,0.4821593609696809,0.0,wait_cost,1,4,610.3504748344421,None,5,bh3,2,2023-04-04_10h17.26.911,threat_forest,2021.2.3,60.004177384327946,
16,0,16,0,5,0,5,0,,,,,,,,,,right,0.6534101963043213,617.7553219795227,bh3,617.7553219795227,None,612.2199239730835,614.22150182724,False,4,['r'],True,0.4444444444444445,0.6666666666666666,0.3333333333333333,1.0,1.0,0.9656336071428248,0.0,wait_cost,0,3,614.22150182724,None,4,bh3,2,2023-04-04_10h17.26.911,threat_forest,2021.2.3,60.004177384327946,
16,0,16,0,6,0,6,0,,,,,,,,,,right,0.5643219947814941,621.8778409957886,bh3,621.8778409957886,None,612.2199239730835,614.22150182724,False,3,['r'],True,0.4444444444444445,0.6666666666666666,0.3333333333333333,1.0,1.0,0.9656336071428248,-0.3333333333333333,wait_cost,0,2,620.4282050132751,None,3,bh3,2,2023-04-04_10h17.26.911,threat_forest,2021.2.3,60.004177384327946,
16,0,16,0,7,0,7,0,,,,,,,,,,left,0.6420078277587891,626.3732550144196,bh3,622.4687240123749,624.4829850196838,626.3732550144196,None,False,2,['r'],False,0.2222222222222222,0.2222222222222222,0.0,0.0,1.0,0.4821593609696809,-0.7777777777777778,wait_cost,1,1,624.4829850196838,None,2,bh3,2,2023-04-04_10h17.26.911,threat_forest,2021.2.3,60.004177384327946,
16,0,16,0,,,,,,,,,,,,,,,,,,,,,,,,,,,,,,,,,,,,629.0545589923859,None,1,bh3,2,2023-04-04_10h17.26.911,threat_forest,2021.2.3,60.004177384327946,
17,0,17,0,0,0,0,0,,,,,,,630.3760168552399,633.8762848377228,None,left,0.8115701675415039,635.8411068916321,bh3,630.3760168552399,633.8762848377228,635.8411068916321,None,False,4,['p'],False,0.1875,0.25,0.25,2.0,1.0,0.895754137500101,0.0,wait_cost,1,3,,,,bh3,2,2023-04-04_10h17.26.911,threat_forest,2021.2.3,60.004177384327946,
17,0,17,0,1,0,1,0,,,,,,,,,,left,0.9730629920959473,640.2978420257568,bh3,630.3760168552399,633.8762848377228,640.2978420257568,None,False,3,['p'],False,0.1875,0.25,0.25,2.0,1.0,0.895754137500101,-0.25,wait_cost,1,2,638.681676864624,None,3,bh3,2,2023-04-04_10h17.26.911,threat_forest,2021.2.3,60.004177384327946,
17,0,17,0,2,0,2,0,,,,,,,,,,left,0.8382627964019775,645.9580769538879,bh3,630.3760168552399,633.8762848377228,645.9580769538879,None,False,2,['p'],False,0.1875,0.25,0.25,2.0,1.0,0.895754137500101,-0.8125,wait_cost,1,1,643.3032948970795,None,2,bh3,2,2023-04-04_10h17.26.911,threat_forest,2021.2.3,60.004177384327946,
17,0,17,0,3,0,3,0,,,,,,,,,,left,1.1850709915161133,652.0334849357605,bh3,652.0334849357605,None,646.825847864151,648.8263199329376,True,1,['p'],True,0.4444444444444445,0.6666666666666666,0.3333333333333333,1.0,1.0,0.9656336071428248,0.4444444444444444,unsucc_cost,0,0,648.8263199329376,None,1,bh3,2,2023-04-04_10h17.26.911,threat_forest,2021.2.3,60.004177384327946,
17,0,17,0,,,,,,,,,,,,,,,,,,,,,,,,,,,,,,,,,,,,655.2696068286896,None,0,bh3,2,2023-04-04_10h17.26.911,threat_forest,2021.2.3,60.004177384327946,
