miniblock.thisRepN,miniblock.thisTrialN,miniblock.thisN,miniblock.thisIndex,day.thisRepN,day.thisTrialN,day.thisN,day.thisIndex,welcoming.started,welcoming.stopped,key_resp_2.keys,key_resp_2.rt,key_resp_2.started,key_resp_2.stopped,forest.started,fixation_forest.started,fixation_forest.stopped,key_resp.keys,key_resp.rt,key_resp.started,Subject_ID,weather_left.started,weather_left.stopped,weather_right.started,weather_right.stopped,foraging T/F,in_LP,p/r heuristic,good_weather.T/F,p_succ_correct,p_succ_uncorrected,r_threat,n_oponents,gain_if_succ,weather_entropy,OP_value_difference,action_outcome,forest_side_L=0_R=1,out_LP,fixation_day.started,fixation_day.stopped,participant,session,date,expName,psychopyVersion,frameRate,
,,,,,,,,17.916098833084106,None,space,5.6997339725494385,17.916098833084106,None,,,,,,,,,,,,,,,,,,,,,,,,,,,,pt3,1,2023-03-30_11h44.39.847,threat_forest,2021.2.3,59.81787817376163,
0,0,0,0,0,0,0,0,,,,,,,23.67020583152771,27.180685997009277,None,right,1.862494945526123,28.806397914886475,pt3,28.806397914886475,None,23.67020583152771,27.180685997009277,False,5,['r'],True,0.3333333333333333,0.3333333333333333,0.0,0.0,1.0,0.5793801642856949,0.0,wait_cost,0,4,,,pt3,1,2023-03-30_11h44.39.847,threat_forest,2021.2.3,59.81787817376163,
0,0,0,0,1,0,1,0,,,,,,,,,,right,1.5069639682769775,33.65680384635925,pt3,33.65680384635925,None,23.67020583152771,27.180685997009277,False,4,['r'],True,0.3333333333333333,0.3333333333333333,0.0,0.0,1.0,0.5793801642856949,0.0,wait_cost,0,3,32.7197539806366,None,pt3,1,2023-03-30_11h44.39.847,threat_forest,2021.2.3,59.81787817376163,
0,0,0,0,2,0,2,0,,,,,,,,,,right,1.69504714012146,40.000216007232666,pt3,35.1946918964386,37.208069801330566,40.000216007232666,None,True,3,['r'],False,0.24,0.4,0.4,2.0,1.0,0.9801625908629508,-0.4,figh_cost,1,0,37.208069801330566,None,pt3,1,2023-03-30_11h44.39.847,threat_forest,2021.2.3,59.81787817376163,
0,0,0,0,,,,,,,,,,,,,,,,,,,,,,,,,,,,,,,,,,,,43.73031783103943,None,pt3,1,2023-03-30_11h44.39.847,threat_forest,2021.2.3,59.81787817376163,
1,0,1,0,0,0,0,0,,,,,,,44.92221784591675,48.43707489967346,None,right,0.9896628856658936,50.59742283821106,pt3,44.92221784591675,48.43707489967346,50.59742283821106,None,True,5,['p'],False,0.2448979591836734,0.2857142857142857,0.1428571428571428,1.0,1.0,0.8400769154957735,0.0,succ_gain,1,6,,,pt3,1,2023-03-30_11h44.39.847,threat_forest,2021.2.3,59.81787817376163,
1,0,1,0,1,0,1,0,,,,,,,,,,right,1.496062994003296,56.44512581825256,pt3,44.92221784591675,48.43707489967346,56.44512581825256,None,True,6,['p'],False,0.2448979591836734,0.2857142857142857,0.1428571428571428,1.0,1.0,0.8400769154957735,0.0,succ_gain,1,6,53.62673592567444,None,pt3,1,2023-03-30_11h44.39.847,threat_forest,2021.2.3,59.81787817376163,
1,0,1,0,2,0,2,0,,,,,,,,,,left,1.1450550556182861,63.234251976013184,pt3,44.92221784591675,48.43707489967346,63.234251976013184,None,False,6,['p'],False,0.2448979591836734,0.2857142857142857,0.1428571428571428,1.0,1.0,0.8400769154957735,0.0,wait_cost,1,5,59.96694302558899,None,pt3,1,2023-03-30_11h44.39.847,threat_forest,2021.2.3,59.81787817376163,
1,0,1,0,3,0,3,0,,,,,,,,,,right,1.5621018409729004,69.13409900665283,pt3,69.13409900665283,None,64.408695936203,66.40771794319153,False,5,['p'],True,0.4444444444444445,0.6666666666666666,0.3333333333333333,1.0,1.0,0.9656336071428248,0.0,wait_cost,0,4,66.40771794319153,None,pt3,1,2023-03-30_11h44.39.847,threat_forest,2021.2.3,59.81787817376163,
1,0,1,0,4,0,4,0,,,,,,,,,,right,1.0325849056243896,76.12161302566528,pt3,70.71807479858398,72.73148798942566,76.12161302566528,None,True,4,['p'],False,0.2448979591836734,0.2857142857142857,0.1428571428571428,1.0,1.0,0.8400769154957735,0.0,succ_gain,1,5,72.73148798942566,None,pt3,1,2023-03-30_11h44.39.847,threat_forest,2021.2.3,59.81787817376163,
1,0,1,0,5,0,5,0,,,,,,,,,,left,1.1823921203613281,80.95674681663513,pt3,70.71807479858398,72.73148798942566,80.95674681663513,None,False,5,['p'],False,0.2448979591836734,0.2857142857142857,0.1428571428571428,1.0,1.0,0.8400769154957735,0.0,wait_cost,1,4,79.2057478427887,None,pt3,1,2023-03-30_11h44.39.847,threat_forest,2021.2.3,59.81787817376163,
1,0,1,0,6,0,6,0,,,,,,,,,,right,0.8672630786895752,85.30305480957031,pt3,85.30305480957031,None,82.16108083724976,84.16140580177307,False,4,['p'],True,0.4444444444444445,0.6666666666666666,0.3333333333333333,1.0,1.0,0.9656336071428248,0.0,wait_cost,0,3,84.16140580177307,None,pt3,1,2023-03-30_11h44.39.847,threat_forest,2021.2.3,59.81787817376163,
1,0,1,0,7,0,7,0,,,,,,,,,,left,1.3057160377502441,91.21852087974548,pt3,86.19698691368103,88.19914388656616,91.21852087974548,None,False,3,['p'],False,0.2448979591836734,0.2857142857142857,0.1428571428571428,1.0,1.0,0.8400769154957735,-0.1428571428571428,wait_cost,1,2,88.19914388656616,None,pt3,1,2023-03-30_11h44.39.847,threat_forest,2021.2.3,59.81787817376163,
1,0,1,0,,,,,,,,,,,,,,,,,,,,,,,,,,,,,,,,,,,,94.5743658542633,None,pt3,1,2023-03-30_11h44.39.847,threat_forest,2021.2.3,59.81787817376163,
2,0,2,0,0,0,0,0,,,,,,,96.30847883224487,99.8087649345398,None,right,1.356114149093628,102.97507500648499,pt3,96.30847883224487,99.8087649345398,102.97507500648499,None,True,5,['r'],False,0.3061224489795918,0.4285714285714285,0.2857142857142857,2.0,2.0,0.9885754083994552,0.0,unsucc_cost,1,3,,,pt3,1,2023-03-30_11h44.39.847,threat_forest,2021.2.3,59.81787817376163,
2,0,2,0,1,0,1,0,,,,,,,,,,left,1.6169500350952148,107.01427292823792,pt3,96.30847883224487,99.8087649345398,107.01427292823792,None,False,3,['r'],False,0.3061224489795918,0.4285714285714285,0.2857142857142857,2.0,2.0,0.9885754083994552,-0.2857142857142857,wait_cost,1,2,106.36163783073425,None,pt3,1,2023-03-30_11h44.39.847,threat_forest,2021.2.3,59.81787817376163,
2,0,2,0,2,0,2,0,,,,,,,,,,right,0.9042861461639404,111.43811798095703,pt3,96.30847883224487,99.8087649345398,111.43811798095703,None,True,2,['r'],False,0.3061224489795918,0.4285714285714285,0.2857142857142857,2.0,2.0,0.9885754083994552,-0.6938775510204083,succ_gain,1,4,110.67419290542603,None,pt3,1,2023-03-30_11h44.39.847,threat_forest,2021.2.3,59.81787817376163,
2,0,2,0,3,0,3,0,,,,,,,,,,left,1.5442070960998535,115.12489295005798,pt3,115.12489295005798,None,112.36731290817261,114.37835502624512,True,4,['r'],True,0.4,0.4,0.0,0.0,2.0,0.6126016192893442,0.0,figh_cost,0,1,114.37835502624512,None,pt3,1,2023-03-30_11h44.39.847,threat_forest,2021.2.3,59.81787817376163,
2,0,2,0,4,0,4,0,,,,,,,,,,right,0.649832010269165,121.22946882247925,pt3,116.69501686096191,118.70008301734924,121.22946882247925,None,True,1,['r'],False,0.3061224489795918,0.4285714285714285,0.2857142857142857,2.0,2.0,0.9885754083994552,0.3061224489795917,unsucc_cost,1,0,118.70008301734924,None,pt3,1,2023-03-30_11h44.39.847,threat_forest,2021.2.3,59.81787817376163,
2,0,2,0,,,,,,,,,,,,,,,,,,,,,,,,,,,,,,,,,,,,123.9062659740448,None,pt3,1,2023-03-30_11h44.39.847,threat_forest,2021.2.3,59.81787817376163,
3,0,3,0,0,0,0,0,,,,,,,125.26094198226929,128.76130986213684,None,right,0.8738958835601807,131.75351190567017,pt3,125.26094198226929,128.76130986213684,131.75351190567017,None,True,4,['p'],False,0.2448979591836734,0.2857142857142857,0.1428571428571428,1.0,2.0,0.8400769154957735,0.0,succ_gain,1,6,,,pt3,1,2023-03-30_11h44.39.847,threat_forest,2021.2.3,59.81787817376163,
3,0,3,0,1,0,1,0,,,,,,,,,,right,1.2506568431854248,137.6055920124054,pt3,137.6055920124054,None,132.65363693237305,134.66796588897705,False,6,['p'],True,0.4444444444444445,0.6666666666666666,0.3333333333333333,1.0,2.0,0.9656336071428248,0.0,wait_cost,0,5,134.66796588897705,None,pt3,1,2023-03-30_11h44.39.847,threat_forest,2021.2.3,59.81787817376163,
3,0,3,0,2,0,2,0,,,,,,,,,,right,1.4195020198822021,141.673565864563,pt3,141.673565864563,None,132.65363693237305,134.66796588897705,False,5,['p'],True,0.4444444444444445,0.6666666666666666,0.3333333333333333,1.0,2.0,0.9656336071428248,0.0,wait_cost,0,4,140.87484002113342,None,pt3,1,2023-03-30_11h44.39.847,threat_forest,2021.2.3,59.81787817376163,
3,0,3,0,3,0,3,0,,,,,,,,,,right,0.9448039531707764,147.98520398139954,pt3,143.11510300636292,145.113538980484,147.98520398139954,None,True,4,['p'],False,0.2448979591836734,0.2857142857142857,0.1428571428571428,1.0,2.0,0.8400769154957735,0.0,succ_gain,1,6,145.113538980484,None,pt3,1,2023-03-30_11h44.39.847,threat_forest,2021.2.3,59.81787817376163,
3,0,3,0,4,0,4,0,,,,,,,,,,right,0.6448078155517578,154.34190392494202,pt3,154.34190392494202,None,148.95434379577637,150.95403480529785,False,6,['p'],True,0.4444444444444445,0.6666666666666666,0.3333333333333333,1.0,2.0,0.9656336071428248,0.0,wait_cost,0,5,150.95403480529785,None,pt3,1,2023-03-30_11h44.39.847,threat_forest,2021.2.3,59.81787817376163,
3,0,3,0,5,0,5,0,,,,,,,,,,left,1.762052059173584,160.21927285194397,pt3,155.01062202453613,157.0100438594818,160.21927285194397,None,False,5,['p'],False,0.2448979591836734,0.2857142857142857,0.1428571428571428,1.0,2.0,0.8400769154957735,0.0,wait_cost,1,4,157.0100438594818,None,pt3,1,2023-03-30_11h44.39.847,threat_forest,2021.2.3,59.81787817376163,
3,0,3,0,6,0,6,0,,,,,,,,,,right,1.2896308898925781,164.72071981430054,pt3,164.72071981430054,None,162.00560998916626,164.01786994934082,False,4,['p'],True,0.4444444444444445,0.6666666666666666,0.3333333333333333,1.0,2.0,0.9656336071428248,0.0,wait_cost,0,3,164.01786994934082,None,pt3,1,2023-03-30_11h44.39.847,threat_forest,2021.2.3,59.81787817376163,
3,0,3,0,7,0,7,0,,,,,,,,,,right,0.6552538871765137,170.34200191497803,pt3,170.34200191497803,None,162.00560998916626,164.01786994934082,False,3,['p'],True,0.4444444444444445,0.6666666666666666,0.3333333333333333,1.0,2.0,0.9656336071428248,-0.3333333333333333,wait_cost,0,2,168.03865480422974,None,pt3,1,2023-03-30_11h44.39.847,threat_forest,2021.2.3,59.81787817376163,
3,0,3,0,,,,,,,,,,,,,,,,,,,,,,,,,,,,,,,,,,,,173.04508686065674,None,pt3,1,2023-03-30_11h44.39.847,threat_forest,2021.2.3,59.81787817376163,
4,0,4,0,0,0,0,0,,,,,,,175.0575728416443,178.56701493263245,None,right,0.9510340690612793,181.2289538383484,pt3,175.0575728416443,178.56701493263245,181.2289538383484,None,True,5,['p'],False,0.1975308641975308,0.2222222222222222,0.1111111111111111,1.0,2.0,0.7461067557824965,0.0,succ_gain,1,6,,,pt3,1,2023-03-30_11h44.39.847,threat_forest,2021.2.3,59.81787817376163,
4,0,4,0,1,0,1,0,,,,,,,,,,right,0.7952010631561279,186.31616687774658,pt3,186.31616687774658,None,182.20901679992676,184.22357082366943,False,6,['p'],True,0.32,0.4,0.2,1.0,2.0,0.9455672104350704,0.0,wait_cost,0,5,184.22357082366943,None,pt3,1,2023-03-30_11h44.39.847,threat_forest,2021.2.3,59.81787817376163,
4,0,4,0,2,0,2,0,,,,,,,,,,left,2.3089771270751953,192.53494691848755,pt3,187.13413190841675,189.14603400230408,192.53494691848755,None,False,5,['p'],False,0.1975308641975308,0.2222222222222222,0.1111111111111111,1.0,2.0,0.7461067557824965,0.0,wait_cost,1,4,189.14603400230408,None,pt3,1,2023-03-30_11h44.39.847,threat_forest,2021.2.3,59.81787817376163,
4,0,4,0,3,0,3,0,,,,,,,,,,left,1.9170548915863037,198.4882459640503,pt3,187.13413190841675,189.14603400230408,198.4882459640503,None,False,4,['p'],False,0.1975308641975308,0.2222222222222222,0.1111111111111111,1.0,2.0,0.7461067557824965,0.0,wait_cost,1,3,196.87171602249146,None,pt3,1,2023-03-30_11h44.39.847,threat_forest,2021.2.3,59.81787817376163,
4,0,4,0,4,0,4,0,,,,,,,,,,right,2.4977259635925293,205.882994890213,pt3,205.882994890213,None,200.4328498840332,202.44412684440613,False,3,['p'],True,0.32,0.4,0.2,1.0,2.0,0.9455672104350704,-0.2,wait_cost,0,2,202.44412684440613,None,pt3,1,2023-03-30_11h44.39.847,threat_forest,2021.2.3,59.81787817376163,
4,0,4,0,5,0,5,0,,,,,,,,,,right,0.7221360206604004,213.5906479358673,pt3,208.40720391273499,210.41986083984375,213.5906479358673,None,True,2,['p'],False,0.1975308641975308,0.2222222222222222,0.1111111111111111,1.0,2.0,0.7461067557824965,-0.8024691358024691,figh_cost,1,0,210.41986083984375,None,pt3,1,2023-03-30_11h44.39.847,threat_forest,2021.2.3,59.81787817376163,
4,0,4,0,,,,,,,,,,,,,,,,,,,,,,,,,,,,,,,,,,,,216.35975193977356,None,pt3,1,2023-03-30_11h44.39.847,threat_forest,2021.2.3,59.81787817376163,
5,0,5,0,0,0,0,0,,,,,,,219.10201501846313,222.61682987213135,None,right,1.4861059188842773,223.74379587173462,pt3,219.10201501846313,222.61682987213135,223.74379587173462,None,True,5,['p'],False,0.16,0.2,0.2,2.0,1.0,0.8198746470064713,0.0,unsucc_cost,1,3,,,pt3,1,2023-03-30_11h44.39.847,threat_forest,2021.2.3,59.81787817376163,
5,0,5,0,1,0,1,0,,,,,,,,,,right,0.7124309539794922,228.39055180549622,pt3,219.10201501846313,222.61682987213135,228.39055180549622,None,True,3,['p'],False,0.16,0.2,0.2,2.0,1.0,0.8198746470064713,-0.2,succ_gain,1,4,227.27170085906982,None,pt3,1,2023-03-30_11h44.39.847,threat_forest,2021.2.3,59.81787817376163,
5,0,5,0,2,0,2,0,,,,,,,,,,right,0.8683469295501709,234.01654601097107,pt3,234.01654601097107,None,229.13821387290955,231.14340496063232,False,4,['p'],True,0.4444444444444445,0.6666666666666666,0.3333333333333333,1.0,1.0,0.9656336071428248,0.0,wait_cost,0,3,231.14340496063232,None,pt3,1,2023-03-30_11h44.39.847,threat_forest,2021.2.3,59.81787817376163,
5,0,5,0,3,0,3,0,,,,,,,,,,right,1.0815708637237549,237.9529869556427,pt3,237.9529869556427,None,229.13821387290955,231.14340496063232,False,3,['p'],True,0.4444444444444445,0.6666666666666666,0.3333333333333333,1.0,1.0,0.9656336071428248,-0.3333333333333333,wait_cost,0,2,236.92645502090454,None,pt3,1,2023-03-30_11h44.39.847,threat_forest,2021.2.3,59.81787817376163,
5,0,5,0,4,0,4,0,,,,,,,,,,right,0.9114959239959717,243.42937898635864,pt3,239.05344200134277,241.05397391319275,243.42937898635864,None,True,2,['p'],False,0.16,0.2,0.2,2.0,1.0,0.8198746470064713,-0.8400000000000001,figh_cost,1,0,241.05397391319275,None,pt3,1,2023-03-30_11h44.39.847,threat_forest,2021.2.3,59.81787817376163,
5,0,5,0,,,,,,,,,,,,,,,,,,,,,,,,,,,,,,,,,,,,246.37953686714172,None,pt3,1,2023-03-30_11h44.39.847,threat_forest,2021.2.3,59.81787817376163,
6,0,6,0,0,0,0,0,,,,,,,249.06300592422485,252.56688594818115,None,left,2.4373459815979004,254.34650301933289,pt3,254.34650301933289,None,249.06300592422485,252.56688594818115,True,4,['r'],True,0.4,0.4,0.0,0.0,1.0,0.6126016192893442,0.0,unsucc_cost,0,2,,,pt3,1,2023-03-30_11h44.39.847,threat_forest,2021.2.3,59.81787817376163,
6,0,6,0,1,0,1,0,,,,,,,,,,right,1.0567500591278076,262.24345898628235,pt3,262.24345898628235,None,249.06300592422485,252.56688594818115,False,2,['r'],True,0.4,0.4,0.0,0.0,1.0,0.6126016192893442,-0.6,wait_cost,0,1,258.84122490882874,None,pt3,1,2023-03-30_11h44.39.847,threat_forest,2021.2.3,59.81787817376163,
6,0,6,0,2,0,2,0,,,,,,,,,,right,0.7466268539428711,265.9538719654083,pt3,263.3297829627991,265.3318839073181,265.9538719654083,None,True,1,['r'],False,0.3333333333333333,0.5,0.3333333333333333,2.0,1.0,1.0,0.3333333333333332,unsucc_cost,1,0,265.3318839073181,None,pt3,1,2023-03-30_11h44.39.847,threat_forest,2021.2.3,59.81787817376163,
6,0,6,0,,,,,,,,,,,,,,,,,,,,,,,,,,,,,,,,,,,,268.7356758117676,None,pt3,1,2023-03-30_11h44.39.847,threat_forest,2021.2.3,59.81787817376163,
7,0,7,0,0,0,0,0,,,,,,,272.1117949485779,275.62629199028015,None,left,2.049962043762207,276.2035279273987,pt3,276.2035279273987,None,272.1117949485779,275.62629199028015,True,5,['p'],True,0.375,0.5,0.25,1.0,1.0,0.9850568223215076,0.0,figh_cost,0,2,,,pt3,1,2023-03-30_11h44.39.847,threat_forest,2021.2.3,59.81787817376163,
7,0,7,0,1,0,1,0,,,,,,,,,,left,0.9316158294677734,282.68840885162354,pt3,278.288614988327,280.2985198497772,282.68840885162354,None,False,2,['p'],False,0.2,0.2,0.0,0.0,1.0,0.4554859150035951,-0.8,wait_cost,1,1,280.2985198497772,None,pt3,1,2023-03-30_11h44.39.847,threat_forest,2021.2.3,59.81787817376163,
7,0,7,0,2,0,2,0,,,,,,,,,,left,0.5842649936676025,287.59035897254944,pt3,287.59035897254944,None,283.65792179107666,285.67163491249084,True,1,['p'],True,0.375,0.5,0.25,1.0,1.0,0.9850568223215076,0.375,succ_gain,0,2,285.67163491249084,None,pt3,1,2023-03-30_11h44.39.847,threat_forest,2021.2.3,59.81787817376163,
7,0,7,0,3,0,3,0,,,,,,,,,,right,1.642836093902588,291.33000588417053,pt3,288.19791197776794,290.2102298736572,291.33000588417053,None,True,2,['p'],False,0.2,0.2,0.0,0.0,1.0,0.4554859150035951,-0.8,unsucc_cost,1,0,290.2102298736572,None,pt3,1,2023-03-30_11h44.39.847,threat_forest,2021.2.3,59.81787817376163,
7,0,7,0,,,,,,,,,,,,,,,,,,,,,,,,,,,,,,,,,,,,295.01667284965515,None,pt3,1,2023-03-30_11h44.39.847,threat_forest,2021.2.3,59.81787817376163,
8,0,8,0,0,0,0,0,,,,,,,297.5075008869171,301.0222749710083,None,left,1.1824841499328613,302.0295088291168,pt3,302.0295088291168,None,297.5075008869171,301.0222749710083,True,4,['p'],True,0.4166666666666667,0.5,0.1666666666666666,1.0,2.0,0.9358932809493992,0.0,unsucc_cost,0,2,,,pt3,1,2023-03-30_11h44.39.847,threat_forest,2021.2.3,59.81787817376163,
8,0,8,0,1,0,1,0,,,,,,,,,,left,2.395336151123047,308.5469620227814,pt3,308.5469620227814,None,297.5075008869171,301.0222749710083,True,2,['p'],True,0.4166666666666667,0.5,0.1666666666666666,1.0,2.0,0.9358932809493992,-0.5833333333333333,succ_gain,0,4,305.26101183891296,None,pt3,1,2023-03-30_11h44.39.847,threat_forest,2021.2.3,59.81787817376163,
8,0,8,0,2,0,2,0,,,,,,,,,,right,1.4741768836975098,315.1303298473358,pt3,310.97481989860535,312.98642683029175,315.1303298473358,None,True,4,['p'],False,0.2962962962962963,0.3333333333333333,0.1111111111111111,1.0,2.0,0.8325252476189534,0.0,unsucc_cost,1,2,312.98642683029175,None,pt3,1,2023-03-30_11h44.39.847,threat_forest,2021.2.3,59.81787817376163,
8,0,8,0,3,0,3,0,,,,,,,,,,left,1.3729441165924072,320.9458658695221,pt3,320.9458658695221,None,316.62957096099854,318.64267086982727,True,2,['p'],True,0.4166666666666667,0.5,0.1666666666666666,1.0,2.0,0.9358932809493992,-0.5833333333333333,unsucc_cost,0,0,318.64267086982727,None,pt3,1,2023-03-30_11h44.39.847,threat_forest,2021.2.3,59.81787817376163,
8,0,8,0,,,,,,,,,,,,,,,,,,,,,,,,,,,,,,,,,,,,324.36632680892944,None,pt3,1,2023-03-30_11h44.39.847,threat_forest,2021.2.3,59.81787817376163,
9,0,9,0,0,0,0,0,,,,,,,326.97267293930054,330.47323989868164,None,right,1.1874399185180664,332.8347158432007,pt3,326.97267293930054,330.47323989868164,332.8347158432007,None,True,5,['r'],False,0.46875,0.625,0.25,2.0,2.0,0.9634951148421658,0.0,succ_gain,1,6,,,pt3,1,2023-03-30_11h44.39.847,threat_forest,2021.2.3,59.81787817376163,
9,0,9,0,1,0,1,0,,,,,,,,,,right,0.9116837978363037,339.54079389572144,pt3,339.54079389572144,None,334.0537660121918,336.0628550052643,False,6,['r'],True,0.6,0.6,0.0,0.0,2.0,0.6126016192893442,0.0,wait_cost,0,5,336.0628550052643,None,pt3,1,2023-03-30_11h44.39.847,threat_forest,2021.2.3,59.81787817376163,
9,0,9,0,2,0,2,0,,,,,,,,,,right,1.5928730964660645,344.0056059360504,pt3,340.4871518611908,342.4866979122162,344.0056059360504,None,True,5,['r'],False,0.46875,0.625,0.25,2.0,2.0,0.9634951148421658,0.0,succ_gain,1,6,342.4866979122162,None,pt3,1,2023-03-30_11h44.39.847,threat_forest,2021.2.3,59.81787817376163,
9,0,9,0,3,0,3,0,,,,,,,,,,right,1.9783520698547363,351.22024393081665,pt3,351.22024393081665,None,345.62785291671753,347.64278292655945,False,6,['r'],True,0.6,0.6,0.0,0.0,2.0,0.6126016192893442,0.0,wait_cost,0,5,347.64278292655945,None,pt3,1,2023-03-30_11h44.39.847,threat_forest,2021.2.3,59.81787817376163,
9,0,9,0,4,0,4,0,,,,,,,,,,left,2.9008870124816895,356.2541229724884,pt3,353.2186858654022,355.21785593032837,356.2541229724884,None,False,5,['r'],False,0.46875,0.625,0.25,2.0,2.0,0.9634951148421658,0.0,wait_cost,1,4,355.21785593032837,None,pt3,1,2023-03-30_11h44.39.847,threat_forest,2021.2.3,59.81787817376163,
9,0,9,0,5,0,5,0,,,,,,,,,,left,1.645050048828125,364.4292538166046,pt3,353.2186858654022,355.21785593032837,364.4292538166046,None,False,4,['r'],False,0.46875,0.625,0.25,2.0,2.0,0.9634951148421658,0.0,wait_cost,1,3,361.17531299591064,None,pt3,1,2023-03-30_11h44.39.847,threat_forest,2021.2.3,59.81787817376163,
9,0,9,0,6,0,6,0,,,,,,,,,,left,0.9650590419769287,370.500097990036,pt3,353.2186858654022,355.21785593032837,370.500097990036,None,False,3,['r'],False,0.46875,0.625,0.25,2.0,2.0,0.9634951148421658,-0.25,wait_cost,1,2,368.1046769618988,None,pt3,1,2023-03-30_11h44.39.847,threat_forest,2021.2.3,59.81787817376163,
9,0,9,0,7,0,7,0,,,,,,,,,,right,1.2160000801086426,376.16266798973083,pt3,376.16266798973083,None,371.49153900146484,373.50627994537354,False,2,['r'],True,0.6,0.6,0.0,0.0,2.0,0.6126016192893442,-0.4,wait_cost,0,1,373.50627994537354,None,pt3,1,2023-03-30_11h44.39.847,threat_forest,2021.2.3,59.81787817376163,
9,0,9,0,,,,,,,,,,,,,,,,,,,,,,,,,,,,,,,,,,,,379.41290402412415,None,pt3,1,2023-03-30_11h44.39.847,threat_forest,2021.2.3,59.81787817376163,
10,0,10,0,0,0,0,0,,,,,,,380.5005648136139,383.9985008239746,None,left,1.4134418964385986,387.1481659412384,pt3,387.1481659412384,None,380.5005648136139,383.9985008239746,True,5,['r'],True,0.3333333333333333,0.3333333333333333,0.0,0.0,2.0,0.5793801642856949,0.0,succ_gain,0,6,,,pt3,1,2023-03-30_11h44.39.847,threat_forest,2021.2.3,59.81787817376163,
10,0,10,0,1,0,1,0,,,,,,,,,,right,1.3138201236724854,392.707799911499,pt3,392.707799911499,None,380.5005648136139,383.9985008239746,False,6,['r'],True,0.3333333333333333,0.3333333333333333,0.0,0.0,2.0,0.5793801642856949,0.0,wait_cost,0,5,390.60893297195435,None,pt3,1,2023-03-30_11h44.39.847,threat_forest,2021.2.3,59.81787817376163,
10,0,10,0,2,0,2,0,,,,,,,,,,None,,398.8520448207855,pt3,398.8520448207855,None,380.5005648136139,383.9985008239746,None,5,['r'],True,0.3333333333333333,0.3333333333333333,0.0,0.0,2.0,0.5793801642856949,0.0,wait_cost,0,4,396.0651888847351,None,pt3,1,2023-03-30_11h44.39.847,threat_forest,2021.2.3,59.81787817376163,
10,0,10,0,3,0,3,0,,,,,,,,,,left,1.5896480083465576,404.9228358268738,pt3,404.9228358268738,None,380.5005648136139,383.9985008239746,True,4,['r'],True,0.3333333333333333,0.3333333333333333,0.0,0.0,2.0,0.5793801642856949,0.0,unsucc_cost,0,2,403.87414479255676,None,pt3,1,2023-03-30_11h44.39.847,threat_forest,2021.2.3,59.81787817376163,
10,0,10,0,4,0,4,0,,,,,,,,,,left,1.1191768646240234,410.79893493652344,pt3,410.79893493652344,None,380.5005648136139,383.9985008239746,True,2,['r'],True,0.3333333333333333,0.3333333333333333,0.0,0.0,2.0,0.5793801642856949,-0.6666666666666667,succ_gain,0,4,408.55539298057556,None,pt3,1,2023-03-30_11h44.39.847,threat_forest,2021.2.3,59.81787817376163,
10,0,10,0,5,0,5,0,,,,,,,,,,right,0.9710102081298828,416.06703996658325,pt3,416.06703996658325,None,380.5005648136139,383.9985008239746,False,4,['r'],True,0.3333333333333333,0.3333333333333333,0.0,0.0,2.0,0.5793801642856949,0.0,wait_cost,0,3,413.9690508842468,None,pt3,1,2023-03-30_11h44.39.847,threat_forest,2021.2.3,59.81787817376163,
10,0,10,0,6,0,6,0,,,,,,,,,,left,1.6180779933929443,420.7334108352661,pt3,417.06184697151184,419.07486295700073,420.7334108352661,None,False,3,['r'],False,0.28125,0.375,0.25,2.0,2.0,0.9634951148421658,-0.25,wait_cost,1,2,419.07486295700073,None,pt3,1,2023-03-30_11h44.39.847,threat_forest,2021.2.3,59.81787817376163,
10,0,10,0,7,0,7,0,,,,,,,,,,left,0.9494731426239014,426.24821281433105,pt3,417.06184697151184,419.07486295700073,426.24821281433105,None,False,2,['r'],False,0.28125,0.375,0.25,2.0,2.0,0.9634951148421658,-0.71875,wait_cost,1,1,424.3975188732147,None,pt3,1,2023-03-30_11h44.39.847,threat_forest,2021.2.3,59.81787817376163,
10,0,10,0,,,,,,,,,,,,,,,,,,,,,,,,,,,,,,,,,,,,429.2367208003998,None,pt3,1,2023-03-30_11h44.39.847,threat_forest,2021.2.3,59.81787817376163,
11,0,11,0,0,0,0,0,,,,,,,430.78891491889954,434.29187393188477,None,left,1.3135721683502197,435.05013394355774,pt3,435.05013394355774,None,430.78891491889954,434.29187393188477,True,5,['r'],True,0.3333333333333333,0.3333333333333333,0.0,0.0,2.0,0.5793801642856949,0.0,succ_gain,0,6,,,pt3,1,2023-03-30_11h44.39.847,threat_forest,2021.2.3,59.81787817376163,
11,0,11,0,1,0,1,0,,,,,,,,,,left,1.1462039947509766,441.1043620109558,pt3,436.3995168209076,438.4134759902954,441.1043620109558,None,False,6,['r'],False,0.25,0.5,0.5,2.0,2.0,0.9463946303571862,0.0,wait_cost,1,5,438.4134759902954,None,pt3,1,2023-03-30_11h44.39.847,threat_forest,2021.2.3,59.81787817376163,
11,0,11,0,2,0,2,0,,,,,,,,,,right,1.4687368869781494,445.2559549808502,pt3,445.2559549808502,None,442.2735459804535,444.28668880462646,False,5,['r'],True,0.3333333333333333,0.3333333333333333,0.0,0.0,2.0,0.5793801642856949,0.0,wait_cost,0,4,444.28668880462646,None,pt3,1,2023-03-30_11h44.39.847,threat_forest,2021.2.3,59.81787817376163,
11,0,11,0,3,0,3,0,,,,,,,,,,left,1.2925841808319092,449.91276383399963,pt3,446.7583808898926,448.7588210105896,449.91276383399963,None,False,4,['r'],False,0.25,0.5,0.5,2.0,2.0,0.9463946303571862,0.0,wait_cost,1,3,448.7588210105896,None,pt3,1,2023-03-30_11h44.39.847,threat_forest,2021.2.3,59.81787817376163,
11,0,11,0,4,0,4,0,,,,,,,,,,left,1.6658971309661865,455.20091485977173,pt3,455.20091485977173,None,451.2308168411255,453.2305979728699,True,3,['r'],True,0.3333333333333333,0.3333333333333333,0.0,0.0,2.0,0.5793801642856949,0.0,unsucc_cost,0,1,453.2305979728699,None,pt3,1,2023-03-30_11h44.39.847,threat_forest,2021.2.3,59.81787817376163,
11,0,11,0,5,0,5,0,,,,,,,,,,left,0.6580088138580322,460.0799729824066,pt3,460.0799729824066,None,451.2308168411255,453.2305979728699,True,1,['r'],True,0.3333333333333333,0.3333333333333333,0.0,0.0,2.0,0.5793801642856949,0.3333333333333332,unsucc_cost,0,0,458.88744592666626,None,pt3,1,2023-03-30_11h44.39.847,threat_forest,2021.2.3,59.81787817376163,
11,0,11,0,,,,,,,,,,,,,,,,,,,,,,,,,,,,,,,,,,,,462.77492094039917,None,pt3,1,2023-03-30_11h44.39.847,threat_forest,2021.2.3,59.81787817376163,
12,0,12,0,0,0,0,0,,,,,,,463.62438201904297,467.12969493865967,None,left,1.4520800113677979,467.82138991355896,pt3,463.62438201904297,467.12969493865967,467.82138991355896,None,False,4,['p'],False,0.16,0.2,0.2,2.0,2.0,0.8198746470064713,0.0,wait_cost,1,3,,,pt3,1,2023-03-30_11h44.39.847,threat_forest,2021.2.3,59.81787817376163,
12,0,12,0,1,0,1,0,,,,,,,,,,right,1.4879648685455322,472.0119569301605,pt3,472.0119569301605,None,469.30537700653076,471.3183000087738,False,3,['p'],True,0.25,0.5,0.5,1.0,2.0,0.9463946303571862,-0.5,wait_cost,0,2,471.3183000087738,None,pt3,1,2023-03-30_11h44.39.847,threat_forest,2021.2.3,59.81787817376163,
12,0,12,0,2,0,2,0,,,,,,,,,,left,1.2202699184417725,476.6291859149933,pt3,476.6291859149933,None,469.30537700653076,471.3183000087738,True,2,['p'],True,0.25,0.5,0.5,1.0,2.0,0.9463946303571862,-0.75,unsucc_cost,0,0,475.5227749347687,None,pt3,1,2023-03-30_11h44.39.847,threat_forest,2021.2.3,59.81787817376163,
12,0,12,0,,,,,,,,,,,,,,,,,,,,,,,,,,,,,,,,,,,,479.89444494247437,None,pt3,1,2023-03-30_11h44.39.847,threat_forest,2021.2.3,59.81787817376163,
13,0,13,0,0,0,0,0,,,,,,,482.78503489494324,486.2848789691925,None,left,1.892467975616455,489.13101983070374,pt3,482.78503489494324,486.2848789691925,489.13101983070374,None,False,5,['r'],False,0.36,0.6,0.4,2.0,1.0,0.9801625908629508,0.0,wait_cost,1,4,,,pt3,1,2023-03-30_11h44.39.847,threat_forest,2021.2.3,59.81787817376163,
13,0,13,0,1,0,1,0,,,,,,,,,,left,0.9594919681549072,493.62864995002747,pt3,493.62864995002747,None,491.04459595680237,493.05919098854065,True,4,['r'],True,0.5,0.5,0.0,0.0,1.0,0.6309297535714574,0.0,succ_gain,0,5,493.05919098854065,None,pt3,1,2023-03-30_11h44.39.847,threat_forest,2021.2.3,59.81787817376163,
13,0,13,0,2,0,2,0,,,,,,,,,,left,0.9278249740600586,498.5519309043884,pt3,494.6116499900818,496.61406087875366,498.5519309043884,None,False,5,['r'],False,0.36,0.6,0.4,2.0,1.0,0.9801625908629508,0.0,wait_cost,1,4,496.61406087875366,None,pt3,1,2023-03-30_11h44.39.847,threat_forest,2021.2.3,59.81787817376163,
13,0,13,0,3,0,3,0,,,,,,,,,,left,0.958812952041626,502.2866859436035,pt3,494.6116499900818,496.61406087875366,502.2866859436035,None,False,4,['r'],False,0.36,0.6,0.4,2.0,1.0,0.9801625908629508,0.0,wait_cost,1,3,501.5023009777069,None,pt3,1,2023-03-30_11h44.39.847,threat_forest,2021.2.3,59.81787817376163,
13,0,13,0,4,0,4,0,,,,,,,,,,left,0.7977309226989746,507.1782338619232,pt3,507.1782338619232,None,503.27578997612,505.2900478839874,True,3,['r'],True,0.5,0.5,0.0,0.0,1.0,0.6309297535714574,0.0,succ_gain,0,4,505.2900478839874,None,pt3,1,2023-03-30_11h44.39.847,threat_forest,2021.2.3,59.81787817376163,
13,0,13,0,5,0,5,0,,,,,,,,,,right,0.9681351184844971,512.0147860050201,pt3,512.0147860050201,None,503.27578997612,505.2900478839874,False,4,['r'],True,0.5,0.5,0.0,0.0,1.0,0.6309297535714574,0.0,wait_cost,0,3,510.0124080181122,None,pt3,1,2023-03-30_11h44.39.847,threat_forest,2021.2.3,59.81787817376163,
13,0,13,0,6,0,6,0,,,,,,,,,,right,0.8064241409301758,516.8322010040283,pt3,516.8322010040283,None,503.27578997612,505.2900478839874,False,3,['r'],True,0.5,0.5,0.0,0.0,1.0,0.6309297535714574,0.0,wait_cost,0,2,515.017805814743,None,pt3,1,2023-03-30_11h44.39.847,threat_forest,2021.2.3,59.81787817376163,
13,0,13,0,7,0,7,0,,,,,,,,,,left,0.931171178817749,520.8971419334412,pt3,517.6752510070801,519.6901648044586,520.8971419334412,None,False,2,['r'],False,0.36,0.6,0.4,2.0,1.0,0.9801625908629508,-0.64,wait_cost,1,1,519.6901648044586,None,pt3,1,2023-03-30_11h44.39.847,threat_forest,2021.2.3,59.81787817376163,
13,0,13,0,,,,,,,,,,,,,,,,,,,,,,,,,,,,,,,,,,,,523.879282951355,None,pt3,1,2023-03-30_11h44.39.847,threat_forest,2021.2.3,59.81787817376163,
14,0,14,0,0,0,0,0,,,,,,,527.3745918273926,530.885904788971,None,left,1.766611099243164,532.9835028648376,pt3,527.3745918273926,530.885904788971,532.9835028648376,None,False,5,['p'],False,0.2,0.2,0.0,0.0,2.0,0.4554859150035951,0.0,wait_cost,1,4,,,pt3,1,2023-03-30_11h44.39.847,threat_forest,2021.2.3,59.81787817376163,
14,0,14,0,1,0,1,0,,,,,,,,,,right,1.7709498405456543,539.496298789978,pt3,527.3745918273926,530.885904788971,539.496298789978,None,True,4,['p'],False,0.2,0.2,0.0,0.0,2.0,0.4554859150035951,0.0,succ_gain,1,6,536.7926888465881,None,pt3,1,2023-03-30_11h44.39.847,threat_forest,2021.2.3,59.81787817376163,
14,0,14,0,2,0,2,0,,,,,,,,,,left,1.0410730838775635,546.7401599884033,pt3,527.3745918273926,530.885904788971,546.7401599884033,None,False,6,['p'],False,0.2,0.2,0.0,0.0,2.0,0.4554859150035951,0.0,wait_cost,1,5,543.3061590194702,None,pt3,1,2023-03-30_11h44.39.847,threat_forest,2021.2.3,59.81787817376163,
14,0,14,0,3,0,3,0,,,,,,,,,,right,0.8969230651855469,550.560017824173,pt3,550.560017824173,None,547.8106698989868,549.8204379081726,False,5,['p'],True,0.2777777777777778,0.3333333333333333,0.1666666666666666,1.0,2.0,0.8929352898779304,0.0,wait_cost,0,4,549.8204379081726,None,pt3,1,2023-03-30_11h44.39.847,threat_forest,2021.2.3,59.81787817376163,
14,0,14,0,4,0,4,0,,,,,,,,,,right,1.1908419132232666,555.9669048786163,pt3,551.4817109107971,553.4952449798584,555.9669048786163,None,True,4,['p'],False,0.2,0.2,0.0,0.0,2.0,0.4554859150035951,0.0,unsucc_cost,1,2,553.4952449798584,None,pt3,1,2023-03-30_11h44.39.847,threat_forest,2021.2.3,59.81787817376163,
14,0,14,0,5,0,5,0,,,,,,,,,,right,1.845879077911377,561.9797239303589,pt3,561.9797239303589,None,557.1881129741669,559.2017087936401,False,2,['p'],True,0.2777777777777778,0.3333333333333333,0.1666666666666666,1.0,2.0,0.8929352898779304,-0.7222222222222223,wait_cost,0,1,559.2017087936401,None,pt3,1,2023-03-30_11h44.39.847,threat_forest,2021.2.3,59.81787817376163,
14,0,14,0,6,0,6,0,,,,,,,,,,left,0.8864240646362305,567.3396098613739,pt3,567.3396098613739,None,557.1881129741669,559.2017087936401,True,1,['p'],True,0.2777777777777778,0.3333333333333333,0.1666666666666666,1.0,2.0,0.8929352898779304,0.2777777777777777,unsucc_cost,0,0,565.8759458065033,None,pt3,1,2023-03-30_11h44.39.847,threat_forest,2021.2.3,59.81787817376163,
14,0,14,0,,,,,,,,,,,,,,,,,,,,,,,,,,,,,,,,,,,,570.2645478248596,None,pt3,1,2023-03-30_11h44.39.847,threat_forest,2021.2.3,59.81787817376163,
15,0,15,0,0,0,0,0,,,,,,,573.6345918178558,577.1334629058838,None,left,1.868152141571045,578.3183128833771,pt3,573.6345918178558,577.1334629058838,578.3183128833771,None,False,5,['r'],False,0.36,0.6,0.4,2.0,2.0,0.9801625908629508,0.0,wait_cost,1,4,,,pt3,1,2023-03-30_11h44.39.847,threat_forest,2021.2.3,59.81787817376163,
15,0,15,0,1,0,1,0,,,,,,,,,,left,0.8046009540557861,583.1795649528503,pt3,583.1795649528503,None,580.2102658748627,582.2111790180206,True,4,['r'],True,0.5,0.5,0.0,0.0,2.0,0.6309297535714574,0.0,unsucc_cost,0,2,582.2111790180206,None,pt3,1,2023-03-30_11h44.39.847,threat_forest,2021.2.3,59.81787817376163,
15,0,15,0,2,0,2,0,,,,,,,,,,left,0.6681301593780518,588.2441878318787,pt3,588.2441878318787,None,580.2102658748627,582.2111790180206,True,2,['r'],True,0.5,0.5,0.0,0.0,2.0,0.6309297535714574,-0.5,succ_gain,0,4,586.0152368545532,None,pt3,1,2023-03-30_11h44.39.847,threat_forest,2021.2.3,59.81787817376163,
15,0,15,0,3,0,3,0,,,,,,,,,,right,2.078253984451294,594.3278260231018,pt3,588.9365448951721,590.9382109642029,594.3278260231018,None,True,4,['r'],False,0.36,0.6,0.4,2.0,2.0,0.9801625908629508,0.0,unsucc_cost,1,2,590.9382109642029,None,pt3,1,2023-03-30_11h44.39.847,threat_forest,2021.2.3,59.81787817376163,
15,0,15,0,4,0,4,0,,,,,,,,,,right,1.5437378883361816,601.3168869018555,pt3,588.9365448951721,590.9382109642029,601.3168869018555,None,True,2,['r'],False,0.36,0.6,0.4,2.0,2.0,0.9801625908629508,-0.64,succ_gain,1,4,598.4405198097229,None,pt3,1,2023-03-30_11h44.39.847,threat_forest,2021.2.3,59.81787817376163,
15,0,15,0,5,0,5,0,,,,,,,,,,right,0.8808839321136475,605.7476589679718,pt3,605.7476589679718,None,602.8892118930817,604.9035449028015,False,4,['r'],True,0.5,0.5,0.0,0.0,2.0,0.6309297535714574,0.0,wait_cost,0,3,604.9035449028015,None,pt3,1,2023-03-30_11h44.39.847,threat_forest,2021.2.3,59.81787817376163,
15,0,15,0,6,0,6,0,,,,,,,,,,right,0.6658830642700195,611.538519859314,pt3,611.538519859314,None,602.8892118930817,604.9035449028015,False,3,['r'],True,0.5,0.5,0.0,0.0,2.0,0.6309297535714574,0.0,wait_cost,0,2,608.6807107925415,None,pt3,1,2023-03-30_11h44.39.847,threat_forest,2021.2.3,59.81787817376163,
15,0,15,0,7,0,7,0,,,,,,,,,,right,0.7433450222015381,617.0602970123291,pt3,617.0602970123291,None,602.8892118930817,604.9035449028015,False,2,['r'],True,0.5,0.5,0.0,0.0,2.0,0.6309297535714574,-0.5,wait_cost,0,1,614.247386932373,None,pt3,1,2023-03-30_11h44.39.847,threat_forest,2021.2.3,59.81787817376163,
15,0,15,0,,,,,,,,,,,,,,,,,,,,,,,,,,,,,,,,,,,,619.8333539962769,None,pt3,1,2023-03-30_11h44.39.847,threat_forest,2021.2.3,59.81787817376163,
16,0,16,0,0,0,0,0,,,,,,,621.9122018814087,625.4267909526825,None,left,2.085129976272583,628.164223909378,pt3,628.164223909378,None,621.9122018814087,625.4267909526825,True,4,['r'],True,0.3333333333333333,0.3333333333333333,0.0,0.0,2.0,0.5793801642856949,0.0,succ_gain,0,6,,,pt3,1,2023-03-30_11h44.39.847,threat_forest,2021.2.3,59.81787817376163,
16,0,16,0,1,0,1,0,,,,,,,,,,right,1.128467082977295,633.3981850147247,pt3,633.3981850147247,None,621.9122018814087,625.4267909526825,False,6,['r'],True,0.3333333333333333,0.3333333333333333,0.0,0.0,2.0,0.5793801642856949,0.0,wait_cost,0,5,632.2876768112183,None,pt3,1,2023-03-30_11h44.39.847,threat_forest,2021.2.3,59.81787817376163,
16,0,16,0,2,0,2,0,,,,,,,,,,right,1.6935169696807861,640.3040678501129,pt3,640.3040678501129,None,621.9122018814087,625.4267909526825,False,5,['r'],True,0.3333333333333333,0.3333333333333333,0.0,0.0,2.0,0.5793801642856949,0.0,wait_cost,0,4,636.5726008415222,None,pt3,1,2023-03-30_11h44.39.847,threat_forest,2021.2.3,59.81787817376163,
16,0,16,0,3,0,3,0,,,,,,,,,,right,1.8496429920196533,647.2367877960205,pt3,642.0350008010864,644.0484409332275,647.2367877960205,None,True,4,['r'],False,0.24,0.4,0.4,2.0,2.0,0.9801625908629508,0.0,unsucc_cost,1,2,644.0484409332275,None,pt3,1,2023-03-30_11h44.39.847,threat_forest,2021.2.3,59.81787817376163,
16,0,16,0,4,0,4,0,,,,,,,,,,right,1.4445369243621826,653.1539268493652,pt3,642.0350008010864,644.0484409332275,653.1539268493652,None,True,2,['r'],False,0.24,0.4,0.4,2.0,2.0,0.9801625908629508,-0.76,figh_cost,1,0,651.1064269542694,None,pt3,1,2023-03-30_11h44.39.847,threat_forest,2021.2.3,59.81787817376163,
16,0,16,0,,,,,,,,,,,,,,,,,,,,,,,,,,,,,,,,,,,,656.6402349472046,None,pt3,1,2023-03-30_11h44.39.847,threat_forest,2021.2.3,59.81787817376163,
17,0,17,0,0,0,0,0,,,,,,,659.5090608596802,663.0196080207825,None,left,2.599940061569214,664.0160179138184,pt3,659.5090608596802,663.0196080207825,664.0160179138184,None,False,4,['p'],False,0.1975308641975308,0.2222222222222222,0.1111111111111111,1.0,1.0,0.7461067557824965,0.0,wait_cost,1,3,,,pt3,1,2023-03-30_11h44.39.847,threat_forest,2021.2.3,59.81787817376163,
17,0,17,0,1,0,1,0,,,,,,,,,,right,1.3604199886322021,669.777853012085,pt3,669.777853012085,None,666.6459608078003,668.6597340106964,False,3,['p'],True,0.32,0.4,0.2,1.0,1.0,0.9455672104350704,-0.2,wait_cost,0,2,668.6597340106964,None,pt3,1,2023-03-30_11h44.39.847,threat_forest,2021.2.3,59.81787817376163,
17,0,17,0,2,0,2,0,,,,,,,,,,left,1.113487958908081,676.5890698432922,pt3,671.1618528366089,673.1649827957153,676.5890698432922,None,False,2,['p'],False,0.1975308641975308,0.2222222222222222,0.1111111111111111,1.0,1.0,0.7461067557824965,-0.8024691358024691,wait_cost,1,1,673.1649827957153,None,pt3,1,2023-03-30_11h44.39.847,threat_forest,2021.2.3,59.81787817376163,
17,0,17,0,3,0,3,0,,,,,,,,,,left,1.2726409435272217,680.6897668838501,pt3,680.6897668838501,None,677.7255117893219,679.7416689395905,True,1,['p'],True,0.32,0.4,0.2,1.0,1.0,0.9455672104350704,0.32,succ_gain,0,2,679.7416689395905,None,pt3,1,2023-03-30_11h44.39.847,threat_forest,2021.2.3,59.81787817376163,
17,0,17,0,4,0,4,0,,,,,,,,,,left,0.9461569786071777,686.7592058181763,pt3,686.7592058181763,None,677.7255117893219,679.7416689395905,True,2,['p'],True,0.32,0.4,0.2,1.0,1.0,0.9455672104350704,-0.6799999999999999,unsucc_cost,0,0,683.9941499233246,None,pt3,1,2023-03-30_11h44.39.847,threat_forest,2021.2.3,59.81787817376163,
17,0,17,0,,,,,,,,,,,,,,,,,,,,,,,,,,,,,,,,,,,,689.7538928985596,None,pt3,1,2023-03-30_11h44.39.847,threat_forest,2021.2.3,59.81787817376163,
