miniblock.thisRepN,miniblock.thisTrialN,miniblock.thisN,miniblock.thisIndex,day.thisRepN,day.thisTrialN,day.thisN,day.thisIndex,welcoming.started,welcoming.stopped,key_resp_2.keys,key_resp_2.rt,key_resp_2.started,key_resp_2.stopped,forest.started,fixation_forest.started,fixation_forest.stopped,key_resp.keys,key_resp.rt,key_resp.started,Subject_ID,weather_left.started,weather_left.stopped,weather_right.started,weather_right.stopped,foraging T/F,in_LP,p/r heuristic,good_weather.T/F,p_succ_correct,p_succ_uncorrected,r_threat,n_oponents,gain_if_succ,weather_entropy,OP_value_difference,action_outcome,forest_side_L=0_R=1,out_LP,fixation_day.started,fixation_day.stopped,participant,session,date,expName,psychopyVersion,frameRate,
,,,,,,,,31.99952279998979,None,space,4.331556399993133,31.99952279998979,None,,,,,,,,,,,,,,,,,,,,,,,,,,,,rn14,1,2023-03-30_11h23.48.840,threat_forest,2021.2.3,60.094420355144244,
0,0,0,0,0,0,0,0,,,,,,,36.38254209999286,39.88762389999465,None,right,0.8289640000002692,42.07951640000101,rn14,36.38254209999286,39.88762389999465,42.07951640000101,None,True,4,['r'],False,0.345679012345679,0.4444444444444444,0.2222222222222222,2.0,2.0,0.9685033186841367,0.0,succ_gain,1,6,,,rn14,1,2023-03-30_11h23.48.840,threat_forest,2021.2.3,60.094420355144244,
0,0,0,0,1,0,1,0,,,,,,,,,,right,0.8139475000061793,47.12651449999248,rn14,47.12651449999248,None,42.92695880000247,44.94129200000316,False,6,['r'],True,0.4285714285714285,0.4285714285714285,0.0,0.0,2.0,0.6216097450797565,0.0,wait_cost,0,5,44.94129200000316,None,rn14,1,2023-03-30_11h23.48.840,threat_forest,2021.2.3,60.094420355144244,
0,0,0,0,2,0,2,0,,,,,,,,,,right,1.4846581000019796,50.54011190000165,rn14,47.972159999990254,49.98648399999365,50.54011190000165,None,True,5,['r'],False,0.345679012345679,0.4444444444444444,0.2222222222222222,2.0,2.0,0.9685033186841367,0.0,figh_cost,1,2,49.98648399999365,None,rn14,1,2023-03-30_11h23.48.840,threat_forest,2021.2.3,60.094420355144244,
0,0,0,0,3,0,3,0,,,,,,,,,,left,1.1660002999997232,55.28232329999446,rn14,47.972159999990254,49.98648399999365,55.28232329999446,None,False,2,['r'],False,0.345679012345679,0.4444444444444444,0.2222222222222222,2.0,2.0,0.9685033186841367,-0.654320987654321,wait_cost,1,1,54.06602169999678,None,rn14,1,2023-03-30_11h23.48.840,threat_forest,2021.2.3,60.094420355144244,
0,0,0,0,4,0,4,0,,,,,,,,,,left,0.5951901000080397,61.00991609999619,rn14,61.00991609999619,None,56.48085100000026,58.49525779999385,True,1,['r'],True,0.4285714285714285,0.4285714285714285,0.0,0.0,2.0,0.6216097450797565,0.4285714285714285,unsucc_cost,0,0,58.49525779999385,None,rn14,1,2023-03-30_11h23.48.840,threat_forest,2021.2.3,60.094420355144244,
0,0,0,0,,,,,,,,,,,,,,,,,,,,,,,,,,,,,,,,,,,,63.64531459999853,None,rn14,1,2023-03-30_11h23.48.840,threat_forest,2021.2.3,60.094420355144244,
1,0,1,0,0,0,0,0,,,,,,,67.09967219999817,70.60064279999642,None,right,1.0145690000063041,74.33093440000084,rn14,67.09967219999817,70.60064279999642,74.33093440000084,None,True,4,['p'],False,0.2448979591836734,0.2857142857142857,0.1428571428571428,1.0,1.0,0.8400769154957735,0.0,figh_cost,1,1,,,rn14,1,2023-03-30_11h23.48.840,threat_forest,2021.2.3,60.094420355144244,
1,0,1,0,1,0,1,0,,,,,,,,,,right,1.3871768999961205,79.74244950000138,rn14,67.09967219999817,70.60064279999642,79.74244950000138,None,True,1,['p'],False,0.2448979591836734,0.2857142857142857,0.1428571428571428,1.0,1.0,0.8400769154957735,0.2448979591836735,unsucc_cost,1,0,77.37761789999786,None,rn14,1,2023-03-30_11h23.48.840,threat_forest,2021.2.3,60.094420355144244,
1,0,1,0,,,,,,,,,,,,,,,,,,,,,,,,,,,,,,,,,,,,83.17236349999439,None,rn14,1,2023-03-30_11h23.48.840,threat_forest,2021.2.3,60.094420355144244,
2,0,2,0,0,0,0,0,,,,,,,84.71147690000362,88.21745899999223,None,left,0.7025846000033198,91.49852919999103,rn14,91.49852919999103,None,84.71147690000362,88.21745899999223,True,5,['r'],True,0.4,0.4,0.0,0.0,1.0,0.6126016192893442,0.0,unsucc_cost,0,3,,,rn14,1,2023-03-30_11h23.48.840,threat_forest,2021.2.3,60.094420355144244,
2,0,2,0,1,0,1,0,,,,,,,,,,right,1.0535966000024928,97.96007699999609,rn14,92.23080799999298,94.24517449999985,97.96007699999609,None,True,3,['r'],False,0.3333333333333333,0.5,0.3333333333333333,2.0,1.0,1.0,-0.3333333333333333,figh_cost,1,0,94.24517449999985,None,rn14,1,2023-03-30_11h23.48.840,threat_forest,2021.2.3,60.094420355144244,
2,0,2,0,,,,,,,,,,,,,,,,,,,,,,,,,,,,,,,,,,,,101.05555649999587,None,rn14,1,2023-03-30_11h23.48.840,threat_forest,2021.2.3,60.094420355144244,
3,0,3,0,0,0,0,0,,,,,,,103.39702289999695,106.90002619998995,None,right,0.9687339999945834,108.2495357000007,rn14,103.39702289999695,106.90002619998995,108.2495357000007,None,True,5,['p'],False,0.2,0.2,0.0,0.0,2.0,0.4554859150035951,0.0,succ_gain,1,6,,,rn14,1,2023-03-30_11h23.48.840,threat_forest,2021.2.3,60.094420355144244,
3,0,3,0,1,0,1,0,,,,,,,,,,right,1.2536743999953615,114.6764916999964,rn14,103.39702289999695,106.90002619998995,114.6764916999964,None,True,6,['p'],False,0.2,0.2,0.0,0.0,2.0,0.4554859150035951,0.0,succ_gain,1,6,111.26263630000176,None,rn14,1,2023-03-30_11h23.48.840,threat_forest,2021.2.3,60.094420355144244,
3,0,3,0,2,0,2,0,,,,,,,,,,right,0.8730901000089943,119.85485839999455,rn14,103.39702289999695,106.90002619998995,119.85485839999455,None,True,6,['p'],False,0.2,0.2,0.0,0.0,2.0,0.4554859150035951,0.0,unsucc_cost,1,4,117.97300959999848,None,rn14,1,2023-03-30_11h23.48.840,threat_forest,2021.2.3,60.094420355144244,
3,0,3,0,3,0,3,0,,,,,,,,,,right,0.9129822999966564,125.31676149999839,rn14,103.39702289999695,106.90002619998995,125.31676149999839,None,True,4,['p'],False,0.2,0.2,0.0,0.0,2.0,0.4554859150035951,0.0,succ_gain,1,6,122.76885619999666,None,rn14,1,2023-03-30_11h23.48.840,threat_forest,2021.2.3,60.094420355144244,
3,0,3,0,4,0,4,0,,,,,,,,,,right,1.9519851000077324,128.85013269999763,rn14,128.85013269999763,None,126.24895090000064,128.2634235000005,False,6,['p'],True,0.375,0.5,0.25,1.0,2.0,0.9850568223215076,0.0,wait_cost,0,5,128.2634235000005,None,rn14,1,2023-03-30_11h23.48.840,threat_forest,2021.2.3,60.094420355144244,
3,0,3,0,5,0,5,0,,,,,,,,,,left,1.0643972999969264,134.09262349999335,rn14,134.09262349999335,None,126.24895090000064,128.2634235000005,True,5,['p'],True,0.375,0.5,0.25,1.0,2.0,0.9850568223215076,0.0,unsucc_cost,0,3,132.84240839999984,None,rn14,1,2023-03-30_11h23.48.840,threat_forest,2021.2.3,60.094420355144244,
3,0,3,0,6,0,6,0,,,,,,,,,,right,1.0296572000079323,140.18604299999424,rn14,140.18604299999424,None,126.24895090000064,128.2634235000005,False,3,['p'],True,0.375,0.5,0.25,1.0,2.0,0.9850568223215076,-0.25,wait_cost,0,2,137.18830019999587,None,rn14,1,2023-03-30_11h23.48.840,threat_forest,2021.2.3,60.094420355144244,
3,0,3,0,7,0,7,0,,,,,,,,,,left,1.870057899999665,145.91390390000015,rn14,141.23506759999145,143.24934880000365,145.91390390000015,None,False,2,['p'],False,0.2,0.2,0.0,0.0,2.0,0.4554859150035951,-0.8,wait_cost,1,1,143.24934880000365,None,rn14,1,2023-03-30_11h23.48.840,threat_forest,2021.2.3,60.094420355144244,
3,0,3,0,,,,,,,,,,,,,,,,,,,,,,,,,,,,,,,,,,,,149.82654090000142,None,rn14,1,2023-03-30_11h23.48.840,threat_forest,2021.2.3,60.094420355144244,
4,0,4,0,0,0,0,0,,,,,,,152.06720560000394,155.57112389999384,None,left,1.6413840000022901,158.47217239999736,rn14,158.47217239999736,None,152.06720560000394,155.57112389999384,True,4,['p'],True,0.375,0.5,0.25,1.0,2.0,0.9850568223215076,0.0,figh_cost,0,1,,,rn14,1,2023-03-30_11h23.48.840,threat_forest,2021.2.3,60.094420355144244,
4,0,4,0,1,0,1,0,,,,,,,,,,right,0.7925622999900952,162.73142389999703,rn14,160.13406640000176,162.14844089999679,162.73142389999703,None,True,1,['p'],False,0.1728395061728395,0.2222222222222222,0.2222222222222222,2.0,2.0,0.8571721972794328,0.1728395061728395,figh_cost,1,0,162.14844089999679,None,rn14,1,2023-03-30_11h23.48.840,threat_forest,2021.2.3,60.094420355144244,
4,0,4,0,,,,,,,,,,,,,,,,,,,,,,,,,,,,,,,,,,,,165.5619927999942,None,rn14,1,2023-03-30_11h23.48.840,threat_forest,2021.2.3,60.094420355144244,
5,0,5,0,0,0,0,0,,,,,,,169.07189009999274,172.57199379999656,None,right,0.7433884000056423,175.0892085999949,rn14,169.07189009999274,172.57199379999656,175.0892085999949,None,True,5,['p'],False,0.2962962962962963,0.3333333333333333,0.1111111111111111,1.0,1.0,0.8325252476189534,0.0,succ_gain,1,6,,,rn14,1,2023-03-30_11h23.48.840,threat_forest,2021.2.3,60.094420355144244,
5,0,5,0,1,0,1,0,,,,,,,,,,right,1.3963918999943417,178.74012679999578,rn14,178.74012679999578,None,175.8525568999903,177.867010499991,False,6,['p'],True,0.48,0.6,0.2,1.0,1.0,0.9455672104350704,0.0,wait_cost,0,5,177.867010499991,None,rn14,1,2023-03-30_11h23.48.840,threat_forest,2021.2.3,60.094420355144244,
5,0,5,0,2,0,2,0,,,,,,,,,,right,0.8785651000071084,185.8610742000019,rn14,180.16537940000126,182.1796364000038,185.8610742000019,None,True,5,['p'],False,0.2962962962962963,0.3333333333333333,0.1111111111111111,1.0,1.0,0.8325252476189534,0.0,succ_gain,1,6,182.1796364000038,None,rn14,1,2023-03-30_11h23.48.840,threat_forest,2021.2.3,60.094420355144244,
5,0,5,0,3,0,3,0,,,,,,,,,,right,0.6549980999989202,192.25395339999523,rn14,180.16537940000126,182.1796364000038,192.25395339999523,None,True,6,['p'],False,0.2962962962962963,0.3333333333333333,0.1111111111111111,1.0,1.0,0.8325252476189534,0.0,unsucc_cost,1,4,188.77346549999493,None,rn14,1,2023-03-30_11h23.48.840,threat_forest,2021.2.3,60.094420355144244,
5,0,5,0,4,0,4,0,,,,,,,,,,right,1.3005335999914678,196.3013862999942,rn14,196.3013862999942,None,192.93668030000117,194.9510650000011,False,4,['p'],True,0.48,0.6,0.2,1.0,1.0,0.9455672104350704,0.0,wait_cost,0,3,194.9510650000011,None,rn14,1,2023-03-30_11h23.48.840,threat_forest,2021.2.3,60.094420355144244,
5,0,5,0,5,0,5,0,,,,,,,,,,right,1.076921100000618,200.87979619999533,rn14,197.6323621999909,199.6467100000009,200.87979619999533,None,True,3,['p'],False,0.2962962962962963,0.3333333333333333,0.1111111111111111,1.0,1.0,0.8325252476189534,-0.1111111111111111,succ_gain,1,4,199.6467100000009,None,rn14,1,2023-03-30_11h23.48.840,threat_forest,2021.2.3,60.094420355144244,
5,0,5,0,6,0,6,0,,,,,,,,,,right,0.6301024999993388,206.77674619999016,rn14,206.77674619999016,None,201.97815759999503,203.99257899999793,False,4,['p'],True,0.48,0.6,0.2,1.0,1.0,0.9455672104350704,0.0,wait_cost,0,3,203.99257899999793,None,rn14,1,2023-03-30_11h23.48.840,threat_forest,2021.2.3,60.094420355144244,
5,0,5,0,7,0,7,0,,,,,,,,,,left,0.7899891999986721,211.12754380000115,rn14,207.42297179999878,209.43748680000135,211.12754380000115,None,False,3,['p'],False,0.2962962962962963,0.3333333333333333,0.1111111111111111,1.0,1.0,0.8325252476189534,-0.1111111111111111,wait_cost,1,2,209.43748680000135,None,rn14,1,2023-03-30_11h23.48.840,threat_forest,2021.2.3,60.094420355144244,
5,0,5,0,,,,,,,,,,,,,,,,,,,,,,,,,,,,,,,,,,,,213.95004169999447,None,rn14,1,2023-03-30_11h23.48.840,threat_forest,2021.2.3,60.094420355144244,
6,0,6,0,0,0,0,0,,,,,,,216.72671529999934,220.22747250000248,None,left,1.2636217000108445,222.7116595999978,rn14,222.7116595999978,None,216.72671529999934,220.22747250000248,True,5,['r'],True,0.6,0.6,0.0,0.0,1.0,0.6126016192893442,0.0,figh_cost,0,2,,,rn14,1,2023-03-30_11h23.48.840,threat_forest,2021.2.3,60.094420355144244,
6,0,6,0,1,0,1,0,,,,,,,,,,right,0.7144932000082918,229.31928260000132,rn14,224.00757609998982,226.02205309999408,229.31928260000132,None,True,2,['r'],False,0.46875,0.625,0.25,2.0,1.0,0.9634951148421658,-0.53125,succ_gain,1,3,226.02205309999408,None,rn14,1,2023-03-30_11h23.48.840,threat_forest,2021.2.3,60.094420355144244,
6,0,6,0,2,0,2,0,,,,,,,,,,right,1.1035780000092927,232.85085580000305,rn14,232.85085580000305,None,230.05189479999535,232.0663598999963,False,3,['r'],True,0.6,0.6,0.0,0.0,1.0,0.6126016192893442,0.0,wait_cost,0,2,232.0663598999963,None,rn14,1,2023-03-30_11h23.48.840,threat_forest,2021.2.3,60.094420355144244,
6,0,6,0,3,0,3,0,,,,,,,,,,right,0.6293017999996664,237.678044699991,rn14,233.98160590000043,235.99601039999106,237.678044699991,None,True,2,['r'],False,0.46875,0.625,0.25,2.0,1.0,0.9634951148421658,-0.53125,succ_gain,1,3,235.99601039999106,None,rn14,1,2023-03-30_11h23.48.840,threat_forest,2021.2.3,60.094420355144244,
6,0,6,0,4,0,4,0,,,,,,,,,,right,0.8422713999898406,241.0916140999907,rn14,233.98160590000043,235.99601039999106,241.0916140999907,None,True,3,['r'],False,0.46875,0.625,0.25,2.0,1.0,0.9634951148421658,-0.25,unsucc_cost,1,1,240.34195349999936,None,rn14,1,2023-03-30_11h23.48.840,threat_forest,2021.2.3,60.094420355144244,
6,0,6,0,5,0,5,0,,,,,,,,,,left,1.594007599996985,244.85748369999055,rn14,244.85748369999055,None,241.95737829999416,243.9719044999947,True,1,['r'],True,0.6,0.6,0.0,0.0,1.0,0.6126016192893442,0.6,unsucc_cost,0,0,243.9719044999947,None,rn14,1,2023-03-30_11h23.48.840,threat_forest,2021.2.3,60.094420355144244,
6,0,6,0,,,,,,,,,,,,,,,,,,,,,,,,,,,,,,,,,,,,248.46769449999556,None,rn14,1,2023-03-30_11h23.48.840,threat_forest,2021.2.3,60.094420355144244,
7,0,7,0,0,0,0,0,,,,,,,252.1575324000005,255.66093949999777,None,right,1.476666299990029,256.28054859999975,rn14,256.28054859999975,None,252.1575324000005,255.66093949999777,False,5,['p'],True,0.4444444444444445,0.6666666666666666,0.3333333333333333,1.0,2.0,0.9656336071428248,0.0,wait_cost,0,4,,,rn14,1,2023-03-30_11h23.48.840,threat_forest,2021.2.3,60.094420355144244,
7,0,7,0,1,0,1,0,,,,,,,,,,right,1.2692804000107571,262.7218266999989,rn14,262.7218266999989,None,252.1575324000005,255.66093949999777,False,4,['p'],True,0.4444444444444445,0.6666666666666666,0.3333333333333333,1.0,2.0,0.9656336071428248,0.0,wait_cost,0,3,259.79038520000177,None,rn14,1,2023-03-30_11h23.48.840,threat_forest,2021.2.3,60.094420355144244,
7,0,7,0,2,0,2,0,,,,,,,,,,right,0.661705799997435,268.182942799991,rn14,264.02022629999556,266.03450090000115,268.182942799991,None,True,3,['p'],False,0.18,0.2,0.1,1.0,2.0,0.7058405977926203,-0.1,succ_gain,1,5,266.03450090000115,None,rn14,1,2023-03-30_11h23.48.840,threat_forest,2021.2.3,60.094420355144244,
7,0,7,0,3,0,3,0,,,,,,,,,,right,0.7752454000001308,272.332570700004,rn14,272.332570700004,None,268.86558369999693,270.8800889999984,False,5,['p'],True,0.4444444444444445,0.6666666666666666,0.3333333333333333,1.0,2.0,0.9656336071428248,0.0,wait_cost,0,4,270.8800889999984,None,rn14,1,2023-03-30_11h23.48.840,threat_forest,2021.2.3,60.094420355144244,
7,0,7,0,4,0,4,0,,,,,,,,,,right,0.6343652000068687,278.27353720000247,rn14,273.12846680000075,275.14271230000304,278.27353720000247,None,True,4,['p'],False,0.18,0.2,0.1,1.0,2.0,0.7058405977926203,0.0,succ_gain,1,6,275.14271230000304,None,rn14,1,2023-03-30_11h23.48.840,threat_forest,2021.2.3,60.094420355144244,
7,0,7,0,5,0,5,0,,,,,,,,,,left,0.58292739999888,284.4844085999939,rn14,273.12846680000075,275.14271230000304,284.4844085999939,None,False,6,['p'],False,0.18,0.2,0.1,1.0,2.0,0.7058405977926203,0.0,wait_cost,1,5,280.95399019999604,None,rn14,1,2023-03-30_11h23.48.840,threat_forest,2021.2.3,60.094420355144244,
7,0,7,0,6,0,6,0,,,,,,,,,,left,0.6549514999933308,290.21225169999525,rn14,273.12846680000075,275.14271230000304,290.21225169999525,None,False,5,['p'],False,0.18,0.2,0.1,1.0,2.0,0.7058405977926203,0.0,wait_cost,1,4,287.09828369999013,None,rn14,1,2023-03-30_11h23.48.840,threat_forest,2021.2.3,60.094420355144244,
7,0,7,0,7,0,7,0,,,,,,,,,,right,0.5816324000043096,294.6445260999899,rn14,294.6445260999899,None,290.89502480000374,292.9094505999965,False,4,['p'],True,0.4444444444444445,0.6666666666666666,0.3333333333333333,1.0,2.0,0.9656336071428248,0.0,wait_cost,0,3,292.9094505999965,None,rn14,1,2023-03-30_11h23.48.840,threat_forest,2021.2.3,60.094420355144244,
7,0,7,0,,,,,,,,,,,,,,,,,,,,,,,,,,,,,,,,,,,,297.2720907999901,None,rn14,1,2023-03-30_11h23.48.840,threat_forest,2021.2.3,60.094420355144244,
8,0,8,0,0,0,0,0,,,,,,,298.5339860999957,302.02646670000104,None,right,0.8271359000063967,304.9819259999931,rn14,298.5339860999957,302.02646670000104,304.9819259999931,None,True,5,['r'],False,0.24,0.3,0.2,2.0,2.0,0.9003120349047065,0.0,succ_gain,1,6,,,rn14,1,2023-03-30_11h23.48.840,threat_forest,2021.2.3,60.094420355144244,
8,0,8,0,1,0,1,0,,,,,,,,,,right,1.4531806000013603,310.7245757999917,rn14,310.7245757999917,None,305.83125380000274,307.84542689999216,False,6,['r'],True,0.2857142857142857,0.2857142857142857,0.0,0.0,2.0,0.5445684476282007,0.0,wait_cost,0,5,307.84542689999216,None,rn14,1,2023-03-30_11h23.48.840,threat_forest,2021.2.3,60.094420355144244,
8,0,8,0,2,0,2,0,,,,,,,,,,right,0.8490958000038518,316.1215523999999,rn14,316.1215523999999,None,305.83125380000274,307.84542689999216,False,5,['r'],True,0.2857142857142857,0.2857142857142857,0.0,0.0,2.0,0.5445684476282007,0.0,wait_cost,0,4,314.2229107000021,None,rn14,1,2023-03-30_11h23.48.840,threat_forest,2021.2.3,60.094420355144244,
8,0,8,0,3,0,3,0,,,,,,,,,,right,1.067412600008538,319.91780260000087,rn14,316.9874257999909,319.0017802999937,319.91780260000087,None,True,4,['r'],False,0.24,0.3,0.2,2.0,2.0,0.9003120349047065,0.0,unsucc_cost,1,2,319.0017802999937,None,rn14,1,2023-03-30_11h23.48.840,threat_forest,2021.2.3,60.094420355144244,
8,0,8,0,4,0,4,0,,,,,,,,,,left,2.090807600005064,326.81408219999867,rn14,326.81408219999867,None,321.0169472999987,323.031229500004,True,2,['r'],True,0.2857142857142857,0.2857142857142857,0.0,0.0,2.0,0.5445684476282007,-0.7142857142857143,figh_cost,0,0,323.031229500004,None,rn14,1,2023-03-30_11h23.48.840,threat_forest,2021.2.3,60.094420355144244,
8,0,8,0,,,,,,,,,,,,,,,,,,,,,,,,,,,,,,,,,,,,330.94067959999666,None,rn14,1,2023-03-30_11h23.48.840,threat_forest,2021.2.3,60.094420355144244,
9,0,9,0,0,0,0,0,,,,,,,334.27818280000065,337.7841974999901,None,left,0.6467888999904972,340.23238269999274,rn14,340.23238269999274,None,334.27818280000065,337.7841974999901,True,4,['r'],True,0.25,0.25,0.0,0.0,1.0,0.5118595071429148,0.0,unsucc_cost,0,2,,,rn14,1,2023-03-30_11h23.48.840,threat_forest,2021.2.3,60.094420355144244,
9,0,9,0,1,0,1,0,,,,,,,,,,right,0.4684717000054661,346.60954589999164,rn14,340.89834220000193,342.9126316000038,346.60954589999164,None,True,2,['r'],False,0.2222222222222222,0.6666666666666666,0.6666666666666666,2.0,1.0,0.77250688571426,-0.7777777777777778,unsucc_cost,1,0,342.9126316000038,None,rn14,1,2023-03-30_11h23.48.840,threat_forest,2021.2.3,60.094420355144244,
9,0,9,0,,,,,,,,,,,,,,,,,,,,,,,,,,,,,,,,,,,,349.12373559999105,None,rn14,1,2023-03-30_11h23.48.840,threat_forest,2021.2.3,60.094420355144244,
10,0,10,0,0,0,0,0,,,,,,,350.96875620000355,354.4670793999976,None,right,1.0426896999997552,358.0842496999976,rn14,350.96875620000355,354.4670793999976,358.0842496999976,None,True,4,['p'],False,0.3950617283950617,0.4444444444444444,0.1111111111111111,1.0,2.0,0.8733423231021583,0.0,succ_gain,1,6,,,rn14,1,2023-03-30_11h23.48.840,threat_forest,2021.2.3,60.094420355144244,
10,0,10,0,1,0,1,0,,,,,,,,,,right,1.1307355000026291,363.3773063999979,rn14,350.96875620000355,354.4670793999976,363.3773063999979,None,True,6,['p'],False,0.3950617283950617,0.4444444444444444,0.1111111111111111,1.0,2.0,0.8733423231021583,0.0,unsucc_cost,1,4,361.162221999999,None,rn14,1,2023-03-30_11h23.48.840,threat_forest,2021.2.3,60.094420355144244,
10,0,10,0,2,0,2,0,,,,,,,,,,right,0.7190611000114586,369.1052609000035,rn14,350.96875620000355,354.4670793999976,369.1052609000035,None,True,4,['p'],False,0.3950617283950617,0.4444444444444444,0.1111111111111111,1.0,2.0,0.8733423231021583,0.0,succ_gain,1,6,366.54070409999986,None,rn14,1,2023-03-30_11h23.48.840,threat_forest,2021.2.3,60.094420355144244,
10,0,10,0,3,0,3,0,,,,,,,,,,left,1.2985506999975769,374.7000015999947,rn14,350.96875620000355,354.4670793999976,374.7000015999947,None,False,6,['p'],False,0.3950617283950617,0.4444444444444444,0.1111111111111111,1.0,2.0,0.8733423231021583,0.0,wait_cost,1,5,371.8690127000009,None,rn14,1,2023-03-30_11h23.48.840,threat_forest,2021.2.3,60.094420355144244,
10,0,10,0,4,0,4,0,,,,,,,,,,left,1.1411238000000594,379.44571590000123,rn14,350.96875620000355,354.4670793999976,379.44571590000123,None,False,5,['p'],False,0.3950617283950617,0.4444444444444444,0.1111111111111111,1.0,2.0,0.8733423231021583,0.0,wait_cost,1,4,378.0299154999957,None,rn14,1,2023-03-30_11h23.48.840,threat_forest,2021.2.3,60.094420355144244,
10,0,10,0,5,0,5,0,,,,,,,,,,left,0.7194091999990633,383.2587177999958,rn14,350.96875620000355,354.4670793999976,383.2587177999958,None,False,4,['p'],False,0.3950617283950617,0.4444444444444444,0.1111111111111111,1.0,2.0,0.8733423231021583,0.0,wait_cost,1,3,382.6255969999911,None,rn14,1,2023-03-30_11h23.48.840,threat_forest,2021.2.3,60.094420355144244,
10,0,10,0,6,0,6,0,,,,,,,,,,left,0.5426373000082094,387.0562613999937,rn14,387.0562613999937,None,384.008038400003,386.0224165999971,True,3,['p'],True,0.5555555555555556,0.6666666666666666,0.1666666666666666,1.0,2.0,0.8929352898779306,-0.1666666666666666,succ_gain,0,5,386.0224165999971,None,rn14,1,2023-03-30_11h23.48.840,threat_forest,2021.2.3,60.094420355144244,
10,0,10,0,7,0,7,0,,,,,,,,,,left,1.527787900005933,393.31758039999113,rn14,387.62130879999313,389.6356015999918,393.31758039999113,None,False,5,['p'],False,0.3950617283950617,0.4444444444444444,0.1111111111111111,1.0,2.0,0.8733423231021583,0.0,wait_cost,1,4,389.6356015999918,None,rn14,1,2023-03-30_11h23.48.840,threat_forest,2021.2.3,60.094420355144244,
10,0,10,0,,,,,,,,,,,,,,,,,,,,,,,,,,,,,,,,,,,,396.87899529999413,None,rn14,1,2023-03-30_11h23.48.840,threat_forest,2021.2.3,60.094420355144244,
11,0,11,0,0,0,0,0,,,,,,,399.1146153000009,402.6236358000024,None,left,1.559924500004854,405.0051119999989,rn14,405.0051119999989,None,399.1146153000009,402.6236358000024,True,4,['r'],True,0.5,0.5,0.0,0.0,1.0,0.6309297535714574,0.0,figh_cost,0,1,,,rn14,1,2023-03-30_11h23.48.840,threat_forest,2021.2.3,60.094420355144244,
11,0,11,0,1,0,1,0,,,,,,,,,,left,0.8845823000010569,412.34811989999434,rn14,412.34811989999434,None,399.1146153000009,402.6236358000024,True,1,['r'],True,0.5,0.5,0.0,0.0,1.0,0.6309297535714574,0.5,figh_cost,0,0,408.60131269998965,None,rn14,1,2023-03-30_11h23.48.840,threat_forest,2021.2.3,60.094420355144244,
11,0,11,0,,,,,,,,,,,,,,,,,,,,,,,,,,,,,,,,,,,,415.2785135000013,None,rn14,1,2023-03-30_11h23.48.840,threat_forest,2021.2.3,60.094420355144244,
12,0,12,0,0,0,0,0,,,,,,,418.4664150000026,421.97221019999415,None,right,1.0278218000021297,425.6201998000033,rn14,418.4664150000026,421.97221019999415,425.6201998000033,None,True,4,['r'],False,0.24,0.4,0.4,2.0,2.0,0.9801625908629508,0.0,unsucc_cost,1,2,,,rn14,1,2023-03-30_11h23.48.840,threat_forest,2021.2.3,60.094420355144244,
12,0,12,0,1,0,1,0,,,,,,,,,,right,0.7612435999908485,430.7143500999955,rn14,418.4664150000026,421.97221019999415,430.7143500999955,None,True,2,['r'],False,0.24,0.4,0.4,2.0,2.0,0.9801625908629508,-0.76,unsucc_cost,1,0,428.6825865999999,None,rn14,1,2023-03-30_11h23.48.840,threat_forest,2021.2.3,60.094420355144244,
12,0,12,0,,,,,,,,,,,,,,,,,,,,,,,,,,,,,,,,,,,,433.5115059999953,None,rn14,1,2023-03-30_11h23.48.840,threat_forest,2021.2.3,60.094420355144244,
13,0,13,0,0,0,0,0,,,,,,,437.0857163000037,440.5881017999927,None,right,1.1702874999900814,441.3714667000022,rn14,437.0857163000037,440.5881017999927,441.3714667000022,None,True,4,['r'],False,0.2040816326530612,0.2857142857142857,0.2857142857142857,2.0,2.0,0.9335459102197724,0.0,unsucc_cost,1,2,,,rn14,1,2023-03-30_11h23.48.840,threat_forest,2021.2.3,60.094420355144244,
13,0,13,0,1,0,1,0,,,,,,,,,,right,1.813080700012506,445.56715370000165,rn14,445.56715370000165,None,442.56997529999353,444.5843431999965,False,2,['r'],True,0.25,0.25,0.0,0.0,2.0,0.5118595071429148,-0.75,wait_cost,0,1,444.5843431999965,None,rn14,1,2023-03-30_11h23.48.840,threat_forest,2021.2.3,60.094420355144244,
13,0,13,0,2,0,2,0,,,,,,,,,,left,0.8821616000059294,450.4628778999904,rn14,450.4628778999904,None,442.56997529999353,444.5843431999965,True,1,['r'],True,0.25,0.25,0.0,0.0,2.0,0.5118595071429148,0.25,unsucc_cost,0,0,449.4130956000008,None,rn14,1,2023-03-30_11h23.48.840,threat_forest,2021.2.3,60.094420355144244,
13,0,13,0,,,,,,,,,,,,,,,,,,,,,,,,,,,,,,,,,,,,453.3761611999944,None,rn14,1,2023-03-30_11h23.48.840,threat_forest,2021.2.3,60.094420355144244,
14,0,14,0,0,0,0,0,,,,,,,454.70317229999637,458.19366209999134,None,right,0.9175021999981254,458.9046967000031,rn14,454.70317229999637,458.19366209999134,458.9046967000031,None,True,5,['p'],False,0.16,0.2,0.2,2.0,2.0,0.8198746470064713,0.0,succ_gain,1,6,,,rn14,1,2023-03-30_11h23.48.840,threat_forest,2021.2.3,60.094420355144244,
14,0,14,0,1,0,1,0,,,,,,,,,,right,0.9014039000030607,464.72155079999357,rn14,464.72155079999357,None,459.85385020000103,461.8682203999924,False,6,['p'],True,0.24,0.4,0.4,2.0,2.0,0.9801625908629508,0.0,wait_cost,0,5,461.8682203999924,None,rn14,1,2023-03-30_11h23.48.840,threat_forest,2021.2.3,60.094420355144244,
14,0,14,0,2,0,2,0,,,,,,,,,,right,1.5289478000049712,468.76212990000204,rn14,468.76212990000204,None,459.85385020000103,461.8682203999924,False,5,['p'],True,0.24,0.4,0.4,2.0,2.0,0.9801625908629508,0.0,wait_cost,0,4,467.662679999994,None,rn14,1,2023-03-30_11h23.48.840,threat_forest,2021.2.3,60.094420355144244,
14,0,14,0,3,0,3,0,,,,,,,,,,left,1.1775805999932345,474.3737974999967,rn14,474.3737974999967,None,459.85385020000103,461.8682203999924,True,4,['p'],True,0.24,0.4,0.4,2.0,2.0,0.9801625908629508,0.0,succ_gain,0,6,472.3250016999955,None,rn14,1,2023-03-30_11h23.48.840,threat_forest,2021.2.3,60.094420355144244,
14,0,14,0,4,0,4,0,,,,,,,,,,right,0.5449679000012111,480.3523037999985,rn14,480.3523037999985,None,459.85385020000103,461.8682203999924,False,6,['p'],True,0.24,0.4,0.4,2.0,2.0,0.9801625908629508,0.0,wait_cost,0,5,477.5867586999957,None,rn14,1,2023-03-30_11h23.48.840,threat_forest,2021.2.3,60.094420355144244,
14,0,14,0,5,0,5,0,,,,,,,,,,left,1.0112369999988005,486.0799107999919,rn14,480.91744160000235,482.9347118000005,486.0799107999919,None,False,5,['p'],False,0.16,0.2,0.2,2.0,2.0,0.8198746470064713,0.0,wait_cost,1,4,482.9347118000005,None,rn14,1,2023-03-30_11h23.48.840,threat_forest,2021.2.3,60.094420355144244,
14,0,14,0,6,0,6,0,,,,,,,,,,right,0.612771200001589,492.2932665999979,rn14,492.2932665999979,None,487.11154729999544,489.1283604999917,False,4,['p'],True,0.24,0.4,0.4,2.0,2.0,0.9801625908629508,0.0,wait_cost,0,3,489.1283604999917,None,rn14,1,2023-03-30_11h23.48.840,threat_forest,2021.2.3,60.094420355144244,
14,0,14,0,7,0,7,0,,,,,,,,,,right,0.687496899990947,498.16794669999217,rn14,498.16794669999217,None,487.11154729999544,489.1283604999917,False,3,['p'],True,0.24,0.4,0.4,2.0,2.0,0.9801625908629508,-0.4,wait_cost,0,2,494.93723959999625,None,rn14,1,2023-03-30_11h23.48.840,threat_forest,2021.2.3,60.094420355144244,
14,0,14,0,,,,,,,,,,,,,,,,,,,,,,,,,,,,,,,,,,,,500.89835469999525,None,rn14,1,2023-03-30_11h23.48.840,threat_forest,2021.2.3,60.094420355144244,
15,0,15,0,0,0,0,0,,,,,,,502.62677649999387,506.1264070999896,None,left,1.579974799999036,509.0747535999981,rn14,509.0747535999981,None,502.62677649999387,506.1264070999896,True,4,['p'],True,0.2222222222222222,0.3333333333333333,0.3333333333333333,2.0,2.0,0.9656336071428248,0.0,unsucc_cost,0,2,,,rn14,1,2023-03-30_11h23.48.840,threat_forest,2021.2.3,60.094420355144244,
15,0,15,0,1,0,1,0,,,,,,,,,,left,1.4188626000104705,515.2552485999913,rn14,510.67286789999343,512.6873619999969,515.2552485999913,None,False,2,['p'],False,0.16,0.2,0.2,2.0,2.0,0.8198746470064713,-0.8400000000000001,wait_cost,1,1,512.6873619999969,None,rn14,1,2023-03-30_11h23.48.840,threat_forest,2021.2.3,60.094420355144244,
15,0,15,0,2,0,2,0,,,,,,,,,,left,0.6888353999966057,522.3785568000021,rn14,522.3785568000021,None,516.7008533999906,518.7150865000003,True,1,['p'],True,0.2222222222222222,0.3333333333333333,0.3333333333333333,2.0,2.0,0.9656336071428248,0.2222222222222221,unsucc_cost,0,0,518.7150865000003,None,rn14,1,2023-03-30_11h23.48.840,threat_forest,2021.2.3,60.094420355144244,
15,0,15,0,,,,,,,,,,,,,,,,,,,,,,,,,,,,,,,,,,,,525.1091796999972,None,rn14,1,2023-03-30_11h23.48.840,threat_forest,2021.2.3,60.094420355144244,
16,0,16,0,0,0,0,0,,,,,,,526.9525365000009,530.4540140000026,None,left,1.5593815999891376,533.50186389999,rn14,533.50186389999,None,526.9525365000009,530.4540140000026,True,4,['p'],True,0.4444444444444445,0.6666666666666666,0.3333333333333333,1.0,2.0,0.9656336071428248,0.0,succ_gain,0,6,,,rn14,1,2023-03-30_11h23.48.840,threat_forest,2021.2.3,60.094420355144244,
16,0,16,0,1,0,1,0,,,,,,,,,,right,0.4409217000065837,538.5301283000008,rn14,538.5301283000008,None,526.9525365000009,530.4540140000026,False,6,['p'],True,0.4444444444444445,0.6666666666666666,0.3333333333333333,1.0,2.0,0.9656336071428248,0.0,wait_cost,0,5,537.0978211000038,None,rn14,1,2023-03-30_11h23.48.840,threat_forest,2021.2.3,60.094420355144244,
16,0,16,0,2,0,2,0,,,,,,,,,,right,1.5699776000110433,543.0962318999955,rn14,538.9963397999963,541.010804199992,543.0962318999955,None,True,5,['p'],False,0.27,0.3,0.1,1.0,2.0,0.7963326591781347,0.0,unsucc_cost,1,3,541.010804199992,None,rn14,1,2023-03-30_11h23.48.840,threat_forest,2021.2.3,60.094420355144244,
16,0,16,0,3,0,3,0,,,,,,,,,,left,1.5479263000015635,548.2551107000036,rn14,538.9963397999963,541.010804199992,548.2551107000036,None,False,3,['p'],False,0.27,0.3,0.1,1.0,2.0,0.7963326591781347,-0.1,wait_cost,1,2,546.7054938999936,None,rn14,1,2023-03-30_11h23.48.840,threat_forest,2021.2.3,60.094420355144244,
16,0,16,0,4,0,4,0,,,,,,,,,,left,0.6661375999974553,553.0166809999937,rn14,553.0166809999937,None,549.819699899992,551.8340300999989,True,2,['p'],True,0.4444444444444445,0.6666666666666666,0.3333333333333333,1.0,2.0,0.9656336071428248,-0.5555555555555556,unsucc_cost,0,0,551.8340300999989,None,rn14,1,2023-03-30_11h23.48.840,threat_forest,2021.2.3,60.094420355144244,
16,0,16,0,,,,,,,,,,,,,,,,,,,,,,,,,,,,,,,,,,,,555.7304901000025,None,rn14,1,2023-03-30_11h23.48.840,threat_forest,2021.2.3,60.094420355144244,
17,0,17,0,0,0,0,0,,,,,,,556.5869636999996,560.0930032000033,None,right,0.9050790999899618,563.8238455999963,rn14,556.5869636999996,560.0930032000033,563.8238455999963,None,True,5,['r'],False,0.4081632653061224,0.5714285714285714,0.2857142857142857,2.0,1.0,0.9885754083994552,0.0,succ_gain,1,6,,,rn14,1,2023-03-30_11h23.48.840,threat_forest,2021.2.3,60.094420355144244,
17,0,17,0,1,0,1,0,,,,,,,,,,right,1.274366600002395,568.0193101999903,rn14,568.0193101999903,None,564.7557338999904,566.7701871000027,False,6,['r'],True,0.5,0.5,0.0,0.0,1.0,0.6309297535714574,0.0,wait_cost,0,5,566.7701871000027,None,rn14,1,2023-03-30_11h23.48.840,threat_forest,2021.2.3,60.094420355144244,
17,0,17,0,2,0,2,0,,,,,,,,,,right,0.819621399990865,572.9158211000031,rn14,569.3180107999942,571.3325025999948,572.9158211000031,None,True,5,['r'],False,0.4081632653061224,0.5714285714285714,0.2857142857142857,2.0,1.0,0.9885754083994552,0.0,unsucc_cost,1,3,571.3325025999948,None,rn14,1,2023-03-30_11h23.48.840,threat_forest,2021.2.3,60.094420355144244,
17,0,17,0,3,0,3,0,,,,,,,,,,left,0.6177396999992197,578.3599178000004,rn14,578.3599178000004,None,573.763955699993,575.7783559999953,True,3,['r'],True,0.5,0.5,0.0,0.0,1.0,0.6309297535714574,0.0,succ_gain,0,4,575.7783559999953,None,rn14,1,2023-03-30_11h23.48.840,threat_forest,2021.2.3,60.094420355144244,
17,0,17,0,4,0,4,0,,,,,,,,,,left,1.52650910000375,582.4072525999945,rn14,579.0089834999962,581.0234562999976,582.4072525999945,None,False,4,['r'],False,0.4081632653061224,0.5714285714285714,0.2857142857142857,2.0,1.0,0.9885754083994552,0.0,wait_cost,1,3,581.0234562999976,None,rn14,1,2023-03-30_11h23.48.840,threat_forest,2021.2.3,60.094420355144244,
17,0,17,0,5,0,5,0,,,,,,,,,,right,1.9583767000003718,588.383539100003,rn14,579.0089834999962,581.0234562999976,588.383539100003,None,True,3,['r'],False,0.4081632653061224,0.5714285714285714,0.2857142857142857,2.0,1.0,0.9885754083994552,-0.2857142857142857,succ_gain,1,4,585.9687324999977,None,rn14,1,2023-03-30_11h23.48.840,threat_forest,2021.2.3,60.094420355144244,
17,0,17,0,6,0,6,0,,,,,,,,,,left,0.7168032000045059,595.9433754999918,rn14,579.0089834999962,581.0234562999976,595.9433754999918,None,False,4,['r'],False,0.4081632653061224,0.5714285714285714,0.2857142857142857,2.0,1.0,0.9885754083994552,0.0,wait_cost,1,3,592.379469099993,None,rn14,1,2023-03-30_11h23.48.840,threat_forest,2021.2.3,60.094420355144244,
17,0,17,0,7,0,7,0,,,,,,,,,,right,1.1156257999973604,601.8542433999974,rn14,601.8542433999974,None,596.6925082999951,598.7069582999975,False,3,['r'],True,0.5,0.5,0.0,0.0,1.0,0.6309297535714574,0.0,wait_cost,0,2,598.7069582999975,None,rn14,1,2023-03-30_11h23.48.840,threat_forest,2021.2.3,60.094420355144244,
17,0,17,0,,,,,,,,,,,,,,,,,,,,,,,,,,,,,,,,,,,,605.0011259000021,None,rn14,1,2023-03-30_11h23.48.840,threat_forest,2021.2.3,60.094420355144244,
