miniblock.thisRepN,miniblock.thisTrialN,miniblock.thisN,miniblock.thisIndex,day.thisRepN,day.thisTrialN,day.thisN,day.thisIndex,welcoming.started,welcoming.stopped,key_resp_2.keys,key_resp_2.rt,key_resp_2.started,key_resp_2.stopped,forest.started,fixation_forest.started,fixation_forest.stopped,key_resp.keys,key_resp.rt,key_resp.started,Subject_ID,weather_left.started,weather_left.stopped,weather_right.started,weather_right.stopped,foraging T/F,in_LP,p/r heuristic,good_weather.T/F,p_succ_correct,p_succ_uncorrected,r_threat,n_oponents,gain_if_succ,weather_entropy,OP_value_difference,action_outcome,forest_side_L=0_R=1,out_LP,fixation_day.started,fixation_day.stopped,participant,session,date,expName,psychopyVersion,frameRate,
,,,,,,,,29.727027300046757,None,space,3.12182220001705,29.727027300046757,None,,,,,,,,,,,,,,,,,,,,,,,,,,,,xt17,1,2022-04-21_14h26.14.214,threat_forest,2021.2.3,59.928469364518065,
0,0,0,0,0,0,0,0,,,,,,,32.89644769998267,36.40041349991225,None,right,2.403665400110185,39.388858099933714,xt17,32.89644769998267,36.40041349991225,39.388858099933714,None,True,4,['p'],False,0.27,0.3,0.1,1.0,1.0,0.7963326591781347,0.0,succ_gain,1,5,,,xt17,1,2022-04-21_14h26.14.214,threat_forest,2021.2.3,59.928469364518065,
0,0,0,0,1,0,1,0,,,,,,,,,,left,1.4438672000542283,45.20106059988029,xt17,45.20106059988029,None,41.81750790006481,43.81764529994689,True,5,['p'],True,0.4444444444444445,0.6666666666666666,0.3333333333333333,1.0,1.0,0.9656336071428248,0.0,succ_gain,0,6,43.81764529994689,None,xt17,1,2022-04-21_14h26.14.214,threat_forest,2021.2.3,59.928469364518065,
0,0,0,0,2,0,2,0,,,,,,,,,,left,2.3919657999649644,50.46799180004746,xt17,50.46799180004746,None,41.81750790006481,43.81764529994689,True,6,['p'],True,0.4444444444444445,0.6666666666666666,0.3333333333333333,1.0,1.0,0.9656336071428248,0.0,succ_gain,0,6,48.66747420001775,None,xt17,1,2022-04-21_14h26.14.214,threat_forest,2021.2.3,59.928469364518065,
0,0,0,0,3,0,3,0,,,,,,,,,,left,1.805174299981445,56.37222360004671,xt17,52.88442280003801,54.88410030002706,56.37222360004671,None,False,6,['p'],False,0.27,0.3,0.1,1.0,1.0,0.7963326591781347,0.0,wait_cost,1,5,54.88410030002706,None,xt17,1,2022-04-21_14h26.14.214,threat_forest,2021.2.3,59.928469364518065,
0,0,0,0,4,0,4,0,,,,,,,,,,right,2.056655399966985,62.83474369999021,xt17,52.88442280003801,54.88410030002706,62.83474369999021,None,True,5,['p'],False,0.27,0.3,0.1,1.0,1.0,0.7963326591781347,0.0,succ_gain,1,6,60.200880100019276,None,xt17,1,2022-04-21_14h26.14.214,threat_forest,2021.2.3,59.928469364518065,
0,0,0,0,5,0,5,0,,,,,,,,,,left,1.9992933999747038,69.3513853000477,xt17,52.88442280003801,54.88410030002706,69.3513853000477,None,False,6,['p'],False,0.27,0.3,0.1,1.0,1.0,0.7963326591781347,0.0,wait_cost,1,5,66.91760899988003,None,xt17,1,2022-04-21_14h26.14.214,threat_forest,2021.2.3,59.928469364518065,
0,0,0,0,6,0,6,0,,,,,,,,,,left,1.6118672001175582,76.65225640009157,xt17,52.88442280003801,54.88410030002706,76.65225640009157,None,False,5,['p'],False,0.27,0.3,0.1,1.0,1.0,0.7963326591781347,0.0,wait_cost,1,4,73.36775259999558,None,xt17,1,2022-04-21_14h26.14.214,threat_forest,2021.2.3,59.928469364518065,
0,0,0,0,7,0,7,0,,,,,,,,,,right,2.3233151000458747,82.38524309988134,xt17,82.38524309988134,None,78.2848062000703,80.28450100007467,False,4,['p'],True,0.4444444444444445,0.6666666666666666,0.3333333333333333,1.0,1.0,0.9656336071428248,0.0,wait_cost,0,3,80.28450100007467,None,xt17,1,2022-04-21_14h26.14.214,threat_forest,2021.2.3,59.928469364518065,
0,0,0,0,,,,,,,,,,,,,,,,,,,,,,,,,,,,,,,,,,,,86.73475180007517,None,xt17,1,2022-04-21_14h26.14.214,threat_forest,2021.2.3,59.928469364518065,
1,0,1,0,0,0,0,0,,,,,,,88.97963030007668,92.48471889994107,None,right,0.943366400199011,94.6352462999057,xt17,88.97963030007668,92.48471889994107,94.6352462999057,None,True,5,['p'],False,0.1875,0.25,0.25,2.0,1.0,0.895754137500101,0.0,figh_cost,1,2,,,xt17,1,2022-04-21_14h26.14.214,threat_forest,2021.2.3,59.928469364518065,
1,0,1,0,1,0,1,0,,,,,,,,,,right,0.9981099001597613,98.13541230000556,xt17,88.97963030007668,92.48471889994107,98.13541230000556,None,True,2,['p'],False,0.1875,0.25,0.25,2.0,1.0,0.895754137500101,-0.8125,figh_cost,1,0,97.6014553999994,None,xt17,1,2022-04-21_14h26.14.214,threat_forest,2021.2.3,59.928469364518065,
1,0,1,0,,,,,,,,,,,,,,,,,,,,,,,,,,,,,,,,,,,,101.15160420001484,None,xt17,1,2022-04-21_14h26.14.214,threat_forest,2021.2.3,59.928469364518065,
2,0,2,0,0,0,0,0,,,,,,,103.32474120007828,106.83482409990393,None,left,2.2818126000929624,109.13689019996673,xt17,103.32474120007828,106.83482409990393,109.13689019996673,None,False,5,['p'],False,0.2040816326530612,0.2857142857142857,0.2857142857142857,2.0,2.0,0.9335459102197724,0.0,wait_cost,1,4,,,xt17,1,2022-04-21_14h26.14.214,threat_forest,2021.2.3,59.928469364518065,
2,0,2,0,1,0,1,0,,,,,,,,,,left,2.0073467998299748,116.76888339989819,xt17,116.76888339989819,None,111.43525139987469,113.43493009987287,True,4,['p'],True,0.4444444444444445,0.6666666666666666,0.3333333333333333,1.0,2.0,0.9656336071428248,0.0,figh_cost,0,1,113.43493009987287,None,xt17,1,2022-04-21_14h26.14.214,threat_forest,2021.2.3,59.928469364518065,
2,0,2,0,2,0,2,0,,,,,,,,,,None,,122.7188385000918,xt17,122.7188385000918,None,111.43525139987469,113.43493009987287,None,1,['p'],True,0.4444444444444445,0.6666666666666666,0.3333333333333333,1.0,2.0,0.9656336071428248,0.4444444444444444,wait_cost,0,0,120.80168949998915,None,xt17,1,2022-04-21_14h26.14.214,threat_forest,2021.2.3,59.928469364518065,
2,0,2,0,,,,,,,,,,,,,,,,,,,,,,,,,,,,,,,,,,,,127.71884320001118,None,xt17,1,2022-04-21_14h26.14.214,threat_forest,2021.2.3,59.928469364518065,
3,0,3,0,0,0,0,0,,,,,,,128.62663830001839,132.13520139991306,None,right,0.7374553000554442,134.45416700001806,xt17,128.62663830001839,132.13520139991306,134.45416700001806,None,True,5,['p'],False,0.2,0.2,0.0,0.0,2.0,0.4554859150035951,0.0,succ_gain,1,6,,,xt17,1,2022-04-21_14h26.14.214,threat_forest,2021.2.3,59.928469364518065,
3,0,3,0,1,0,1,0,,,,,,,,,,right,1.0729882000014186,138.01935989991762,xt17,128.62663830001839,132.13520139991306,138.01935989991762,None,True,6,['p'],False,0.2,0.2,0.0,0.0,2.0,0.4554859150035951,0.0,succ_gain,1,6,137.21865779999644,None,xt17,1,2022-04-21_14h26.14.214,threat_forest,2021.2.3,59.928469364518065,
3,0,3,0,2,0,2,0,,,,,,,,,,right,0.7174420999363065,142.08604829991236,xt17,128.62663830001839,132.13520139991306,142.08604829991236,None,True,6,['p'],False,0.2,0.2,0.0,0.0,2.0,0.4554859150035951,0.0,unsucc_cost,1,4,141.11872350005433,None,xt17,1,2022-04-21_14h26.14.214,threat_forest,2021.2.3,59.928469364518065,
3,0,3,0,3,0,3,0,,,,,,,,,,left,2.9322846999857575,146.8695960000623,xt17,128.62663830001839,132.13520139991306,146.8695960000623,None,False,4,['p'],False,0.2,0.2,0.0,0.0,2.0,0.4554859150035951,0.0,wait_cost,1,3,144.83538009994663,None,xt17,1,2022-04-21_14h26.14.214,threat_forest,2021.2.3,59.928469364518065,
3,0,3,0,4,0,4,0,,,,,,,,,,left,1.40812460007146,154.36939870007336,xt17,154.36939870007336,None,149.8192565999925,151.81895460002124,True,3,['p'],True,0.375,0.5,0.25,1.0,2.0,0.9850568223215076,-0.25,unsucc_cost,0,1,151.81895460002124,None,xt17,1,2022-04-21_14h26.14.214,threat_forest,2021.2.3,59.928469364518065,
3,0,3,0,5,0,5,0,,,,,,,,,,left,1.0180111001245677,161.5532551999204,xt17,161.5532551999204,None,149.8192565999925,151.81895460002124,True,1,['p'],True,0.375,0.5,0.25,1.0,2.0,0.9850568223215076,0.375,succ_gain,0,3,157.8026119999122,None,xt17,1,2022-04-21_14h26.14.214,threat_forest,2021.2.3,59.928469364518065,
3,0,3,0,6,0,6,0,,,,,,,,,,right,2.118450300069526,167.43599439994432,xt17,167.43599439994432,None,149.8192565999925,151.81895460002124,False,3,['p'],True,0.375,0.5,0.25,1.0,2.0,0.9850568223215076,-0.25,wait_cost,0,2,164.6191396000795,None,xt17,1,2022-04-21_14h26.14.214,threat_forest,2021.2.3,59.928469364518065,
3,0,3,0,7,0,7,0,,,,,,,,,,left,1.948027600068599,174.6195529999677,xt17,169.58607960003428,171.58593249996193,174.6195529999677,None,False,2,['p'],False,0.2,0.2,0.0,0.0,2.0,0.4554859150035951,-0.8,wait_cost,1,1,171.58593249996193,None,xt17,1,2022-04-21_14h26.14.214,threat_forest,2021.2.3,59.928469364518065,
3,0,3,0,,,,,,,,,,,,,,,,,,,,,,,,,,,,,,,,,,,,178.60268680006266,None,xt17,1,2022-04-21_14h26.14.214,threat_forest,2021.2.3,59.928469364518065,
4,0,4,0,0,0,0,0,,,,,,,179.22682840004563,182.73598899994977,None,None,,183.9052504999563,xt17,183.9052504999563,None,179.22682840004563,182.73598899994977,None,4,['p'],True,0.25,0.5,0.5,1.0,2.0,0.9463946303571862,0.0,wait_cost,0,3,,,xt17,1,2022-04-21_14h26.14.214,threat_forest,2021.2.3,59.928469364518065,
4,0,4,0,1,0,1,0,,,,,,,,,,left,1.6128712000790983,192.20333579997532,xt17,186.91972230002284,188.91933589987457,192.20333579997532,None,False,3,['p'],False,0.16,0.2,0.2,2.0,2.0,0.8198746470064713,-0.2,wait_cost,1,2,188.91933589987457,None,xt17,1,2022-04-21_14h26.14.214,threat_forest,2021.2.3,59.928469364518065,
4,0,4,0,2,0,2,0,,,,,,,,,,left,1.122816199902445,197.970814100001,xt17,197.970814100001,None,193.8364019000437,195.83631430007517,True,2,['p'],True,0.25,0.5,0.5,1.0,2.0,0.9463946303571862,-0.75,succ_gain,0,4,195.83631430007517,None,xt17,1,2022-04-21_14h26.14.214,threat_forest,2021.2.3,59.928469364518065,
4,0,4,0,3,0,3,0,,,,,,,,,,left,1.8711162998806685,203.00347450003028,xt17,199.12001210008748,201.11961090005934,203.00347450003028,None,False,4,['p'],False,0.16,0.2,0.2,2.0,2.0,0.8198746470064713,0.0,wait_cost,1,3,201.11961090005934,None,xt17,1,2022-04-21_14h26.14.214,threat_forest,2021.2.3,59.928469364518065,
4,0,4,0,4,0,4,0,,,,,,,,,,right,2.343247100012377,209.05581380007789,xt17,209.05581380007789,None,204.90314160007983,206.9032320000697,False,3,['p'],True,0.25,0.5,0.5,1.0,2.0,0.9463946303571862,-0.5,wait_cost,0,2,206.9032320000697,None,xt17,1,2022-04-21_14h26.14.214,threat_forest,2021.2.3,59.928469364518065,
4,0,4,0,5,0,5,0,,,,,,,,,,left,2.0002921000123024,214.92023449996486,xt17,211.4200744999107,213.41976629989222,214.92023449996486,None,False,2,['p'],False,0.16,0.2,0.2,2.0,2.0,0.8198746470064713,-0.8400000000000001,wait_cost,1,1,213.41976629989222,None,xt17,1,2022-04-21_14h26.14.214,threat_forest,2021.2.3,59.928469364518065,
4,0,4,0,6,0,6,0,,,,,,,,,,right,1.3548830999061465,219.72055269987322,xt17,211.4200744999107,213.41976629989222,219.72055269987322,None,True,1,['p'],False,0.16,0.2,0.2,2.0,2.0,0.8198746470064713,0.1599999999999999,unsucc_cost,1,0,218.93654070002958,None,xt17,1,2022-04-21_14h26.14.214,threat_forest,2021.2.3,59.928469364518065,
4,0,4,0,,,,,,,,,,,,,,,,,,,,,,,,,,,,,,,,,,,,223.10330999991857,None,xt17,1,2022-04-21_14h26.14.214,threat_forest,2021.2.3,59.928469364518065,
5,0,5,0,0,0,0,0,,,,,,,226.20664169988595,229.7200444000773,None,right,1.984247000189498,231.62077490007505,xt17,226.20664169988595,229.7200444000773,231.62077490007505,None,True,5,['r'],False,0.36,0.6,0.4,2.0,2.0,0.9801625908629508,0.0,unsucc_cost,1,3,,,xt17,1,2022-04-21_14h26.14.214,threat_forest,2021.2.3,59.928469364518065,
5,0,5,0,1,0,1,0,,,,,,,,,,left,1.7649249001406133,237.920438000001,xt17,237.920438000001,None,233.63699080003425,235.63677900005132,True,3,['r'],True,0.5,0.5,0.0,0.0,2.0,0.6309297535714574,0.0,succ_gain,0,5,235.63677900005132,None,xt17,1,2022-04-21_14h26.14.214,threat_forest,2021.2.3,59.928469364518065,
5,0,5,0,2,0,2,0,,,,,,,,,,right,2.537535100011155,243.58716079988517,xt17,239.70368720008992,241.70353970001452,243.58716079988517,None,True,5,['r'],False,0.36,0.6,0.4,2.0,2.0,0.9801625908629508,0.0,figh_cost,1,2,241.70353970001452,None,xt17,1,2022-04-21_14h26.14.214,threat_forest,2021.2.3,59.928469364518065,
5,0,5,0,3,0,3,0,,,,,,,,,,left,1.2368471000809222,250.60416079987772,xt17,250.60416079987772,None,246.15385679993778,248.15376890008338,True,2,['r'],True,0.5,0.5,0.0,0.0,2.0,0.6309297535714574,-0.5,succ_gain,0,4,248.15376890008338,None,xt17,1,2022-04-21_14h26.14.214,threat_forest,2021.2.3,59.928469364518065,
5,0,5,0,4,0,4,0,,,,,,,,,,left,1.9083798001520336,255.3206253000535,xt17,255.3206253000535,None,246.15385679993778,248.15376890008338,True,4,['r'],True,0.5,0.5,0.0,0.0,2.0,0.6309297535714574,0.0,succ_gain,0,6,253.87063069990836,None,xt17,1,2022-04-21_14h26.14.214,threat_forest,2021.2.3,59.928469364518065,
5,0,5,0,5,0,5,0,,,,,,,,,,left,1.063550200080499,260.8382701999508,xt17,257.2542667000089,259.2538574000355,260.8382701999508,None,False,6,['r'],False,0.36,0.6,0.4,2.0,2.0,0.9801625908629508,0.0,wait_cost,1,5,259.2538574000355,None,xt17,1,2022-04-21_14h26.14.214,threat_forest,2021.2.3,59.928469364518065,
5,0,5,0,6,0,6,0,,,,,,,,,,left,1.1210600999183953,267.5044533999171,xt17,257.2542667000089,259.2538574000355,267.5044533999171,None,False,5,['r'],False,0.36,0.6,0.4,2.0,2.0,0.9801625908629508,0.0,wait_cost,1,4,263.9209165000357,None,xt17,1,2022-04-21_14h26.14.214,threat_forest,2021.2.3,59.928469364518065,
5,0,5,0,7,0,7,0,,,,,,,,,,None,,274.021401300095,xt17,274.021401300095,None,268.65439449995756,270.65405880007893,None,4,['r'],True,0.5,0.5,0.0,0.0,2.0,0.6309297535714574,0.0,wait_cost,0,3,270.65405880007893,None,xt17,1,2022-04-21_14h26.14.214,threat_forest,2021.2.3,59.928469364518065,
5,0,5,0,,,,,,,,,,,,,,,,,,,,,,,,,,,,,,,,,,,,279.02079569990747,None,xt17,1,2022-04-21_14h26.14.214,threat_forest,2021.2.3,59.928469364518065,
6,0,6,0,0,0,0,0,,,,,,,281.02743029990233,284.53754279995337,None,left,2.3387139001861215,286.13927739998326,xt17,281.02743029990233,284.53754279995337,286.13927739998326,None,False,4,['p'],False,0.2,0.2,0.0,0.0,1.0,0.4554859150035951,0.0,wait_cost,1,3,,,xt17,1,2022-04-21_14h26.14.214,threat_forest,2021.2.3,59.928469364518065,
6,0,6,0,1,0,1,0,,,,,,,,,,left,2.0065083000808954,292.7713709999807,xt17,292.7713709999807,None,288.50451959995553,290.50463470001705,True,3,['p'],True,0.4444444444444445,0.6666666666666666,0.3333333333333333,1.0,1.0,0.9656336071428248,-0.3333333333333333,unsucc_cost,0,1,290.50463470001705,None,xt17,1,2022-04-21_14h26.14.214,threat_forest,2021.2.3,59.928469364518065,
6,0,6,0,2,0,2,0,,,,,,,,,,left,1.6719153001904488,299.02152410009876,xt17,299.02152410009876,None,288.50451959995553,290.50463470001705,True,1,['p'],True,0.4444444444444445,0.6666666666666666,0.3333333333333333,1.0,1.0,0.9656336071428248,0.4444444444444444,succ_gain,0,2,296.804474900011,None,xt17,1,2022-04-21_14h26.14.214,threat_forest,2021.2.3,59.928469364518065,
6,0,6,0,3,0,3,0,,,,,,,,,,left,1.9573315000161529,303.3550161998719,xt17,303.3550161998719,None,288.50451959995553,290.50463470001705,True,2,['p'],True,0.4444444444444445,0.6666666666666666,0.3333333333333333,1.0,1.0,0.9656336071428248,-0.5555555555555556,unsucc_cost,0,0,302.7211650998797,None,xt17,1,2022-04-21_14h26.14.214,threat_forest,2021.2.3,59.928469364518065,
6,0,6,0,,,,,,,,,,,,,,,,,,,,,,,,,,,,,,,,,,,,307.3379836999811,None,xt17,1,2022-04-21_14h26.14.214,threat_forest,2021.2.3,59.928469364518065,
7,0,7,0,0,0,0,0,,,,,,,309.6609364999458,313.17125599994324,None,left,1.2522586998529732,316.85530689987354,xt17,316.85530689987354,None,309.6609364999458,313.17125599994324,True,4,['p'],True,0.4444444444444445,0.6666666666666666,0.3333333333333333,1.0,1.0,0.9656336071428248,0.0,figh_cost,0,1,,,xt17,1,2022-04-21_14h26.14.214,threat_forest,2021.2.3,59.928469364518065,
7,0,7,0,1,0,1,0,,,,,,,,,,left,2.341855099890381,321.72156299999915,xt17,321.72156299999915,None,309.6609364999458,313.17125599994324,True,1,['p'],True,0.4444444444444445,0.6666666666666666,0.3333333333333333,1.0,1.0,0.9656336071428248,0.4444444444444444,succ_gain,0,2,320.1382911999244,None,xt17,1,2022-04-21_14h26.14.214,threat_forest,2021.2.3,59.928469364518065,
7,0,7,0,2,0,2,0,,,,,,,,,,left,2.4228258000221103,329.08839450008236,xt17,324.08852700004354,326.08809749991633,329.08839450008236,None,False,2,['p'],False,0.2448979591836734,0.2857142857142857,0.1428571428571428,1.0,1.0,0.8400769154957735,-0.7551020408163265,wait_cost,1,1,326.08809749991633,None,xt17,1,2022-04-21_14h26.14.214,threat_forest,2021.2.3,59.928469364518065,
7,0,7,0,3,0,3,0,,,,,,,,,,left,2.0111988000571728,334.3219101000577,xt17,334.3219101000577,None,331.5385392999742,333.53830590005964,True,1,['p'],True,0.4444444444444445,0.6666666666666666,0.3333333333333333,1.0,1.0,0.9656336071428248,0.4444444444444444,succ_gain,0,2,333.53830590005964,None,xt17,1,2022-04-21_14h26.14.214,threat_forest,2021.2.3,59.928469364518065,
7,0,7,0,4,0,4,0,,,,,,,,,,None,,339.25567399989814,xt17,339.25567399989814,None,331.5385392999742,333.53830590005964,None,2,['p'],True,0.4444444444444445,0.6666666666666666,0.3333333333333333,1.0,1.0,0.9656336071428248,-0.5555555555555556,wait_cost,0,1,338.35504460008815,None,xt17,1,2022-04-21_14h26.14.214,threat_forest,2021.2.3,59.928469364518065,
7,0,7,0,5,0,5,0,,,,,,,,,,left,1.3599211000837386,345.13880630000494,xt17,345.13880630000494,None,331.5385392999742,333.53830590005964,True,1,['p'],True,0.4444444444444445,0.6666666666666666,0.3333333333333333,1.0,1.0,0.9656336071428248,0.4444444444444444,succ_gain,0,2,344.25517569994554,None,xt17,1,2022-04-21_14h26.14.214,threat_forest,2021.2.3,59.928469364518065,
7,0,7,0,6,0,6,0,,,,,,,,,,left,2.439409799873829,349.07223540009,xt17,349.07223540009,None,331.5385392999742,333.53830590005964,True,2,['p'],True,0.4444444444444445,0.6666666666666666,0.3333333333333333,1.0,1.0,0.9656336071428248,-0.5555555555555556,succ_gain,0,3,348.52193289995193,None,xt17,1,2022-04-21_14h26.14.214,threat_forest,2021.2.3,59.928469364518065,
7,0,7,0,7,0,7,0,,,,,,,,,,right,0.5993927998933941,355.0724647999741,xt17,355.0724647999741,None,331.5385392999742,333.53830590005964,False,3,['p'],True,0.4444444444444445,0.6666666666666666,0.3333333333333333,1.0,1.0,0.9656336071428248,-0.3333333333333333,wait_cost,0,2,353.5388068999164,None,xt17,1,2022-04-21_14h26.14.214,threat_forest,2021.2.3,59.928469364518065,
7,0,7,0,,,,,,,,,,,,,,,,,,,,,,,,,,,,,,,,,,,,357.6887232000008,None,xt17,1,2022-04-21_14h26.14.214,threat_forest,2021.2.3,59.928469364518065,
8,0,8,0,0,0,0,0,,,,,,,360.048603199888,363.55534989992157,None,left,1.7016291001345962,365.557683999883,xt17,360.048603199888,363.55534989992157,365.557683999883,None,False,4,['p'],False,0.2,0.2,0.0,0.0,2.0,0.4554859150035951,0.0,wait_cost,1,3,,,xt17,1,2022-04-21_14h26.14.214,threat_forest,2021.2.3,59.928469364518065,
8,0,8,0,1,0,1,0,,,,,,,,,,None,,371.0563477999531,xt17,371.0563477999531,None,367.28911249991506,369.28884169994853,None,3,['p'],True,0.2777777777777778,0.3333333333333333,0.1666666666666666,1.0,2.0,0.8929352898779304,-0.1666666666666666,wait_cost,0,2,369.28884169994853,None,xt17,1,2022-04-21_14h26.14.214,threat_forest,2021.2.3,59.928469364518065,
8,0,8,0,2,0,2,0,,,,,,,,,,right,1.1621880000457168,377.2059581000358,xt17,374.0558120999485,376.05561050004326,377.2059581000358,None,True,2,['p'],False,0.2,0.2,0.0,0.0,2.0,0.4554859150035951,-0.8,unsucc_cost,1,0,376.05561050004326,None,xt17,1,2022-04-21_14h26.14.214,threat_forest,2021.2.3,59.928469364518065,
8,0,8,0,,,,,,,,,,,,,,,,,,,,,,,,,,,,,,,,,,,,380.3890034998767,None,xt17,1,2022-04-21_14h26.14.214,threat_forest,2021.2.3,59.928469364518065,
9,0,9,0,0,0,0,0,,,,,,,382.57803429989144,386.0890392998699,None,right,0.9863003001082689,386.7396835000254,xt17,382.57803429989144,386.0890392998699,386.7396835000254,None,True,4,['r'],False,0.36,0.6,0.4,2.0,1.0,0.9801625908629508,0.0,succ_gain,1,5,,,xt17,1,2022-04-21_14h26.14.214,threat_forest,2021.2.3,59.928469364518065,
9,0,9,0,1,0,1,0,,,,,,,,,,left,2.531001999974251,391.68962679989636,xt17,382.57803429989144,386.0890392998699,391.68962679989636,None,False,5,['r'],False,0.36,0.6,0.4,2.0,1.0,0.9801625908629508,0.0,wait_cost,1,4,389.7557317998726,None,xt17,1,2022-04-21_14h26.14.214,threat_forest,2021.2.3,59.928469364518065,
9,0,9,0,2,0,2,0,,,,,,,,,,right,0.7989888999145478,399.3731879000552,xt17,382.57803429989144,386.0890392998699,399.3731879000552,None,True,4,['r'],False,0.36,0.6,0.4,2.0,1.0,0.9801625908629508,0.0,unsucc_cost,1,2,396.23933489993215,None,xt17,1,2022-04-21_14h26.14.214,threat_forest,2021.2.3,59.928469364518065,
9,0,9,0,3,0,3,0,,,,,,,,,,right,2.4820687000174075,405.74009760003537,xt17,405.74009760003537,None,400.18983460008167,402.18933709990233,False,2,['r'],True,0.5,0.5,0.0,0.0,1.0,0.6309297535714574,-0.5,wait_cost,0,1,402.18933709990233,None,xt17,1,2022-04-21_14h26.14.214,threat_forest,2021.2.3,59.928469364518065,
9,0,9,0,4,0,4,0,,,,,,,,,,left,2.0785987998824567,411.9397497999016,xt17,411.9397497999016,None,400.18983460008167,402.18933709990233,True,1,['r'],True,0.5,0.5,0.0,0.0,1.0,0.6309297535714574,0.5,figh_cost,0,0,410.23945500003174,None,xt17,1,2022-04-21_14h26.14.214,threat_forest,2021.2.3,59.928469364518065,
9,0,9,0,,,,,,,,,,,,,,,,,,,,,,,,,,,,,,,,,,,,416.0395005000755,None,xt17,1,2022-04-21_14h26.14.214,threat_forest,2021.2.3,59.928469364518065,
10,0,10,0,0,0,0,0,,,,,,,418.5997450998984,422.0979329999536,None,None,,424.5264934999868,xt17,424.5264934999868,None,418.5997450998984,422.0979329999536,None,4,['r'],True,0.2857142857142857,0.2857142857142857,0.0,0.0,2.0,0.5445684476282007,0.0,wait_cost,0,3,,,xt17,1,2022-04-21_14h26.14.214,threat_forest,2021.2.3,59.928469364518065,
10,0,10,0,1,0,1,0,,,,,,,,,,left,1.108886499889195,433.19016629992984,xt17,433.19016629992984,None,418.5997450998984,422.0979329999536,True,3,['r'],True,0.2857142857142857,0.2857142857142857,0.0,0.0,2.0,0.5445684476282007,0.0,unsucc_cost,0,1,429.53974279994145,None,xt17,1,2022-04-21_14h26.14.214,threat_forest,2021.2.3,59.928469364518065,
10,0,10,0,2,0,2,0,,,,,,,,,,right,0.9916356999892741,439.7071666000411,xt17,439.7071666000411,None,418.5997450998984,422.0979329999536,False,1,['r'],True,0.2857142857142857,0.2857142857142857,0.0,0.0,2.0,0.5445684476282007,0.2857142857142857,wait_cost,0,0,436.3231627999339,None,xt17,1,2022-04-21_14h26.14.214,threat_forest,2021.2.3,59.928469364518065,
10,0,10,0,,,,,,,,,,,,,,,,,,,,,,,,,,,,,,,,,,,,442.7232691999525,None,xt17,1,2022-04-21_14h26.14.214,threat_forest,2021.2.3,59.928469364518065,
11,0,11,0,0,0,0,0,,,,,,,444.1658375998959,447.6733152999077,None,right,1.2860288999509066,450.96010189992376,xt17,450.96010189992376,None,444.1658375998959,447.6733152999077,False,4,['p'],True,0.4444444444444445,0.6666666666666666,0.3333333333333333,1.0,2.0,0.9656336071428248,0.0,wait_cost,0,3,,,xt17,1,2022-04-21_14h26.14.214,threat_forest,2021.2.3,59.928469364518065,
11,0,11,0,1,0,1,0,,,,,,,,,,left,2.04359669983387,457.3404721999541,xt17,457.3404721999541,None,444.1658375998959,447.6733152999077,True,3,['p'],True,0.4444444444444445,0.6666666666666666,0.3333333333333333,1.0,2.0,0.9656336071428248,-0.3333333333333333,succ_gain,0,5,454.27341219992377,None,xt17,1,2022-04-21_14h26.14.214,threat_forest,2021.2.3,59.928469364518065,
11,0,11,0,2,0,2,0,,,,,,,,,,None,,463.9239256000146,xt17,459.40727810002863,461.4068467998877,463.9239256000146,None,None,5,['p'],False,0.24,0.3,0.2,2.0,2.0,0.9003120349047065,0.0,wait_cost,1,4,461.4068467998877,None,xt17,1,2022-04-21_14h26.14.214,threat_forest,2021.2.3,59.928469364518065,
11,0,11,0,3,0,3,0,,,,,,,,,,left,1.5881244000047445,470.326056699967,xt17,470.326056699967,None,466.9238016998861,468.9236735999584,True,4,['p'],True,0.4444444444444445,0.6666666666666666,0.3333333333333333,1.0,2.0,0.9656336071428248,0.0,unsucc_cost,0,2,468.9236735999584,None,xt17,1,2022-04-21_14h26.14.214,threat_forest,2021.2.3,59.928469364518065,
11,0,11,0,4,0,4,0,,,,,,,,,,right,1.152179499855265,475.44084500009194,xt17,471.9406965998933,473.9403125999961,475.44084500009194,None,True,2,['p'],False,0.24,0.3,0.2,2.0,2.0,0.9003120349047065,-0.76,unsucc_cost,1,0,473.9403125999961,None,xt17,1,2022-04-21_14h26.14.214,threat_forest,2021.2.3,59.928469364518065,
11,0,11,0,,,,,,,,,,,,,,,,,,,,,,,,,,,,,,,,,,,,478.6239803999197,None,xt17,1,2022-04-21_14h26.14.214,threat_forest,2021.2.3,59.928469364518065,
12,0,12,0,0,0,0,0,,,,,,,479.2668401999399,482.7738330999855,None,left,1.3662726001348346,483.9409684999846,xt17,479.2668401999399,482.7738330999855,483.9409684999846,None,False,5,['p'],False,0.24,0.3,0.2,2.0,1.0,0.9003120349047065,0.0,wait_cost,1,4,,,xt17,1,2022-04-21_14h26.14.214,threat_forest,2021.2.3,59.928469364518065,
12,0,12,0,1,0,1,0,,,,,,,,,,left,1.0315503999590874,488.97459680004977,xt17,479.2668401999399,482.7738330999855,488.97459680004977,None,False,4,['p'],False,0.24,0.3,0.2,2.0,1.0,0.9003120349047065,0.0,wait_cost,1,3,487.3243307999801,None,xt17,1,2022-04-21_14h26.14.214,threat_forest,2021.2.3,59.928469364518065,
12,0,12,0,2,0,2,0,,,,,,,,,,None,,495.6771688000299,xt17,495.6771688000299,None,490.024252000032,492.0239351000637,None,3,['p'],True,0.375,0.5,0.25,1.0,1.0,0.9850568223215076,-0.25,wait_cost,0,2,492.0239351000637,None,xt17,1,2022-04-21_14h26.14.214,threat_forest,2021.2.3,59.928469364518065,
12,0,12,0,3,0,3,0,,,,,,,,,,right,0.9309640999417752,503.82495049992576,xt17,498.69106399989687,500.69080900005065,503.82495049992576,None,True,2,['p'],False,0.24,0.3,0.2,2.0,1.0,0.9003120349047065,-0.76,figh_cost,1,0,500.69080900005065,None,xt17,1,2022-04-21_14h26.14.214,threat_forest,2021.2.3,59.928469364518065,
12,0,12,0,,,,,,,,,,,,,,,,,,,,,,,,,,,,,,,,,,,,506.77442750008777,None,xt17,1,2022-04-21_14h26.14.214,threat_forest,2021.2.3,59.928469364518065,
13,0,13,0,0,0,0,0,,,,,,,510.53052309993654,514.0409979999531,None,right,1.2047545998357236,517.8420875000302,xt17,510.53052309993654,514.0409979999531,517.8420875000302,None,True,4,['r'],False,0.28125,0.375,0.25,2.0,2.0,0.9634951148421658,0.0,unsucc_cost,1,2,,,xt17,1,2022-04-21_14h26.14.214,threat_forest,2021.2.3,59.928469364518065,
13,0,13,0,1,0,1,0,,,,,,,,,,right,1.6027587000280619,523.9084785000887,xt17,523.9084785000887,None,519.0746023000684,521.0743960000109,False,2,['r'],True,0.3333333333333333,0.3333333333333333,0.0,0.0,2.0,0.5793801642856949,-0.6666666666666667,wait_cost,0,1,521.0743960000109,None,xt17,1,2022-04-21_14h26.14.214,threat_forest,2021.2.3,59.928469364518065,
13,0,13,0,2,0,2,0,,,,,,,,,,right,1.8583410999272019,529.124789299909,xt17,525.5412812998984,527.5412926999852,529.124789299909,None,True,1,['r'],False,0.28125,0.375,0.25,2.0,2.0,0.9634951148421658,0.28125,succ_gain,1,3,527.5412926999852,None,xt17,1,2022-04-21_14h26.14.214,threat_forest,2021.2.3,59.928469364518065,
13,0,13,0,3,0,3,0,,,,,,,,,,right,1.710872899973765,534.2753931998741,xt17,525.5412812998984,527.5412926999852,534.2753931998741,None,True,3,['r'],False,0.28125,0.375,0.25,2.0,2.0,0.9634951148421658,-0.25,figh_cost,1,0,533.007890699897,None,xt17,1,2022-04-21_14h26.14.214,threat_forest,2021.2.3,59.928469364518065,
13,0,13,0,,,,,,,,,,,,,,,,,,,,,,,,,,,,,,,,,,,,538.0080230000895,None,xt17,1,2022-04-21_14h26.14.214,threat_forest,2021.2.3,59.928469364518065,
14,0,14,0,0,0,0,0,,,,,,,541.4500583999325,544.9581162999384,None,left,0.9412020999006927,547.8087084998842,xt17,547.8087084998842,None,541.4500583999325,544.9581162999384,True,4,['p'],True,0.375,0.5,0.25,1.0,2.0,0.9850568223215076,0.0,succ_gain,0,6,,,xt17,1,2022-04-21_14h26.14.214,threat_forest,2021.2.3,59.928469364518065,
14,0,14,0,1,0,1,0,,,,,,,,,,left,0.9099147000815719,553.3616563000251,xt17,548.7753892999608,550.7748716000933,553.3616563000251,None,False,6,['p'],False,0.1728395061728395,0.2222222222222222,0.2222222222222222,2.0,2.0,0.8571721972794328,0.0,wait_cost,1,5,550.7748716000933,None,xt17,1,2022-04-21_14h26.14.214,threat_forest,2021.2.3,59.928469364518065,
14,0,14,0,2,0,2,0,,,,,,,,,,left,1.3312526000663638,558.292186500039,xt17,548.7753892999608,550.7748716000933,558.292186500039,None,False,5,['p'],False,0.1728395061728395,0.2222222222222222,0.2222222222222222,2.0,2.0,0.8571721972794328,0.0,wait_cost,1,4,556.2916210999247,None,xt17,1,2022-04-21_14h26.14.214,threat_forest,2021.2.3,59.928469364518065,
14,0,14,0,3,0,3,0,,,,,,,,,,left,1.1526669999584556,562.7253016999457,xt17,548.7753892999608,550.7748716000933,562.7253016999457,None,False,4,['p'],False,0.1728395061728395,0.2222222222222222,0.2222222222222222,2.0,2.0,0.8571721972794328,0.0,wait_cost,1,3,561.6417038000654,None,xt17,1,2022-04-21_14h26.14.214,threat_forest,2021.2.3,59.928469364518065,
14,0,14,0,4,0,4,0,,,,,,,,,,left,1.5490662001539022,568.4093466000631,xt17,548.7753892999608,550.7748716000933,568.4093466000631,None,False,3,['p'],False,0.1728395061728395,0.2222222222222222,0.2222222222222222,2.0,2.0,0.8571721972794328,-0.2222222222222222,wait_cost,1,2,565.9083839999512,None,xt17,1,2022-04-21_14h26.14.214,threat_forest,2021.2.3,59.928469364518065,
14,0,14,0,5,0,5,0,,,,,,,,,,left,2.231179299997166,573.8926679000724,xt17,573.8926679000724,None,569.9753664999735,571.9751661000773,True,2,['p'],True,0.375,0.5,0.25,1.0,2.0,0.9850568223215076,-0.625,succ_gain,0,4,571.9751661000773,None,xt17,1,2022-04-21_14h26.14.214,threat_forest,2021.2.3,59.928469364518065,
14,0,14,0,6,0,6,0,,,,,,,,,,right,0.9199260999448597,581.3093324000947,xt17,581.3093324000947,None,569.9753664999735,571.9751661000773,False,4,['p'],True,0.375,0.5,0.25,1.0,2.0,0.9850568223215076,0.0,wait_cost,0,3,578.1420201999135,None,xt17,1,2022-04-21_14h26.14.214,threat_forest,2021.2.3,59.928469364518065,
14,0,14,0,7,0,7,0,,,,,,,,,,right,0.8744330999907106,586.4427865999751,xt17,586.4427865999751,None,569.9753664999735,571.9751661000773,False,3,['p'],True,0.375,0.5,0.25,1.0,2.0,0.9850568223215076,-0.25,wait_cost,0,2,584.2587888000999,None,xt17,1,2022-04-21_14h26.14.214,threat_forest,2021.2.3,59.928469364518065,
14,0,14,0,,,,,,,,,,,,,,,,,,,,,,,,,,,,,,,,,,,,589.3423454000149,None,xt17,1,2022-04-21_14h26.14.214,threat_forest,2021.2.3,59.928469364518065,
15,0,15,0,0,0,0,0,,,,,,,591.8819236001,595.3921230998822,None,right,1.8074960999656469,596.1596228999551,xt17,591.8819236001,595.3921230998822,596.1596228999551,None,True,4,['r'],False,0.2040816326530612,0.2857142857142857,0.2857142857142857,2.0,1.0,0.9335459102197724,0.0,succ_gain,1,5,,,xt17,1,2022-04-21_14h26.14.214,threat_forest,2021.2.3,59.928469364518065,
15,0,15,0,1,0,1,0,,,,,,,,,,right,1.269675699993968,600.777840099996,xt17,600.777840099996,None,597.9926203000359,599.9922106999438,False,5,['r'],True,0.25,0.25,0.0,0.0,1.0,0.5118595071429148,0.0,wait_cost,0,4,599.9922106999438,None,xt17,1,2022-04-21_14h26.14.214,threat_forest,2021.2.3,59.928469364518065,
15,0,15,0,2,0,2,0,,,,,,,,,,left,2.043817700119689,606.8429078999907,xt17,602.0760119999759,604.0757182999514,606.8429078999907,None,False,4,['r'],False,0.2040816326530612,0.2857142857142857,0.2857142857142857,2.0,1.0,0.9335459102197724,0.0,wait_cost,1,3,604.0757182999514,None,xt17,1,2022-04-21_14h26.14.214,threat_forest,2021.2.3,59.928469364518065,
15,0,15,0,3,0,3,0,,,,,,,,,,left,2.4512165999040008,611.7426829000469,xt17,602.0760119999759,604.0757182999514,611.7426829000469,None,False,3,['r'],False,0.2040816326530612,0.2857142857142857,0.2857142857142857,2.0,1.0,0.9335459102197724,-0.2857142857142857,wait_cost,1,2,610.9091330999509,None,xt17,1,2022-04-21_14h26.14.214,threat_forest,2021.2.3,59.928469364518065,
15,0,15,0,4,0,4,0,,,,,,,,,,left,2.1507377000525594,616.9762271998916,xt17,616.9762271998916,None,614.225936899893,616.2258744998835,True,2,['r'],True,0.25,0.25,0.0,0.0,1.0,0.5118595071429148,-0.75,figh_cost,0,0,616.2258744998835,None,xt17,1,2022-04-21_14h26.14.214,threat_forest,2021.2.3,59.928469364518065,
15,0,15,0,,,,,,,,,,,,,,,,,,,,,,,,,,,,,,,,,,,,621.1592788998969,None,xt17,1,2022-04-21_14h26.14.214,threat_forest,2021.2.3,59.928469364518065,
16,0,16,0,0,0,0,0,,,,,,,624.8456272000913,628.3593530999497,None,left,1.0739919999614358,630.4436550000682,xt17,630.4436550000682,None,624.8456272000913,628.3593530999497,True,4,['r'],True,0.5,0.5,0.0,0.0,1.0,0.6309297535714574,0.0,unsucc_cost,0,2,,,xt17,1,2022-04-21_14h26.14.214,threat_forest,2021.2.3,59.928469364518065,
16,0,16,0,1,0,1,0,,,,,,,,,,left,1.9074929999187589,636.5932670999318,xt17,636.5932670999318,None,624.8456272000913,628.3593530999497,True,2,['r'],True,0.5,0.5,0.0,0.0,1.0,0.6309297535714574,-0.5,unsucc_cost,0,0,633.5428947000764,None,xt17,1,2022-04-21_14h26.14.214,threat_forest,2021.2.3,59.928469364518065,
16,0,16,0,,,,,,,,,,,,,,,,,,,,,,,,,,,,,,,,,,,,640.5262682000175,None,xt17,1,2022-04-21_14h26.14.214,threat_forest,2021.2.3,59.928469364518065,
17,0,17,0,0,0,0,0,,,,,,,643.5546426998917,647.0596505000722,None,right,1.609355099964887,650.0104576998856,xt17,650.0104576998856,None,643.5546426998917,647.0596505000722,False,5,['p'],True,0.48,0.6,0.2,1.0,1.0,0.9455672104350704,0.0,wait_cost,0,4,,,xt17,1,2022-04-21_14h26.14.214,threat_forest,2021.2.3,59.928469364518065,
17,0,17,0,1,0,1,0,,,,,,,,,,right,2.1219792999327183,656.7604050999507,xt17,656.7604050999507,None,643.5546426998917,647.0596505000722,False,4,['p'],True,0.48,0.6,0.2,1.0,1.0,0.9455672104350704,0.0,wait_cost,0,3,653.6430901000276,None,xt17,1,2022-04-21_14h26.14.214,threat_forest,2021.2.3,59.928469364518065,
17,0,17,0,2,0,2,0,,,,,,,,,,None,,662.961863799952,xt17,658.9101094000507,660.9098495000508,662.961863799952,None,None,3,['p'],False,0.2962962962962963,0.3333333333333333,0.1111111111111111,1.0,1.0,0.8325252476189534,-0.1111111111111111,wait_cost,1,2,660.9098495000508,None,xt17,1,2022-04-21_14h26.14.214,threat_forest,2021.2.3,59.928469364518065,
17,0,17,0,3,0,3,0,,,,,,,,,,left,1.6896341999527067,669.7271143998951,xt17,658.9101094000507,660.9098495000508,669.7271143998951,None,False,2,['p'],False,0.2962962962962963,0.3333333333333333,0.1111111111111111,1.0,1.0,0.8325252476189534,-0.7037037037037037,wait_cost,1,1,667.9766512000933,None,xt17,1,2022-04-21_14h26.14.214,threat_forest,2021.2.3,59.928469364518065,
17,0,17,0,4,0,4,0,,,,,,,,,,left,1.555010800017044,675.1438585000578,xt17,675.1438585000578,None,671.4435976000968,673.4432975000236,True,1,['p'],True,0.48,0.6,0.2,1.0,1.0,0.9455672104350704,0.48,unsucc_cost,0,0,673.4432975000236,None,xt17,1,2022-04-21_14h26.14.214,threat_forest,2021.2.3,59.928469364518065,
17,0,17,0,,,,,,,,,,,,,,,,,,,,,,,,,,,,,,,,,,,,678.7269007000141,None,xt17,1,2022-04-21_14h26.14.214,threat_forest,2021.2.3,59.928469364518065,
