miniblock.thisRepN,miniblock.thisTrialN,miniblock.thisN,miniblock.thisIndex,day.thisRepN,day.thisTrialN,day.thisN,day.thisIndex,welcoming.started,welcoming.stopped,key_resp_2.keys,key_resp_2.rt,key_resp_2.started,key_resp_2.stopped,forest.started,fixation_forest.started,fixation_forest.stopped,key_resp.keys,key_resp.rt,key_resp.started,Subject_ID,weather_left.started,weather_left.stopped,weather_right.started,weather_right.stopped,foraging T/F,in_LP,p/r heuristic,good_weather.T/F,p_succ_correct,p_succ_uncorrected,r_threat,n_oponents,gain_if_succ,weather_entropy,OP_value_difference,action_outcome,forest_side_L=0_R=1,out_LP,fixation_day.started,fixation_day.stopped,n_day-1.out_LP.,participant,session,date,expName,psychopyVersion,frameRate,
,,,,,,,,8.92152729999998,None,space,1.588861199999883,8.92152729999998,None,,,,,,,,,,,,,,,,,,,,,,,,,,,,,wp8,2,2023-04-18_11h33.55.612,threat_forest,2021.2.3,60.20473221250338,
0,0,0,0,0,0,0,0,,,,,,,10.56777080000029,14.075990400000592,None,left,0.8651294999999664,15.191001000000142,wp8,15.191001000000142,None,10.56777080000029,14.075990400000592,True,5,['r'],True,0.5,0.5,0.0,0.0,1.0,0.6309297535714574,0.0,unsucc_cost,0,3,,,,wp8,2,2023-04-18_11h33.55.612,threat_forest,2021.2.3,60.20473221250338,
0,0,0,0,1,0,1,0,,,,,,,,,,left,0.8401219999996101,20.886689200000546,wp8,20.886689200000546,None,10.56777080000029,14.075990400000592,True,3,['r'],True,0.5,0.5,0.0,0.0,1.0,0.6309297535714574,0.0,unsucc_cost,0,1,18.0888173000003,None,3,wp8,2,2023-04-18_11h33.55.612,threat_forest,2021.2.3,60.20473221250338,
0,0,0,0,2,0,2,0,,,,,,,,,,left,0.771669099999599,26.581061200000477,wp8,26.581061200000477,None,10.56777080000029,14.075990400000592,True,1,['r'],True,0.5,0.5,0.0,0.0,1.0,0.6309297535714574,0.5,unsucc_cost,0,0,23.766879700000572,None,1,wp8,2,2023-04-18_11h33.55.612,threat_forest,2021.2.3,60.20473221250338,
0,0,0,0,,,,,,,,,,,,,,,,,,,,,,,,,,,,,,,,,,,,29.397845600000437,None,0,wp8,2,2023-04-18_11h33.55.612,threat_forest,2021.2.3,60.20473221250338,
1,0,1,0,0,0,0,0,,,,,,,29.935370500000317,33.44109230000049,None,right,1.1772658999998384,34.97367519999989,wp8,34.97367519999989,None,29.935370500000317,33.44109230000049,False,4,['r'],True,0.3333333333333333,0.3333333333333333,0.0,0.0,2.0,0.5793801642856949,0.0,wait_cost,0,3,,,,wp8,2,2023-04-18_11h33.55.612,threat_forest,2021.2.3,60.20473221250338,
1,0,1,0,1,0,1,0,,,,,,,,,,right,1.094952899999953,41.150942100000066,wp8,41.150942100000066,None,29.935370500000317,33.44109230000049,False,3,['r'],True,0.3333333333333333,0.3333333333333333,0.0,0.0,2.0,0.5793801642856949,0.0,wait_cost,0,2,38.186774400000104,None,3,wp8,2,2023-04-18_11h33.55.612,threat_forest,2021.2.3,60.20473221250338,
1,0,1,0,2,0,2,0,,,,,,,,,,right,1.0467679000003045,46.04731230000016,wp8,42.2664635000001,44.281088499999896,46.04731230000016,None,True,2,['r'],False,0.24,0.4,0.4,2.0,2.0,0.9801625908629508,-0.76,unsucc_cost,1,0,44.281088499999896,None,2,wp8,2,2023-04-18_11h33.55.612,threat_forest,2021.2.3,60.20473221250338,
1,0,1,0,,,,,,,,,,,,,,,,,,,,,,,,,,,,,,,,,,,,49.12665350000043,None,0,wp8,2,2023-04-18_11h33.55.612,threat_forest,2021.2.3,60.20473221250338,
2,0,2,0,0,0,0,0,,,,,,,52.47058819999984,55.96017380000012,None,right,0.9610519999996541,57.03615010000067,wp8,52.47058819999984,55.96017380000012,57.03615010000067,None,True,4,['r'],False,0.16,0.2,0.2,2.0,2.0,0.8198746470064713,0.0,unsucc_cost,1,2,,,,wp8,2,2023-04-18_11h33.55.612,threat_forest,2021.2.3,60.20473221250338,
2,0,2,0,1,0,1,0,,,,,,,,,,left,1.4805907999998453,60.815881500000614,wp8,52.47058819999984,55.96017380000012,60.815881500000614,None,False,2,['r'],False,0.16,0.2,0.2,2.0,2.0,0.8198746470064713,-0.8400000000000001,wait_cost,1,1,60.03298350000023,None,2,wp8,2,2023-04-18_11h33.55.612,threat_forest,2021.2.3,60.20473221250338,
2,0,2,0,2,0,2,0,,,,,,,,,,right,0.4555176999992909,67.92593940000006,wp8,52.47058819999984,55.96017380000012,67.92593940000006,None,True,1,['r'],False,0.16,0.2,0.2,2.0,2.0,0.8198746470064713,0.1599999999999999,unsucc_cost,1,0,64.32896489999985,None,1,wp8,2,2023-04-18_11h33.55.612,threat_forest,2021.2.3,60.20473221250338,
2,0,2,0,,,,,,,,,,,,,,,,,,,,,,,,,,,,,,,,,,,,70.42327269999987,None,0,wp8,2,2023-04-18_11h33.55.612,threat_forest,2021.2.3,60.20473221250338,
3,0,3,0,0,0,0,0,,,,,,,73.22146969999994,76.73408199999994,None,left,0.6603391000007832,80.51445299999978,wp8,73.22146969999994,76.73408199999994,80.51445299999978,None,False,5,['r'],False,0.2222222222222222,0.6666666666666666,0.6666666666666666,2.0,2.0,0.77250688571426,0.0,wait_cost,1,4,,,,wp8,2,2023-04-18_11h33.55.612,threat_forest,2021.2.3,60.20473221250338,
3,0,3,0,1,0,1,0,,,,,,,,,,right,0.3736466999998811,85.40951580000001,wp8,73.22146969999994,76.73408199999994,85.40951580000001,None,True,4,['r'],False,0.2222222222222222,0.6666666666666666,0.6666666666666666,2.0,2.0,0.77250688571426,0.0,succ_gain,1,6,83.21131849999983,None,4,wp8,2,2023-04-18_11h33.55.612,threat_forest,2021.2.3,60.20473221250338,
3,0,3,0,2,0,2,0,,,,,,,,,,left,1.8004657000001316,89.83878189999996,wp8,89.83878189999996,None,85.80922760000067,87.82362600000033,True,6,['r'],True,0.5,0.5,0.0,0.0,2.0,0.6309297535714574,0.0,succ_gain,0,6,87.82362600000033,None,6,wp8,2,2023-04-18_11h33.55.612,threat_forest,2021.2.3,60.20473221250338,
3,0,3,0,3,0,3,0,,,,,,,,,,right,1.6285655000001498,97.13182719999986,wp8,97.13182719999986,None,85.80922760000067,87.82362600000033,False,6,['r'],True,0.5,0.5,0.0,0.0,2.0,0.6309297535714574,0.0,wait_cost,0,5,93.68483780000042,None,6,wp8,2,2023-04-18_11h33.55.612,threat_forest,2021.2.3,60.20473221250338,
3,0,3,0,4,0,4,0,,,,,,,,,,left,0.7489221000005273,103.59245270000065,wp8,103.59245270000065,None,85.80922760000067,87.82362600000033,True,5,['r'],True,0.5,0.5,0.0,0.0,2.0,0.6309297535714574,0.0,succ_gain,0,6,100.79484589999993,None,5,wp8,2,2023-04-18_11h33.55.612,threat_forest,2021.2.3,60.20473221250338,
3,0,3,0,5,0,5,0,,,,,,,,,,right,0.6701384999996662,107.9221465999999,wp8,107.9221465999999,None,85.80922760000067,87.82362600000033,False,6,['r'],True,0.5,0.5,0.0,0.0,2.0,0.6309297535714574,0.0,wait_cost,0,5,106.37295050000012,None,6,wp8,2,2023-04-18_11h33.55.612,threat_forest,2021.2.3,60.20473221250338,
3,0,3,0,6,0,6,0,,,,,,,,,,right,0.3834153999996488,113.78320160000021,wp8,113.78320160000021,None,85.80922760000067,87.82362600000033,False,5,['r'],True,0.5,0.5,0.0,0.0,2.0,0.6309297535714574,0.0,wait_cost,0,4,110.63569120000011,None,5,wp8,2,2023-04-18_11h33.55.612,threat_forest,2021.2.3,60.20473221250338,
3,0,3,0,7,0,7,0,,,,,,,,,,right,1.189641500000107,119.06169310000041,wp8,114.19917119999991,116.21370340000067,119.06169310000041,None,True,4,['r'],False,0.2222222222222222,0.6666666666666666,0.6666666666666666,2.0,2.0,0.77250688571426,0.0,fight_cost,1,1,116.21370340000067,None,4,wp8,2,2023-04-18_11h33.55.612,threat_forest,2021.2.3,60.20473221250338,
3,0,3,0,,,,,,,,,,,,,,,,,,,,,,,,,,,,,,,,,,,,122.29147060000014,None,1,wp8,2,2023-04-18_11h33.55.612,threat_forest,2021.2.3,60.20473221250338,
4,0,4,0,0,0,0,0,,,,,,,123.26546229999985,126.77050650000001,None,right,1.1631622999993851,128.6191490000001,wp8,123.26546229999985,126.77050650000001,128.6191490000001,None,True,4,['r'],False,0.46875,0.625,0.25,2.0,1.0,0.9634951148421658,0.0,unsucc_cost,1,2,,,,wp8,2,2023-04-18_11h33.55.612,threat_forest,2021.2.3,60.20473221250338,
4,0,4,0,1,0,1,0,,,,,,,,,,right,0.5831082000004244,133.79756670000006,wp8,123.26546229999985,126.77050650000001,133.79756670000006,None,True,2,['r'],False,0.46875,0.625,0.25,2.0,1.0,0.9634951148421658,-0.53125,succ_gain,1,3,131.81573209999988,None,2,wp8,2,2023-04-18_11h33.55.612,threat_forest,2021.2.3,60.20473221250338,
4,0,4,0,2,0,2,0,,,,,,,,,,right,0.9542700000001787,139.77529390000018,wp8,123.26546229999985,126.77050650000001,139.77529390000018,None,True,3,['r'],False,0.46875,0.625,0.25,2.0,1.0,0.9634951148421658,-0.25,succ_gain,1,4,136.4280918000004,None,3,wp8,2,2023-04-18_11h33.55.612,threat_forest,2021.2.3,60.20473221250338,
4,0,4,0,3,0,3,0,,,,,,,,,,left,1.7122836999997162,145.49078350000036,wp8,145.49078350000036,None,140.7576852000002,142.7723317,True,4,['r'],True,0.6,0.6,0.0,0.0,1.0,0.6126016192893442,0.0,succ_gain,0,5,142.7723317,None,4,wp8,2,2023-04-18_11h33.55.612,threat_forest,2021.2.3,60.20473221250338,
4,0,4,0,4,0,4,0,,,,,,,,,,left,2.3954604000000472,152.2138283000004,wp8,152.2138283000004,None,140.7576852000002,142.7723317,True,5,['r'],True,0.6,0.6,0.0,0.0,1.0,0.6126016192893442,0.0,fight_cost,0,2,149.2495017000001,None,5,wp8,2,2023-04-18_11h33.55.612,threat_forest,2021.2.3,60.20473221250338,
4,0,4,0,5,0,5,0,,,,,,,,,,left,1.898142199999711,157.7584725000006,wp8,157.7584725000006,None,140.7576852000002,142.7723317,True,2,['r'],True,0.6,0.6,0.0,0.0,1.0,0.6126016192893442,-0.4,fight_cost,0,0,156.64269810000042,None,2,wp8,2,2023-04-18_11h33.55.612,threat_forest,2021.2.3,60.20473221250338,
4,0,4,0,,,,,,,,,,,,,,,,,,,,,,,,,,,,,,,,,,,,161.68795839999984,None,0,wp8,2,2023-04-18_11h33.55.612,threat_forest,2021.2.3,60.20473221250338,
5,0,5,0,0,0,0,0,,,,,,,163.64547250000032,167.14938950000032,None,left,0.9758622999997897,170.82985860000008,wp8,170.82985860000008,None,163.64547250000032,167.14938950000032,True,5,['p'],True,0.5,0.5,0.0,0.0,1.0,0.6309297535714574,0.0,succ_gain,0,6,,,,wp8,2,2023-04-18_11h33.55.612,threat_forest,2021.2.3,60.20473221250338,
5,0,5,0,1,0,1,0,,,,,,,,,,left,0.9443648999995276,177.1903738000001,wp8,177.1903738000001,None,163.64547250000032,167.14938950000032,True,6,['p'],True,0.5,0.5,0.0,0.0,1.0,0.6309297535714574,0.0,succ_gain,0,6,173.84349620000012,None,6,wp8,2,2023-04-18_11h33.55.612,threat_forest,2021.2.3,60.20473221250338,
5,0,5,0,2,0,2,0,,,,,,,,,,left,1.4428175000002739,181.32016980000026,wp8,181.32016980000026,None,163.64547250000032,167.14938950000032,True,6,['p'],True,0.5,0.5,0.0,0.0,1.0,0.6309297535714574,0.0,unsucc_cost,0,4,180.17060670000046,None,6,wp8,2,2023-04-18_11h33.55.612,threat_forest,2021.2.3,60.20473221250338,
5,0,5,0,3,0,3,0,,,,,,,,,,left,1.577574399999321,185.5991167000002,wp8,185.5991167000002,None,163.64547250000032,167.14938950000032,True,4,['p'],True,0.5,0.5,0.0,0.0,1.0,0.6309297535714574,0.0,unsucc_cost,0,2,184.79955490000066,None,4,wp8,2,2023-04-18_11h33.55.612,threat_forest,2021.2.3,60.20473221250338,
5,0,5,0,4,0,4,0,,,,,,,,,,right,0.6088952999998583,190.32823530000042,wp8,190.32823530000042,None,163.64547250000032,167.14938950000032,False,2,['p'],True,0.5,0.5,0.0,0.0,1.0,0.6309297535714574,-0.5,wait_cost,0,1,189.21208519999982,None,2,wp8,2,2023-04-18_11h33.55.612,threat_forest,2021.2.3,60.20473221250338,
5,0,5,0,5,0,5,0,,,,,,,,,,right,0.9503316999998788,193.94166850000056,wp8,190.96067250000033,192.9752507000003,193.94166850000056,None,True,1,['p'],False,0.36,0.6,0.4,2.0,1.0,0.9801625908629508,0.36,succ_gain,1,2,192.9752507000003,None,1,wp8,2,2023-04-18_11h33.55.612,threat_forest,2021.2.3,60.20473221250338,
5,0,5,0,6,0,6,0,,,,,,,,,,right,0.798234500000035,197.8542593000002,wp8,190.96067250000033,192.9752507000003,197.8542593000002,None,True,2,['p'],False,0.36,0.6,0.4,2.0,1.0,0.9801625908629508,-0.64,fight_cost,1,0,196.9381996000002,None,2,wp8,2,2023-04-18_11h33.55.612,threat_forest,2021.2.3,60.20473221250338,
5,0,5,0,,,,,,,,,,,,,,,,,,,,,,,,,,,,,,,,,,,,200.6848114000004,None,0,wp8,2,2023-04-18_11h33.55.612,threat_forest,2021.2.3,60.20473221250338,
6,0,6,0,0,0,0,0,,,,,,,203.84201519999988,207.3451173000003,None,right,1.142791500000385,209.728435,wp8,203.84201519999988,207.3451173000003,209.728435,None,True,4,['p'],False,0.2,0.2,0.0,0.0,1.0,0.4554859150035951,0.0,unsucc_cost,1,2,,,,wp8,2,2023-04-18_11h33.55.612,threat_forest,2021.2.3,60.20473221250338,
6,0,6,0,1,0,1,0,,,,,,,,,,left,2.1067741999995633,213.95611629999985,wp8,203.84201519999988,207.3451173000003,213.95611629999985,None,False,2,['p'],False,0.2,0.2,0.0,0.0,1.0,0.4554859150035951,-0.8,wait_cost,1,1,212.90660149999985,None,2,wp8,2,2023-04-18_11h33.55.612,threat_forest,2021.2.3,60.20473221250338,
6,0,6,0,2,0,2,0,,,,,,,,,,left,0.8342832000007547,220.64960539999993,wp8,220.64960539999993,None,216.08730990000004,218.10178189999988,True,1,['p'],True,0.375,0.5,0.25,1.0,1.0,0.9850568223215076,0.375,succ_gain,0,2,218.10178189999988,None,1,wp8,2,2023-04-18_11h33.55.612,threat_forest,2021.2.3,60.20473221250338,
6,0,6,0,3,0,3,0,,,,,,,,,,left,1.5448938999998063,224.31291359999977,wp8,224.31291359999977,None,216.08730990000004,218.10178189999988,True,2,['p'],True,0.375,0.5,0.25,1.0,1.0,0.9850568223215076,-0.625,succ_gain,0,3,223.53000690000044,None,2,wp8,2,2023-04-18_11h33.55.612,threat_forest,2021.2.3,60.20473221250338,
6,0,6,0,4,0,4,0,,,,,,,,,,right,1.7588252999994438,229.12609900000007,wp8,225.8781872999998,227.89258150000023,229.12609900000007,None,True,3,['p'],False,0.2,0.2,0.0,0.0,1.0,0.4554859150035951,0.0,succ_gain,1,4,227.89258150000023,None,3,wp8,2,2023-04-18_11h33.55.612,threat_forest,2021.2.3,60.20473221250338,
6,0,6,0,5,0,5,0,,,,,,,,,,right,1.2537663000002794,234.40400200000022,wp8,225.8781872999998,227.89258150000023,234.40400200000022,None,True,4,['p'],False,0.2,0.2,0.0,0.0,1.0,0.4554859150035951,0.0,unsucc_cost,1,2,232.92126569999982,None,4,wp8,2,2023-04-18_11h33.55.612,threat_forest,2021.2.3,60.20473221250338,
6,0,6,0,6,0,6,0,,,,,,,,,,left,1.7655886000002283,239.88202199999978,wp8,239.88202199999978,None,235.6858247,237.7001491000001,True,2,['p'],True,0.375,0.5,0.25,1.0,1.0,0.9850568223215076,-0.625,succ_gain,0,3,237.7001491000001,None,2,wp8,2,2023-04-18_11h33.55.612,threat_forest,2021.2.3,60.20473221250338,
6,0,6,0,7,0,7,0,,,,,,,,,,left,1.0900468000008914,247.32560509999985,wp8,241.67992099999992,243.69452460000048,247.32560509999985,None,False,3,['p'],False,0.2,0.2,0.0,0.0,1.0,0.4554859150035951,0.0,wait_cost,1,2,243.69452460000048,None,3,wp8,2,2023-04-18_11h33.55.612,threat_forest,2021.2.3,60.20473221250338,
6,0,6,0,,,,,,,,,,,,,,,,,,,,,,,,,,,,,,,,,,,,250.4550177000001,None,2,wp8,2,2023-04-18_11h33.55.612,threat_forest,2021.2.3,60.20473221250338,
7,0,7,0,0,0,0,0,,,,,,,252.52885630000037,256.0329622999998,None,left,1.7530314000005092,259.30083900000045,wp8,259.30083900000045,None,252.52885630000037,256.0329622999998,True,4,['p'],True,0.32,0.4,0.2,1.0,2.0,0.9455672104350704,0.0,unsucc_cost,0,2,,,,wp8,2,2023-04-18_11h33.55.612,threat_forest,2021.2.3,60.20473221250338,
7,0,7,0,1,0,1,0,,,,,,,,,,left,0.9818401000002268,264.1422532000006,wp8,261.0787184999999,263.0930533999999,264.1422532000006,None,False,2,['p'],False,0.1975308641975308,0.2222222222222222,0.1111111111111111,1.0,2.0,0.7461067557824965,-0.8024691358024691,wait_cost,1,1,263.0930533999999,None,2,wp8,2,2023-04-18_11h33.55.612,threat_forest,2021.2.3,60.20473221250338,
7,0,7,0,2,0,2,0,,,,,,,,,,left,0.8963972999999896,268.4217405999998,wp8,268.4217405999998,None,265.14138790000015,267.1558352000002,True,1,['p'],True,0.32,0.4,0.2,1.0,2.0,0.9455672104350704,0.32,unsucc_cost,0,0,267.1558352000002,None,1,wp8,2,2023-04-18_11h33.55.612,threat_forest,2021.2.3,60.20473221250338,
7,0,7,0,,,,,,,,,,,,,,,,,,,,,,,,,,,,,,,,,,,,271.3520232999999,None,0,wp8,2,2023-04-18_11h33.55.612,threat_forest,2021.2.3,60.20473221250338,
8,0,8,0,0,0,0,0,,,,,,,273.80720010000005,277.3130970000002,None,right,2.0961136000005354,281.02707009999995,wp8,273.80720010000005,277.3130970000002,281.02707009999995,None,True,5,['r'],False,0.2448979591836734,0.2857142857142857,0.1428571428571428,1.0,2.0,0.8400769154957735,0.0,succ_gain,1,6,,,,wp8,2,2023-04-18_11h33.55.612,threat_forest,2021.2.3,60.20473221250338,
8,0,8,0,1,0,1,0,,,,,,,,,,right,1.0169605000000956,286.39031690000047,wp8,286.39031690000047,None,283.1413456999999,285.1556644000002,False,6,['r'],True,0.375,0.5,0.25,1.0,2.0,0.9850568223215076,0.0,wait_cost,0,5,285.1556644000002,None,6,wp8,2,2023-04-18_11h33.55.612,threat_forest,2021.2.3,60.20473221250338,
8,0,8,0,2,0,2,0,,,,,,,,,,right,1.4170843000001696,292.04977000000054,wp8,287.43728960000044,289.45167649999985,292.04977000000054,None,True,5,['r'],False,0.2448979591836734,0.2857142857142857,0.1428571428571428,1.0,2.0,0.8400769154957735,0.0,succ_gain,1,6,289.45167649999985,None,5,wp8,2,2023-04-18_11h33.55.612,threat_forest,2021.2.3,60.20473221250338,
8,0,8,0,3,0,3,0,,,,,,,,,,left,0.6931735999996818,298.8433892000003,wp8,287.43728960000044,289.45167649999985,298.8433892000003,None,False,6,['r'],False,0.2448979591836734,0.2857142857142857,0.1428571428571428,1.0,2.0,0.8400769154957735,0.0,wait_cost,1,5,295.5126540000001,None,6,wp8,2,2023-04-18_11h33.55.612,threat_forest,2021.2.3,60.20473221250338,
8,0,8,0,4,0,4,0,,,,,,,,,,left,0.7083169000006819,304.45503310000004,wp8,287.43728960000044,289.45167649999985,304.45503310000004,None,False,5,['r'],False,0.2448979591836734,0.2857142857142857,0.1428571428571428,1.0,2.0,0.8400769154957735,0.0,wait_cost,1,4,301.5736391999999,None,5,wp8,2,2023-04-18_11h33.55.612,threat_forest,2021.2.3,60.20473221250338,
8,0,8,0,5,0,5,0,,,,,,,,,,right,0.9508346999991772,309.3834052000002,wp8,309.3834052000002,None,305.1873145999998,307.2017456000003,False,4,['r'],True,0.375,0.5,0.25,1.0,2.0,0.9850568223215076,0.0,wait_cost,0,3,307.2017456000003,None,4,wp8,2,2023-04-18_11h33.55.612,threat_forest,2021.2.3,60.20473221250338,
8,0,8,0,6,0,6,0,,,,,,,,,,left,1.6320592000001852,313.53081180000027,wp8,310.3659045000004,312.3803330999999,313.53081180000027,None,False,3,['r'],False,0.2448979591836734,0.2857142857142857,0.1428571428571428,1.0,2.0,0.8400769154957735,-0.1428571428571428,wait_cost,1,2,312.3803330999999,None,3,wp8,2,2023-04-18_11h33.55.612,threat_forest,2021.2.3,60.20473221250338,
8,0,8,0,7,0,7,0,,,,,,,,,,right,1.1268874999996115,319.7903270000006,wp8,319.7903270000006,None,315.1946158999999,317.20902710000064,False,2,['r'],True,0.375,0.5,0.25,1.0,2.0,0.9850568223215076,-0.625,wait_cost,0,1,317.20902710000064,None,2,wp8,2,2023-04-18_11h33.55.612,threat_forest,2021.2.3,60.20473221250338,
8,0,8,0,,,,,,,,,,,,,,,,,,,,,,,,,,,,,,,,,,,,322.9537295,None,1,wp8,2,2023-04-18_11h33.55.612,threat_forest,2021.2.3,60.20473221250338,
9,0,9,0,0,0,0,0,,,,,,,326.1318785000003,329.63598530000036,None,left,0.5663103999995656,333.0783089000006,wp8,333.0783089000006,None,326.1318785000003,329.63598530000036,True,4,['r'],True,0.2857142857142857,0.2857142857142857,0.0,0.0,2.0,0.5445684476282007,0.0,succ_gain,0,6,,,,wp8,2,2023-04-18_11h33.55.612,threat_forest,2021.2.3,60.20473221250338,
9,0,9,0,1,0,1,0,,,,,,,,,,left,0.6963182999998025,338.9430173999999,wp8,333.6774542000003,335.6917948,338.9430173999999,None,False,6,['r'],False,0.24,0.3,0.2,2.0,2.0,0.9003120349047065,0.0,wait_cost,1,5,335.6917948,None,6,wp8,2,2023-04-18_11h33.55.612,threat_forest,2021.2.3,60.20473221250338,
9,0,9,0,2,0,2,0,,,,,,,,,,left,0.6402364000005036,345.18341260000034,wp8,333.6774542000003,335.6917948,345.18341260000034,None,False,5,['r'],False,0.24,0.3,0.2,2.0,2.0,0.9003120349047065,0.0,wait_cost,1,4,341.6861918000004,None,5,wp8,2,2023-04-18_11h33.55.612,threat_forest,2021.2.3,60.20473221250338,
9,0,9,0,3,0,3,0,,,,,,,,,,left,0.924889500000063,350.19523050000043,wp8,350.19523050000043,None,345.8494533000003,347.86370290000013,True,4,['r'],True,0.2857142857142857,0.2857142857142857,0.0,0.0,2.0,0.5445684476282007,0.0,succ_gain,0,6,347.86370290000013,None,4,wp8,2,2023-04-18_11h33.55.612,threat_forest,2021.2.3,60.20473221250338,
9,0,9,0,4,0,4,0,,,,,,,,,,right,0.6362233999998352,356.3596213999999,wp8,351.14446230000067,353.1587618000003,356.3596213999999,None,True,6,['r'],False,0.24,0.3,0.2,2.0,2.0,0.9003120349047065,0.0,succ_gain,1,6,353.1587618000003,None,6,wp8,2,2023-04-18_11h33.55.612,threat_forest,2021.2.3,60.20473221250338,
9,0,9,0,5,0,5,0,,,,,,,,,,left,0.8220198999997592,361.76865520000047,wp8,351.14446230000067,353.1587618000003,361.76865520000047,None,False,6,['r'],False,0.24,0.3,0.2,2.0,2.0,0.9003120349047065,0.0,wait_cost,1,5,359.0366604999999,None,6,wp8,2,2023-04-18_11h33.55.612,threat_forest,2021.2.3,60.20473221250338,
9,0,9,0,6,0,6,0,,,,,,,,,,left,1.0737939000000551,367.11267039999984,wp8,367.11267039999984,None,362.6171355000006,364.63138530000015,True,5,['r'],True,0.2857142857142857,0.2857142857142857,0.0,0.0,2.0,0.5445684476282007,0.0,unsucc_cost,0,3,364.63138530000015,None,5,wp8,2,2023-04-18_11h33.55.612,threat_forest,2021.2.3,60.20473221250338,
9,0,9,0,7,0,7,0,,,,,,,,,,left,0.7485575999999128,371.7269946000006,wp8,368.2117698000002,370.2261324000001,371.7269946000006,None,False,3,['r'],False,0.24,0.3,0.2,2.0,2.0,0.9003120349047065,-0.2,wait_cost,1,2,370.2261324000001,None,3,wp8,2,2023-04-18_11h33.55.612,threat_forest,2021.2.3,60.20473221250338,
9,0,9,0,,,,,,,,,,,,,,,,,,,,,,,,,,,,,,,,,,,,374.5221803000004,None,2,wp8,2,2023-04-18_11h33.55.612,threat_forest,2021.2.3,60.20473221250338,
10,0,10,0,0,0,0,0,,,,,,,377.13859110000067,380.64973310000005,None,right,0.7414186000005429,382.3323214000002,wp8,377.13859110000067,380.64973310000005,382.3323214000002,None,True,4,['r'],False,0.2222222222222222,0.6666666666666666,0.6666666666666666,2.0,1.0,0.77250688571426,0.0,fight_cost,1,1,,,,wp8,2,2023-04-18_11h33.55.612,threat_forest,2021.2.3,60.20473221250338,
10,0,10,0,1,0,1,0,,,,,,,,,,right,0.6924850999994305,386.31131689999984,wp8,377.13859110000067,380.64973310000005,386.31131689999984,None,True,1,['r'],False,0.2222222222222222,0.6666666666666666,0.6666666666666666,2.0,1.0,0.77250688571426,0.2222222222222222,succ_gain,1,2,385.11218950000057,None,1,wp8,2,2023-04-18_11h33.55.612,threat_forest,2021.2.3,60.20473221250338,
10,0,10,0,2,0,2,0,,,,,,,,,,right,0.6617977999994764,391.67341920000035,wp8,377.13859110000067,380.64973310000005,391.67341920000035,None,True,2,['r'],False,0.2222222222222222,0.6666666666666666,0.6666666666666666,2.0,1.0,0.77250688571426,-0.7777777777777778,succ_gain,1,3,389.04199400000016,None,2,wp8,2,2023-04-18_11h33.55.612,threat_forest,2021.2.3,60.20473221250338,
10,0,10,0,3,0,3,0,,,,,,,,,,right,0.9602328999999372,396.60170500000004,wp8,396.60170500000004,None,392.35572930000035,394.3701931000005,False,3,['r'],True,0.3333333333333333,0.3333333333333333,0.0,0.0,1.0,0.5793801642856949,0.0,wait_cost,0,2,394.3701931000005,None,3,wp8,2,2023-04-18_11h33.55.612,threat_forest,2021.2.3,60.20473221250338,
10,0,10,0,4,0,4,0,,,,,,,,,,left,0.6742513999997755,400.7978426999998,wp8,400.7978426999998,None,392.35572930000035,394.3701931000005,True,2,['r'],True,0.3333333333333333,0.3333333333333333,0.0,0.0,1.0,0.5793801642856949,-0.6666666666666667,succ_gain,0,3,399.5986277000002,None,2,wp8,2,2023-04-18_11h33.55.612,threat_forest,2021.2.3,60.20473221250338,
10,0,10,0,5,0,5,0,,,,,,,,,,right,0.9015885999997408,406.17612350000036,wp8,401.4972598000004,403.5116840999999,406.17612350000036,None,True,3,['r'],False,0.2222222222222222,0.6666666666666666,0.6666666666666666,2.0,1.0,0.77250688571426,-0.6666666666666666,unsucc_cost,1,1,403.5116840999999,None,3,wp8,2,2023-04-18_11h33.55.612,threat_forest,2021.2.3,60.20473221250338,
10,0,10,0,6,0,6,0,,,,,,,,,,right,0.9355689000003622,409.88924399999996,wp8,409.88924399999996,None,407.10853959999986,409.12312010000005,False,1,['r'],True,0.3333333333333333,0.3333333333333333,0.0,0.0,1.0,0.5793801642856949,0.3333333333333332,wait_cost,0,0,409.12312010000005,None,1,wp8,2,2023-04-18_11h33.55.612,threat_forest,2021.2.3,60.20473221250338,
10,0,10,0,,,,,,,,,,,,,,,,,,,,,,,,,,,,,,,,,,,,412.86969540000064,None,0,wp8,2,2023-04-18_11h33.55.612,threat_forest,2021.2.3,60.20473221250338,
11,0,11,0,0,0,0,0,,,,,,,413.76143610000054,417.26546430000053,None,right,0.5793499999999767,420.8322809000001,wp8,413.76143610000054,417.26546430000053,420.8322809000001,None,True,4,['r'],False,0.1728395061728395,0.2222222222222222,0.2222222222222222,2.0,2.0,0.8571721972794328,0.0,unsucc_cost,1,2,,,,wp8,2,2023-04-18_11h33.55.612,threat_forest,2021.2.3,60.20473221250338,
11,0,11,0,1,0,1,0,,,,,,,,,,left,0.8646526000002268,425.1254490000001,wp8,413.76143610000054,417.26546430000053,425.1254490000001,None,False,2,['r'],False,0.1728395061728395,0.2222222222222222,0.2222222222222222,2.0,2.0,0.8571721972794328,-0.8271604938271605,wait_cost,1,1,423.44302570000036,None,2,wp8,2,2023-04-18_11h33.55.612,threat_forest,2021.2.3,60.20473221250338,
11,0,11,0,2,0,2,0,,,,,,,,,,right,0.6467201000004934,431.55250200000046,wp8,413.76143610000054,417.26546430000053,431.55250200000046,None,True,1,['r'],False,0.1728395061728395,0.2222222222222222,0.2222222222222222,2.0,2.0,0.8571721972794328,0.1728395061728395,unsucc_cost,1,0,428.0220932000002,None,1,wp8,2,2023-04-18_11h33.55.612,threat_forest,2021.2.3,60.20473221250338,
11,0,11,0,,,,,,,,,,,,,,,,,,,,,,,,,,,,,,,,,,,,434.2330429000003,None,0,wp8,2,2023-04-18_11h33.55.612,threat_forest,2021.2.3,60.20473221250338,
12,0,12,0,0,0,0,0,,,,,,,436.8896359999999,440.39386840000043,None,right,0.730868399999963,443.3582690000003,wp8,436.8896359999999,440.39386840000043,443.3582690000003,None,True,5,['p'],False,0.2,0.2,0.0,0.0,2.0,0.4554859150035951,0.0,unsucc_cost,1,3,,,,wp8,2,2023-04-18_11h33.55.612,threat_forest,2021.2.3,60.20473221250338,
12,0,12,0,1,0,1,0,,,,,,,,,,right,0.6895121999996263,448.8861598000003,wp8,436.8896359999999,440.39386840000043,448.8861598000003,None,True,3,['p'],False,0.2,0.2,0.0,0.0,2.0,0.4554859150035951,0.0,unsucc_cost,1,1,446.1218509999999,None,3,wp8,2,2023-04-18_11h33.55.612,threat_forest,2021.2.3,60.20473221250338,
12,0,12,0,2,0,2,0,,,,,,,,,,right,0.5283680000002278,454.59755810000024,wp8,436.8896359999999,440.39386840000043,454.59755810000024,None,True,1,['p'],False,0.2,0.2,0.0,0.0,2.0,0.4554859150035951,0.1999999999999999,succ_gain,1,3,451.61676290000014,None,1,wp8,2,2023-04-18_11h33.55.612,threat_forest,2021.2.3,60.20473221250338,
12,0,12,0,3,0,3,0,,,,,,,,,,right,0.5218944999996893,459.24316140000064,wp8,436.8896359999999,440.39386840000043,459.24316140000064,None,True,3,['p'],False,0.2,0.2,0.0,0.0,2.0,0.4554859150035951,0.0,succ_gain,1,5,457.1614853000001,None,3,wp8,2,2023-04-18_11h33.55.612,threat_forest,2021.2.3,60.20473221250338,
12,0,12,0,4,0,4,0,,,,,,,,,,right,0.9691862999998193,463.62278349999997,wp8,436.8896359999999,440.39386840000043,463.62278349999997,None,True,5,['p'],False,0.2,0.2,0.0,0.0,2.0,0.4554859150035951,0.0,succ_gain,1,6,461.80714179999995,None,5,wp8,2,2023-04-18_11h33.55.612,threat_forest,2021.2.3,60.20473221250338,
12,0,12,0,5,0,5,0,,,,,,,,,,right,0.8132746000001134,467.818483,wp8,436.8896359999999,440.39386840000043,467.818483,None,True,6,['p'],False,0.2,0.2,0.0,0.0,2.0,0.4554859150035951,0.0,succ_gain,1,6,466.63596099999995,None,6,wp8,2,2023-04-18_11h33.55.612,threat_forest,2021.2.3,60.20473221250338,
12,0,12,0,6,0,6,0,,,,,,,,,,right,0.3946292999999059,472.68064200000026,wp8,436.8896359999999,440.39386840000043,472.68064200000026,None,True,6,['p'],False,0.2,0.2,0.0,0.0,2.0,0.4554859150035951,0.0,fight_cost,1,3,470.6655350000001,None,6,wp8,2,2023-04-18_11h33.55.612,threat_forest,2021.2.3,60.20473221250338,
12,0,12,0,7,0,7,0,,,,,,,,,,right,1.0706744999997682,477.4454814999999,wp8,477.4454814999999,None,473.0968915000003,475.11138459999984,False,3,['p'],True,0.375,0.5,0.25,1.0,2.0,0.9850568223215076,-0.25,wait_cost,0,2,475.11138459999984,None,3,wp8,2,2023-04-18_11h33.55.612,threat_forest,2021.2.3,60.20473221250338,
12,0,12,0,,,,,,,,,,,,,,,,,,,,,,,,,,,,,,,,,,,,480.5564271000003,None,2,wp8,2,2023-04-18_11h33.55.612,threat_forest,2021.2.3,60.20473221250338,
13,0,13,0,0,0,0,0,,,,,,,483.3305836999998,486.8337975000004,None,left,1.5064136000000872,488.68485039999996,wp8,488.68485039999996,None,483.3305836999998,486.8337975000004,True,4,['p'],True,0.2,0.2,0.0,0.0,2.0,0.4554859150035951,0.0,unsucc_cost,0,2,,,,wp8,2,2023-04-18_11h33.55.612,threat_forest,2021.2.3,60.20473221250338,
13,0,13,0,1,0,1,0,,,,,,,,,,right,0.7105355000003328,494.0439784,wp8,490.21439700000064,492.22878500000024,494.0439784,None,True,2,['p'],False,0.1728395061728395,0.2222222222222222,0.2222222222222222,2.0,2.0,0.8571721972794328,-0.8271604938271605,unsucc_cost,1,0,492.22878500000024,None,2,wp8,2,2023-04-18_11h33.55.612,threat_forest,2021.2.3,60.20473221250338,
13,0,13,0,,,,,,,,,,,,,,,,,,,,,,,,,,,,,,,,,,,,496.7911700000004,None,0,wp8,2,2023-04-18_11h33.55.612,threat_forest,2021.2.3,60.20473221250338,
14,0,14,0,0,0,0,0,,,,,,,498.7979942000002,502.3027726999999,None,left,0.6377645999991728,506.06604659999994,wp8,506.06604659999994,None,498.7979942000002,502.3027726999999,True,4,['p'],True,0.4444444444444445,0.6666666666666666,0.3333333333333333,1.0,1.0,0.9656336071428248,0.0,succ_gain,0,5,,,,wp8,2,2023-04-18_11h33.55.612,threat_forest,2021.2.3,60.20473221250338,
14,0,14,0,1,0,1,0,,,,,,,,,,left,0.505545500000153,510.6618554000006,wp8,510.6618554000006,None,498.7979942000002,502.3027726999999,True,5,['p'],True,0.4444444444444445,0.6666666666666666,0.3333333333333333,1.0,1.0,0.9656336071428248,0.0,unsucc_cost,0,3,508.7466097000006,None,5,wp8,2,2023-04-18_11h33.55.612,threat_forest,2021.2.3,60.20473221250338,
14,0,14,0,2,0,2,0,,,,,,,,,,right,0.6700948999996399,514.8411962,wp8,511.1947293000003,513.2090876000002,514.8411962,None,True,3,['p'],False,0.2448979591836734,0.2857142857142857,0.1428571428571428,1.0,1.0,0.8400769154957735,-0.1428571428571428,fight_cost,1,0,513.2090876000002,None,3,wp8,2,2023-04-18_11h33.55.612,threat_forest,2021.2.3,60.20473221250338,
14,0,14,0,,,,,,,,,,,,,,,,,,,,,,,,,,,,,,,,,,,,517.5550553000003,None,0,wp8,2,2023-04-18_11h33.55.612,threat_forest,2021.2.3,60.20473221250338,
15,0,15,0,0,0,0,0,,,,,,,518.1609526000002,521.6678493999998,None,right,0.5665059000002657,523.8830016000002,wp8,518.1609526000002,521.6678493999998,523.8830016000002,None,True,5,['p'],False,0.2040816326530612,0.2857142857142857,0.2857142857142857,2.0,1.0,0.9335459102197724,0.0,unsucc_cost,1,3,,,,wp8,2,2023-04-18_11h33.55.612,threat_forest,2021.2.3,60.20473221250338,
15,0,15,0,1,0,1,0,,,,,,,,,,right,0.5328059000003122,527.8457119000004,wp8,518.1609526000002,521.6678493999998,527.8457119000004,None,True,3,['p'],False,0.2040816326530612,0.2857142857142857,0.2857142857142857,2.0,1.0,0.9335459102197724,-0.2857142857142857,succ_gain,1,4,526.4804186000001,None,3,wp8,2,2023-04-18_11h33.55.612,threat_forest,2021.2.3,60.20473221250338,
15,0,15,0,2,0,2,0,,,,,,,,,,right,0.3269892999996955,532.5249752999998,wp8,518.1609526000002,521.6678493999998,532.5249752999998,None,True,4,['p'],False,0.2040816326530612,0.2857142857142857,0.2857142857142857,2.0,1.0,0.9335459102197724,0.0,unsucc_cost,1,2,530.4097247,None,4,wp8,2,2023-04-18_11h33.55.612,threat_forest,2021.2.3,60.20473221250338,
15,0,15,0,3,0,3,0,,,,,,,,,,left,1.1036310000008598,537.7728084999999,wp8,537.7728084999999,None,532.8743902000006,534.8888827999999,True,2,['p'],True,0.25,0.25,0.0,0.0,1.0,0.5118595071429148,-0.75,unsucc_cost,0,0,534.8888827999999,None,2,wp8,2,2023-04-18_11h33.55.612,threat_forest,2021.2.3,60.20473221250338,
15,0,15,0,,,,,,,,,,,,,,,,,,,,,,,,,,,,,,,,,,,,540.916733,None,0,wp8,2,2023-04-18_11h33.55.612,threat_forest,2021.2.3,60.20473221250338,
16,0,16,0,0,0,0,0,,,,,,,541.8608076999999,545.3683743000001,None,left,0.6496176999999079,548.9595502000002,wp8,548.9595502000002,None,541.8608076999999,545.3683743000001,True,4,['p'],True,0.625,0.625,0.0,0.0,2.0,0.6021808102656677,0.0,succ_gain,0,6,,,,wp8,2,2023-04-18_11h33.55.612,threat_forest,2021.2.3,60.20473221250338,
16,0,16,0,1,0,1,0,,,,,,,,,,left,0.4399499000001015,555.4232069,wp8,549.6422299000005,551.6565426000006,555.4232069,None,False,6,['p'],False,0.5185185185185185,0.6666666666666666,0.2222222222222222,2.0,2.0,0.9327883776363328,0.0,wait_cost,1,5,551.6565426000006,None,6,wp8,2,2023-04-18_11h33.55.612,threat_forest,2021.2.3,60.20473221250338,
16,0,16,0,2,0,2,0,,,,,,,,,,right,1.103920300000027,558.8338297,wp8,549.6422299000005,551.6565426000006,558.8338297,None,True,5,['p'],False,0.5185185185185185,0.6666666666666666,0.2222222222222222,2.0,2.0,0.9327883776363328,0.0,unsucc_cost,1,3,557.9005803999999,None,5,wp8,2,2023-04-18_11h33.55.612,threat_forest,2021.2.3,60.20473221250338,
16,0,16,0,3,0,3,0,,,,,,,,,,left,0.8839685000002646,564.4452994000003,wp8,564.4452994000003,None,559.9658213000002,561.9802424,True,3,['p'],True,0.625,0.625,0.0,0.0,2.0,0.6021808102656677,0.0,succ_gain,0,5,561.9802424,None,3,wp8,2,2023-04-18_11h33.55.612,threat_forest,2021.2.3,60.20473221250338,
16,0,16,0,4,0,4,0,,,,,,,,,,right,0.9134126999997534,571.1386908000004,wp8,571.1386908000004,None,559.9658213000002,561.9802424,False,5,['p'],True,0.625,0.625,0.0,0.0,2.0,0.6021808102656677,0.0,wait_cost,0,4,567.3751886,None,5,wp8,2,2023-04-18_11h33.55.612,threat_forest,2021.2.3,60.20473221250338,
16,0,16,0,5,0,5,0,,,,,,,,,,left,0.7645689000000857,575.3872003000006,wp8,572.0711427000006,574.0855562000006,575.3872003000006,None,False,4,['p'],False,0.5185185185185185,0.6666666666666666,0.2222222222222222,2.0,2.0,0.9327883776363328,0.0,wait_cost,1,3,574.0855562000006,None,4,wp8,2,2023-04-18_11h33.55.612,threat_forest,2021.2.3,60.20473221250338,
16,0,16,0,6,0,6,0,,,,,,,,,,left,0.6707401000003301,579.5807040999998,wp8,572.0711427000006,574.0855562000006,579.5807040999998,None,False,3,['p'],False,0.5185185185185185,0.6666666666666666,0.2222222222222222,2.0,2.0,0.9327883776363328,-0.2222222222222222,wait_cost,1,2,578.1982778000001,None,3,wp8,2,2023-04-18_11h33.55.612,threat_forest,2021.2.3,60.20473221250338,
16,0,16,0,7,0,7,0,,,,,,,,,,right,0.7000149999994392,584.2596013000002,wp8,584.2596013000002,None,580.2800756000006,582.2944679000002,False,2,['p'],True,0.625,0.625,0.0,0.0,2.0,0.6021808102656677,-0.375,wait_cost,0,1,582.2944679000002,None,2,wp8,2,2023-04-18_11h33.55.612,threat_forest,2021.2.3,60.20473221250338,
16,0,16,0,,,,,,,,,,,,,,,,,,,,,,,,,,,,,,,,,,,,587.0068762000001,None,1,wp8,2,2023-04-18_11h33.55.612,threat_forest,2021.2.3,60.20473221250338,
17,0,17,0,0,0,0,0,,,,,,,590.7754782000002,594.2833054000002,None,right,1.572345999999925,595.6160301999998,wp8,590.7754782000002,594.2833054000002,595.6160301999998,None,True,4,['r'],False,0.25,0.5,0.5,2.0,1.0,0.9463946303571862,0.0,fight_cost,1,1,,,,wp8,2,2023-04-18_11h33.55.612,threat_forest,2021.2.3,60.20473221250338,
17,0,17,0,1,0,1,0,,,,,,,,,,left,0.5934050999994724,600.4110826000006,wp8,600.4110826000006,None,597.2141746000007,599.2286226000006,True,1,['r'],True,0.3333333333333333,0.3333333333333333,0.0,0.0,1.0,0.5793801642856949,0.3333333333333332,unsucc_cost,0,0,599.2286226000006,None,1,wp8,2,2023-04-18_11h33.55.612,threat_forest,2021.2.3,60.20473221250338,
17,0,17,0,,,,,,,,,,,,,,,,,,,,,,,,,,,,,,,,,,,,603.0422124000006,None,0,wp8,2,2023-04-18_11h33.55.612,threat_forest,2021.2.3,60.20473221250338,
