miniblock.thisRepN,miniblock.thisTrialN,miniblock.thisN,miniblock.thisIndex,day.thisRepN,day.thisTrialN,day.thisN,day.thisIndex,welcoming.started,welcoming.stopped,key_resp_2.keys,key_resp_2.rt,key_resp_2.started,key_resp_2.stopped,forest.started,fixation_forest.started,fixation_forest.stopped,key_resp.keys,key_resp.rt,key_resp.started,Subject_ID,weather_left.started,weather_left.stopped,weather_right.started,weather_right.stopped,foraging T/F,in_LP,p/r heuristic,good_weather.T/F,p_succ_correct,p_succ_uncorrected,r_threat,n_oponents,gain_if_succ,weather_entropy,OP_value_difference,action_outcome,forest_side_L=0_R=1,out_LP,fixation_day.started,fixation_day.stopped,n_day-1.out_LP.,participant,session,date,expName,psychopyVersion,frameRate,
,,,,,,,,11.776455300001544,None,space,0.7899147999996785,11.776455300001544,None,,,,,,,,,,,,,,,,,,,,,,,,,,,,,or1,4,2022-04-29_15h00.22.475,threat_forest,2021.2.3,60.20295620774385,
0,0,0,0,0,0,0,0,,,,,,,12.643229399996926,16.13659270000062,None,left,1.3051550000091083,19.65312730000005,or1,19.65312730000005,None,12.643229399996926,16.13659270000062,True,4,['p'],True,0.4285714285714285,0.4285714285714285,0.0,0.0,2.0,0.6216097450797565,0.0,fight_cost,0,1,,,,or1,4,2022-04-29_15h00.22.475,threat_forest,2021.2.3,60.20295620774385,
0,0,0,0,1,0,1,0,,,,,,,,,,right,0.5817881999973906,25.51841199999035,or1,20.97839849999582,22.99275379999017,25.51841199999035,None,True,1,['p'],False,0.345679012345679,0.4444444444444444,0.2222222222222222,2.0,2.0,0.9685033186841367,0.345679012345679,succ_gain,1,3,22.99275379999017,None,1,or1,4,2022-04-29_15h00.22.475,threat_forest,2021.2.3,60.20295620774385,
0,0,0,0,2,0,2,0,,,,,,,,,,right,1.0513489000004483,30.842082199989818,or1,20.97839849999582,22.99275379999017,30.842082199989818,None,True,3,['p'],False,0.345679012345679,0.4444444444444444,0.2222222222222222,2.0,2.0,0.9685033186841367,-0.2222222222222222,succ_gain,1,5,28.137793999994756,None,3,or1,4,2022-04-29_15h00.22.475,threat_forest,2021.2.3,60.20295620774385,
0,0,0,0,3,0,3,0,,,,,,,,,,right,2.5894567999930587,36.125286399998004,or1,36.125286399998004,None,31.91827199999534,33.93230380000023,False,5,['p'],True,0.4285714285714285,0.4285714285714285,0.0,0.0,2.0,0.6216097450797565,0.0,wait_cost,0,4,33.93230380000023,None,5,or1,4,2022-04-29_15h00.22.475,threat_forest,2021.2.3,60.20295620774385,
0,0,0,0,4,0,4,0,,,,,,,,,,right,1.0992294999887235,42.09832949998963,or1,42.09832949998963,None,31.91827199999534,33.93230380000023,False,4,['p'],True,0.4285714285714285,0.4285714285714285,0.0,0.0,2.0,0.6216097450797565,0.0,wait_cost,0,3,40.75926079999772,None,4,or1,4,2022-04-29_15h00.22.475,threat_forest,2021.2.3,60.20295620774385,
0,0,0,0,5,0,5,0,,,,,,,,,,right,0.4459207000036258,47.000075999996625,or1,47.000075999996625,None,31.91827199999534,33.93230380000023,False,3,['p'],True,0.4285714285714285,0.4285714285714285,0.0,0.0,2.0,0.6216097450797565,0.0,wait_cost,0,2,45.23848559999897,None,3,or1,4,2022-04-29_15h00.22.475,threat_forest,2021.2.3,60.20295620774385,
0,0,0,0,6,0,6,0,,,,,,,,,,right,0.6390059999976074,52.0227109999978,or1,52.0227109999978,None,31.91827199999534,33.93230380000023,False,2,['p'],True,0.4285714285714285,0.4285714285714285,0.0,0.0,2.0,0.6216097450797565,-0.5714285714285715,wait_cost,0,1,49.484638499998255,None,2,or1,4,2022-04-29_15h00.22.475,threat_forest,2021.2.3,60.20295620774385,
0,0,0,0,7,0,7,0,,,,,,,,,,right,0.6575676999927964,55.499637100001564,or1,52.6820299999963,54.69667369998933,55.499637100001564,None,True,1,['p'],False,0.345679012345679,0.4444444444444444,0.2222222222222222,2.0,2.0,0.9685033186841367,0.345679012345679,succ_gain,1,3,54.69667369998933,None,1,or1,4,2022-04-29_15h00.22.475,threat_forest,2021.2.3,60.20295620774385,
0,0,0,0,,,,,,,,,,,,,,,,,,,,,,,,,,,,,,,,,,,,58.19769689999521,None,3,or1,4,2022-04-29_15h00.22.475,threat_forest,2021.2.3,60.20295620774385,
1,0,1,0,0,0,0,0,,,,,,,61.928260999993654,65.42947930000082,None,right,0.986557799988077,69.09246410000196,or1,61.928260999993654,65.42947930000082,69.09246410000196,None,True,4,['p'],False,0.24,0.3,0.2,2.0,1.0,0.9003120349047065,0.0,succ_gain,1,5,,,,or1,4,2022-04-29_15h00.22.475,threat_forest,2021.2.3,60.20295620774385,
1,0,1,0,1,0,1,0,,,,,,,,,,right,0.7750899999955436,74.94343800000206,or1,74.94343800000206,None,70.09896299999673,72.11331469999277,False,5,['p'],True,0.375,0.5,0.25,1.0,1.0,0.9850568223215076,0.0,wait_cost,0,4,72.11331469999277,None,5,or1,4,2022-04-29_15h00.22.475,threat_forest,2021.2.3,60.20295620774385,
1,0,1,0,2,0,2,0,,,,,,,,,,right,0.7213338000001386,79.86467439999979,or1,79.86467439999979,None,70.09896299999673,72.11331469999277,False,4,['p'],True,0.375,0.5,0.25,1.0,1.0,0.9850568223215076,0.0,wait_cost,0,3,77.75827489999938,None,4,or1,4,2022-04-29_15h00.22.475,threat_forest,2021.2.3,60.20295620774385,
1,0,1,0,3,0,3,0,,,,,,,,,,right,0.653675800000201,84.74343889999727,or1,84.74343889999727,None,70.09896299999673,72.11331469999277,False,3,['p'],True,0.375,0.5,0.25,1.0,1.0,0.9850568223215076,-0.25,wait_cost,0,2,82.62036709999666,None,3,or1,4,2022-04-29_15h00.22.475,threat_forest,2021.2.3,60.20295620774385,
1,0,1,0,4,0,4,0,,,,,,,,,,right,1.0778815999947255,88.75697760000185,or1,85.41831339999044,87.43263169999409,88.75697760000185,None,True,2,['p'],False,0.24,0.3,0.2,2.0,1.0,0.9003120349047065,-0.76,unsucc_cost,1,0,87.43263169999409,None,2,or1,4,2022-04-29_15h00.22.475,threat_forest,2021.2.3,60.20295620774385,
1,0,1,0,,,,,,,,,,,,,,,,,,,,,,,,,,,,,,,,,,,,91.87852949999797,None,0,or1,4,2022-04-29_15h00.22.475,threat_forest,2021.2.3,60.20295620774385,
2,0,2,0,0,0,0,0,,,,,,,93.1410268000036,96.64357220000238,None,left,0.8756835000094725,98.0303516999993,or1,98.0303516999993,None,93.1410268000036,96.64357220000238,True,4,['r'],True,0.4444444444444445,0.6666666666666666,0.3333333333333333,1.0,1.0,0.9656336071428248,0.0,succ_gain,0,5,,,,or1,4,2022-04-29_15h00.22.475,threat_forest,2021.2.3,60.20295620774385,
2,0,2,0,1,0,1,0,,,,,,,,,,left,0.739718199998606,104.68193669999891,or1,98.93900030000077,100.95320589999028,104.68193669999891,None,False,5,['r'],False,0.1875,0.25,0.25,2.0,1.0,0.895754137500101,0.0,wait_cost,1,4,100.95320589999028,None,5,or1,4,2022-04-29_15h00.22.475,threat_forest,2021.2.3,60.20295620774385,
2,0,2,0,2,0,2,0,,,,,,,,,,left,0.9268223000108264,110.78286680000019,or1,110.78286680000019,None,105.44955940000364,107.46383880000212,True,4,['r'],True,0.4444444444444445,0.6666666666666666,0.3333333333333333,1.0,1.0,0.9656336071428248,0.0,fight_cost,0,1,107.46383880000212,None,4,or1,4,2022-04-29_15h00.22.475,threat_forest,2021.2.3,60.20295620774385,
2,0,2,0,3,0,3,0,,,,,,,,,,right,2.105058499990264,115.18396729999222,or1,111.72714699999779,113.74128859999473,115.18396729999222,None,True,1,['r'],False,0.1875,0.25,0.25,2.0,1.0,0.895754137500101,0.1875,unsucc_cost,1,0,113.74128859999473,None,1,or1,4,2022-04-29_15h00.22.475,threat_forest,2021.2.3,60.20295620774385,
2,0,2,0,,,,,,,,,,,,,,,,,,,,,,,,,,,,,,,,,,,,119.33639229999972,None,0,or1,4,2022-04-29_15h00.22.475,threat_forest,2021.2.3,60.20295620774385,
3,0,3,0,0,0,0,0,,,,,,,123.0287110999925,126.5339224999916,None,right,1.0513474000035785,127.30751159999636,or1,123.0287110999925,126.5339224999916,127.30751159999636,None,True,4,['r'],False,0.46875,0.625,0.25,2.0,1.0,0.9634951148421658,0.0,succ_gain,1,5,,,,or1,4,2022-04-29_15h00.22.475,threat_forest,2021.2.3,60.20295620774385,
3,0,3,0,1,0,1,0,,,,,,,,,,right,0.8378115999948932,132.32790279999608,or1,123.0287110999925,126.5339224999916,132.32790279999608,None,True,5,['r'],False,0.46875,0.625,0.25,2.0,1.0,0.9634951148421658,0.0,succ_gain,1,6,130.39239890000317,None,5,or1,4,2022-04-29_15h00.22.475,threat_forest,2021.2.3,60.20295620774385,
3,0,3,0,2,0,2,0,,,,,,,,,,right,1.0738902000011876,135.8264918999921,or1,135.8264918999921,None,133.19030479999492,135.2045616999967,False,6,['r'],True,0.6,0.6,0.0,0.0,1.0,0.6126016192893442,0.0,wait_cost,0,5,135.2045616999967,None,6,or1,4,2022-04-29_15h00.22.475,threat_forest,2021.2.3,60.20295620774385,
3,0,3,0,3,0,3,0,,,,,,,,,,left,1.6009907999978168,142.76875409999047,or1,136.92036329999974,138.93422579999606,142.76875409999047,None,False,5,['r'],False,0.46875,0.625,0.25,2.0,1.0,0.9634951148421658,0.0,wait_cost,1,4,138.93422579999606,None,5,or1,4,2022-04-29_15h00.22.475,threat_forest,2021.2.3,60.20295620774385,
3,0,3,0,4,0,4,0,,,,,,,,,,right,0.6720826999953715,147.89600339999015,or1,136.92036329999974,138.93422579999606,147.89600339999015,None,True,4,['r'],False,0.46875,0.625,0.25,2.0,1.0,0.9634951148421658,0.0,unsucc_cost,1,2,146.41072869999334,None,4,or1,4,2022-04-29_15h00.22.475,threat_forest,2021.2.3,60.20295620774385,
3,0,3,0,5,0,5,0,,,,,,,,,,right,0.5268550000037067,153.37149189999036,or1,136.92036329999974,138.93422579999606,153.37149189999036,None,True,2,['r'],False,0.46875,0.625,0.25,2.0,1.0,0.9634951148421658,-0.53125,succ_gain,1,3,150.60669600000256,None,2,or1,4,2022-04-29_15h00.22.475,threat_forest,2021.2.3,60.20295620774385,
3,0,3,0,6,0,6,0,,,,,,,,,,right,0.807659700003569,158.82973440000205,or1,158.82973440000205,None,153.92072799999733,155.93512300000293,False,3,['r'],True,0.6,0.6,0.0,0.0,1.0,0.6126016192893442,0.0,wait_cost,0,2,155.93512300000293,None,3,or1,4,2022-04-29_15h00.22.475,threat_forest,2021.2.3,60.20295620774385,
3,0,3,0,7,0,7,0,,,,,,,,,,right,0.6287930999969831,162.1848001999897,or1,162.1848001999897,None,153.92072799999733,155.93512300000293,False,2,['r'],True,0.6,0.6,0.0,0.0,1.0,0.6126016192893442,-0.4,wait_cost,0,1,161.67964059999213,None,2,or1,4,2022-04-29_15h00.22.475,threat_forest,2021.2.3,60.20295620774385,
3,0,3,0,,,,,,,,,,,,,,,,,,,,,,,,,,,,,,,,,,,,164.86009089999425,None,1,or1,4,2022-04-29_15h00.22.475,threat_forest,2021.2.3,60.20295620774385,
4,0,4,0,0,0,0,0,,,,,,,167.24348449999525,170.7438029999903,None,right,0.7593771000101697,173.64738059999945,or1,167.24348449999525,170.7438029999903,173.64738059999945,None,True,4,['p'],False,0.4081632653061224,0.5714285714285714,0.2857142857142857,2.0,2.0,0.9885754083994552,0.0,fight_cost,1,1,,,,or1,4,2022-04-29_15h00.22.475,threat_forest,2021.2.3,60.20295620774385,
4,0,4,0,1,0,1,0,,,,,,,,,,right,0.9371767999982694,178.78581689999555,or1,167.24348449999525,170.7438029999903,178.78581689999555,None,True,1,['p'],False,0.4081632653061224,0.5714285714285714,0.2857142857142857,2.0,2.0,0.9885754083994552,0.4081632653061224,unsucc_cost,1,0,176.44943670000066,None,1,or1,4,2022-04-29_15h00.22.475,threat_forest,2021.2.3,60.20295620774385,
4,0,4,0,,,,,,,,,,,,,,,,,,,,,,,,,,,,,,,,,,,,181.76136799999222,None,0,or1,4,2022-04-29_15h00.22.475,threat_forest,2021.2.3,60.20295620774385,
5,0,5,0,0,0,0,0,,,,,,,185.2453119999991,188.74811839999165,None,left,0.8544151000096463,189.59821669998928,or1,189.59821669998928,None,185.2453119999991,188.74811839999165,True,5,['p'],True,0.4444444444444445,0.6666666666666666,0.3333333333333333,1.0,1.0,0.9656336071428248,0.0,succ_gain,0,6,,,,or1,4,2022-04-29_15h00.22.475,threat_forest,2021.2.3,60.20295620774385,
5,0,5,0,1,0,1,0,,,,,,,,,,left,0.5517741000076057,195.48032509999757,or1,190.47023569999146,192.48445589999028,195.48032509999757,None,False,6,['p'],False,0.16,0.2,0.2,2.0,1.0,0.8198746470064713,0.0,wait_cost,1,5,192.48445589999028,None,6,or1,4,2022-04-29_15h00.22.475,threat_forest,2021.2.3,60.20295620774385,
5,0,5,0,2,0,2,0,,,,,,,,,,left,0.5555825999908848,199.2862233999913,or1,190.47023569999146,192.48445589999028,199.2862233999913,None,False,5,['p'],False,0.16,0.2,0.2,2.0,1.0,0.8198746470064713,0.0,wait_cost,1,4,198.0625635000033,None,5,or1,4,2022-04-29_15h00.22.475,threat_forest,2021.2.3,60.20295620774385,
5,0,5,0,3,0,3,0,,,,,,,,,,left,0.7599417999881553,204.98060129999067,or1,204.98060129999067,None,199.8613459999906,201.8756507999933,True,4,['p'],True,0.4444444444444445,0.6666666666666666,0.3333333333333333,1.0,1.0,0.9656336071428248,0.0,succ_gain,0,5,201.8756507999933,None,4,or1,4,2022-04-29_15h00.22.475,threat_forest,2021.2.3,60.20295620774385,
5,0,5,0,4,0,4,0,,,,,,,,,,right,0.9307375999924261,209.48692549999396,or1,209.48692549999396,None,199.8613459999906,201.8756507999933,False,5,['p'],True,0.4444444444444445,0.6666666666666666,0.3333333333333333,1.0,1.0,0.9656336071428248,0.0,wait_cost,0,4,207.78676079999423,None,5,or1,4,2022-04-29_15h00.22.475,threat_forest,2021.2.3,60.20295620774385,
5,0,5,0,5,0,5,0,,,,,,,,,,left,0.4831524999899557,215.18017459999828,or1,210.43470729999535,212.44910230000096,215.18017459999828,None,False,4,['p'],False,0.16,0.2,0.2,2.0,1.0,0.8198746470064713,0.0,wait_cost,1,3,212.44910230000096,None,4,or1,4,2022-04-29_15h00.22.475,threat_forest,2021.2.3,60.20295620774385,
5,0,5,0,6,0,6,0,,,,,,,,,,right,0.8887183999904664,221.15197429999535,or1,221.15197429999535,None,215.68026130000362,217.6774682999967,False,3,['p'],True,0.4444444444444445,0.6666666666666666,0.3333333333333333,1.0,1.0,0.9656336071428248,-0.3333333333333333,wait_cost,0,2,217.6774682999967,None,3,or1,4,2022-04-29_15h00.22.475,threat_forest,2021.2.3,60.20295620774385,
5,0,5,0,7,0,7,0,,,,,,,,,,left,0.8961874999949941,226.9333326999913,or1,222.0571593999921,224.07162750000134,226.9333326999913,None,False,2,['p'],False,0.16,0.2,0.2,2.0,1.0,0.8198746470064713,-0.8400000000000001,wait_cost,1,1,224.07162750000134,None,2,or1,4,2022-04-29_15h00.22.475,threat_forest,2021.2.3,60.20295620774385,
5,0,5,0,,,,,,,,,,,,,,,,,,,,,,,,,,,,,,,,,,,,229.8663441999961,None,1,or1,4,2022-04-29_15h00.22.475,threat_forest,2021.2.3,60.20295620774385,
6,0,6,0,0,0,0,0,,,,,,,230.55371199999354,234.0491777999996,None,right,0.9909812999976566,237.09002180000243,or1,230.55371199999354,234.0491777999996,237.09002180000243,None,True,4,['p'],False,0.2962962962962963,0.3333333333333333,0.1111111111111111,1.0,1.0,0.8325252476189534,0.0,succ_gain,1,5,,,,or1,4,2022-04-29_15h00.22.475,threat_forest,2021.2.3,60.20295620774385,
6,0,6,0,1,0,1,0,,,,,,,,,,right,0.8655469999939669,243.24395340000046,or1,230.55371199999354,234.0491777999996,243.24395340000046,None,True,5,['p'],False,0.2962962962962963,0.3333333333333333,0.1111111111111111,1.0,1.0,0.8325252476189534,0.0,succ_gain,1,6,240.123213999992,None,5,or1,4,2022-04-29_15h00.22.475,threat_forest,2021.2.3,60.20295620774385,
6,0,6,0,2,0,2,0,,,,,,,,,,right,0.538441700002295,249.11074109999754,or1,249.11074109999754,None,244.13672169999336,246.15095699999074,False,6,['p'],True,0.48,0.6,0.2,1.0,1.0,0.9455672104350704,0.0,wait_cost,0,5,246.15095699999074,None,6,or1,4,2022-04-29_15h00.22.475,threat_forest,2021.2.3,60.20295620774385,
6,0,6,0,3,0,3,0,,,,,,,,,,right,1.89369589999842,253.35005959999398,or1,249.68147539999336,251.69561709999107,253.35005959999398,None,True,5,['p'],False,0.2962962962962963,0.3333333333333333,0.1111111111111111,1.0,1.0,0.8325252476189534,0.0,unsucc_cost,1,3,251.69561709999107,None,5,or1,4,2022-04-29_15h00.22.475,threat_forest,2021.2.3,60.20295620774385,
6,0,6,0,4,0,4,0,,,,,,,,,,right,0.81660049999482,259.01951779999945,or1,259.01951779999945,None,255.27590880000207,257.2904303999967,False,3,['p'],True,0.48,0.6,0.2,1.0,1.0,0.9455672104350704,-0.2,wait_cost,0,2,257.2904303999967,None,3,or1,4,2022-04-29_15h00.22.475,threat_forest,2021.2.3,60.20295620774385,
6,0,6,0,5,0,5,0,,,,,,,,,,right,0.8786823000118602,265.19015979999676,or1,259.85506489999534,261.869580899991,265.19015979999676,None,True,2,['p'],False,0.2962962962962963,0.3333333333333333,0.1111111111111111,1.0,1.0,0.8325252476189534,-0.7037037037037037,succ_gain,1,3,261.869580899991,None,2,or1,4,2022-04-29_15h00.22.475,threat_forest,2021.2.3,60.20295620774385,
6,0,6,0,6,0,6,0,,,,,,,,,,right,0.5736009000102058,270.62116309998964,or1,270.62116309998964,None,266.09912649999023,268.11364820000017,False,3,['p'],True,0.48,0.6,0.2,1.0,1.0,0.9455672104350704,-0.2,wait_cost,0,2,268.11364820000017,None,3,or1,4,2022-04-29_15h00.22.475,threat_forest,2021.2.3,60.20295620774385,
6,0,6,0,7,0,7,0,,,,,,,,,,right,0.7219484000088414,273.9132230999967,or1,273.9132230999967,None,266.09912649999023,268.11364820000017,False,2,['p'],True,0.48,0.6,0.2,1.0,1.0,0.9455672104350704,-0.52,wait_cost,0,1,273.2255843000021,None,2,or1,4,2022-04-29_15h00.22.475,threat_forest,2021.2.3,60.20295620774385,
6,0,6,0,,,,,,,,,,,,,,,,,,,,,,,,,,,,,,,,,,,,276.6723381999909,None,1,or1,4,2022-04-29_15h00.22.475,threat_forest,2021.2.3,60.20295620774385,
7,0,7,0,0,0,0,0,,,,,,,278.98674089999986,282.4758634000027,None,left,1.5462215000006836,283.4753211999923,or1,283.4753211999923,None,278.98674089999986,282.4758634000027,True,4,['r'],True,0.2,0.2,0.0,0.0,2.0,0.4554859150035951,0.0,unsucc_cost,0,2,,,,or1,4,2022-04-29_15h00.22.475,threat_forest,2021.2.3,60.20295620774385,
7,0,7,0,1,0,1,0,,,,,,,,,,right,1.0008709999965504,288.7128350999992,or1,288.7128350999992,None,278.98674089999986,282.4758634000027,False,2,['r'],True,0.2,0.2,0.0,0.0,2.0,0.4554859150035951,-0.8,wait_cost,0,1,287.0626714999962,None,2,or1,4,2022-04-29_15h00.22.475,threat_forest,2021.2.3,60.20295620774385,
7,0,7,0,2,0,2,0,,,,,,,,,,right,0.9048059999913676,292.57356989999244,or1,289.74389040000096,291.75835389998974,292.57356989999244,None,True,1,['r'],False,0.1728395061728395,0.2222222222222222,0.2222222222222222,2.0,2.0,0.8571721972794328,0.1728395061728395,fight_cost,1,0,291.75835389998974,None,1,or1,4,2022-04-29_15h00.22.475,threat_forest,2021.2.3,60.20295620774385,
7,0,7,0,,,,,,,,,,,,,,,,,,,,,,,,,,,,,,,,,,,,295.5216212999949,None,0,or1,4,2022-04-29_15h00.22.475,threat_forest,2021.2.3,60.20295620774385,
8,0,8,0,0,0,0,0,,,,,,,296.1733031999902,299.6711099999957,None,right,0.6372000999981537,302.2452637999959,or1,296.1733031999902,299.6711099999957,302.2452637999959,None,True,5,['r'],False,0.28125,0.375,0.25,2.0,2.0,0.9634951148421658,0.0,fight_cost,1,2,,,,or1,4,2022-04-29_15h00.22.475,threat_forest,2021.2.3,60.20295620774385,
8,0,8,0,1,0,1,0,,,,,,,,,,left,0.7724873999977717,305.705048799995,or1,305.705048799995,None,302.9063240999967,304.91266370000085,True,2,['r'],True,0.3333333333333333,0.3333333333333333,0.0,0.0,2.0,0.5793801642856949,-0.6666666666666667,unsucc_cost,0,0,304.91266370000085,None,2,or1,4,2022-04-29_15h00.22.475,threat_forest,2021.2.3,60.20295620774385,
8,0,8,0,,,,,,,,,,,,,,,,,,,,,,,,,,,,,,,,,,,,308.5094331,None,0,or1,4,2022-04-29_15h00.22.475,threat_forest,2021.2.3,60.20295620774385,
9,0,9,0,0,0,0,0,,,,,,,309.63742659999116,313.138429300001,None,right,0.7096196000056807,315.83018629999424,or1,309.63742659999116,313.138429300001,315.83018629999424,None,True,4,['p'],False,0.36,0.6,0.4,2.0,2.0,0.9801625908629508,0.0,fight_cost,1,1,,,,or1,4,2022-04-29_15h00.22.475,threat_forest,2021.2.3,60.20295620774385,
9,0,9,0,1,0,1,0,,,,,,,,,,left,0.6116047000105027,321.06928219999827,or1,321.06928219999827,None,316.56901839999773,318.58325769999647,True,1,['p'],True,0.5,0.5,0.0,0.0,2.0,0.6309297535714574,0.5,succ_gain,0,3,318.58325769999647,None,1,or1,4,2022-04-29_15h00.22.475,threat_forest,2021.2.3,60.20295620774385,
9,0,9,0,2,0,2,0,,,,,,,,,,left,0.6532557000027737,326.6427936999971,or1,326.6427936999971,None,316.56901839999773,318.58325769999647,True,3,['p'],True,0.5,0.5,0.0,0.0,2.0,0.6309297535714574,0.0,succ_gain,0,5,323.71193479999783,None,3,or1,4,2022-04-29_15h00.22.475,threat_forest,2021.2.3,60.20295620774385,
9,0,9,0,3,0,3,0,,,,,,,,,,left,0.5800855999987107,332.2748450999934,or1,327.32560679999006,329.34139799998957,332.2748450999934,None,False,5,['p'],False,0.36,0.6,0.4,2.0,2.0,0.9801625908629508,0.0,wait_cost,1,4,329.34139799998957,None,5,or1,4,2022-04-29_15h00.22.475,threat_forest,2021.2.3,60.20295620774385,
9,0,9,0,4,0,4,0,,,,,,,,,,left,1.0898454999987734,336.0731591999938,or1,336.0731591999938,None,332.8871126000013,334.9013813999918,True,4,['p'],True,0.5,0.5,0.0,0.0,2.0,0.6309297535714574,0.0,succ_gain,0,6,334.9013813999918,None,4,or1,4,2022-04-29_15h00.22.475,threat_forest,2021.2.3,60.20295620774385,
9,0,9,0,5,0,5,0,,,,,,,,,,right,0.4910288999963086,342.31151390000014,or1,342.31151390000014,None,332.8871126000013,334.9013813999918,False,6,['p'],True,0.5,0.5,0.0,0.0,2.0,0.6309297535714574,0.0,wait_cost,0,5,339.19723469999735,None,6,or1,4,2022-04-29_15h00.22.475,threat_forest,2021.2.3,60.20295620774385,
9,0,9,0,6,0,6,0,,,,,,,,,,left,0.6485819000081392,346.552520600002,or1,342.8278411999927,344.8420413999993,346.552520600002,None,False,5,['p'],False,0.36,0.6,0.4,2.0,2.0,0.9801625908629508,0.0,wait_cost,1,4,344.8420413999993,None,5,or1,4,2022-04-29_15h00.22.475,threat_forest,2021.2.3,60.20295620774385,
9,0,9,0,7,0,7,0,,,,,,,,,,right,0.9079078999930061,350.1069206999964,or1,350.1069206999964,None,347.22368239999923,349.23807099999976,False,4,['p'],True,0.5,0.5,0.0,0.0,2.0,0.6309297535714574,0.0,wait_cost,0,3,349.23807099999976,None,4,or1,4,2022-04-29_15h00.22.475,threat_forest,2021.2.3,60.20295620774385,
9,0,9,0,,,,,,,,,,,,,,,,,,,,,,,,,,,,,,,,,,,,353.05112469999585,None,3,or1,4,2022-04-29_15h00.22.475,threat_forest,2021.2.3,60.20295620774385,
10,0,10,0,0,0,0,0,,,,,,,355.0204850000009,358.5158223000035,None,left,1.3372458999947412,362.25275169999804,or1,362.25275169999804,None,355.0204850000009,358.5158223000035,True,5,['r'],True,0.32,0.4,0.2,1.0,1.0,0.9455672104350704,0.0,fight_cost,0,2,,,,or1,4,2022-04-29_15h00.22.475,threat_forest,2021.2.3,60.20295620774385,
10,0,10,0,1,0,1,0,,,,,,,,,,left,0.6697376999945845,369.35743019999063,or1,369.35743019999063,None,355.0204850000009,358.5158223000035,True,2,['r'],True,0.32,0.4,0.2,1.0,1.0,0.9455672104350704,-0.6799999999999999,succ_gain,0,3,365.6227562999993,None,2,or1,4,2022-04-29_15h00.22.475,threat_forest,2021.2.3,60.20295620774385,
10,0,10,0,2,0,2,0,,,,,,,,,,left,0.6605534999980591,374.10840240000107,or1,370.0524349999905,372.06677879999916,374.10840240000107,None,False,3,['r'],False,0.21875,0.25,0.125,1.0,1.0,0.7908280489481783,-0.125,wait_cost,1,2,372.06677879999916,None,3,or1,4,2022-04-29_15h00.22.475,threat_forest,2021.2.3,60.20295620774385,
10,0,10,0,3,0,3,0,,,,,,,,,,left,0.7917255999927875,380.4792823000025,or1,370.0524349999905,372.06677879999916,380.4792823000025,None,False,2,['r'],False,0.21875,0.25,0.125,1.0,1.0,0.7908280489481783,-0.78125,wait_cost,1,1,376.81210609999835,None,2,or1,4,2022-04-29_15h00.22.475,threat_forest,2021.2.3,60.20295620774385,
10,0,10,0,4,0,4,0,,,,,,,,,,right,0.6282727000070736,384.3426007999951,or1,370.0524349999905,372.06677879999916,384.3426007999951,None,True,1,['r'],False,0.21875,0.25,0.125,1.0,1.0,0.7908280489481783,0.21875,fight_cost,1,0,383.3060009000037,None,1,or1,4,2022-04-29_15h00.22.475,threat_forest,2021.2.3,60.20295620774385,
10,0,10,0,,,,,,,,,,,,,,,,,,,,,,,,,,,,,,,,,,,,387.00263989999075,None,0,or1,4,2022-04-29_15h00.22.475,threat_forest,2021.2.3,60.20295620774385,
11,0,11,0,0,0,0,0,,,,,,,389.5427167000016,393.04683490000025,None,right,0.8447620999941137,396.52180039999075,or1,389.5427167000016,393.04683490000025,396.52180039999075,None,True,4,['r'],False,0.4081632653061224,0.5714285714285714,0.2857142857142857,2.0,2.0,0.9885754083994552,0.0,succ_gain,1,6,,,,or1,4,2022-04-29_15h00.22.475,threat_forest,2021.2.3,60.20295620774385,
11,0,11,0,1,0,1,0,,,,,,,,,,right,0.5247155999968527,400.9803744999954,or1,400.9803744999954,None,397.39326709999295,399.40755789999093,False,6,['r'],True,0.5,0.5,0.0,0.0,2.0,0.6309297535714574,0.0,wait_cost,0,5,399.40755789999093,None,6,or1,4,2022-04-29_15h00.22.475,threat_forest,2021.2.3,60.20295620774385,
11,0,11,0,2,0,2,0,,,,,,,,,,right,0.554486100008944,407.0185991000035,or1,407.0185991000035,None,397.39326709999295,399.40755789999093,False,5,['r'],True,0.5,0.5,0.0,0.0,2.0,0.6309297535714574,0.0,wait_cost,0,4,403.53718449998996,None,5,or1,4,2022-04-29_15h00.22.475,threat_forest,2021.2.3,60.20295620774385,
11,0,11,0,3,0,3,0,,,,,,,,,,left,0.6690012000035495,411.6908601000032,or1,407.6004851000034,409.6147726999916,411.6908601000032,None,False,4,['r'],False,0.4081632653061224,0.5714285714285714,0.2857142857142857,2.0,2.0,0.9885754083994552,0.0,wait_cost,1,3,409.6147726999916,None,4,or1,4,2022-04-29_15h00.22.475,threat_forest,2021.2.3,60.20295620774385,
11,0,11,0,4,0,4,0,,,,,,,,,,right,0.6859735000034561,417.4776550999959,or1,407.6004851000034,409.6147726999916,417.4776550999959,None,True,3,['r'],False,0.4081632653061224,0.5714285714285714,0.2857142857142857,2.0,2.0,0.9885754083994552,-0.2857142857142857,unsucc_cost,1,1,414.3935330999957,None,3,or1,4,2022-04-29_15h00.22.475,threat_forest,2021.2.3,60.20295620774385,
11,0,11,0,5,0,5,0,,,,,,,,,,left,0.6577638000017032,423.7233636000019,or1,423.7233636000019,None,418.1905021999992,420.20485629999894,True,1,['r'],True,0.5,0.5,0.0,0.0,2.0,0.6309297535714574,0.5,unsucc_cost,0,0,420.20485629999894,None,1,or1,4,2022-04-29_15h00.22.475,threat_forest,2021.2.3,60.20295620774385,
11,0,11,0,,,,,,,,,,,,,,,,,,,,,,,,,,,,,,,,,,,,426.41593419999117,None,0,or1,4,2022-04-29_15h00.22.475,threat_forest,2021.2.3,60.20295620774385,
12,0,12,0,0,0,0,0,,,,,,,427.51636699998926,431.01304150000215,None,right,0.8960646999912569,433.0232885000005,or1,433.0232885000005,None,427.51636699998926,431.01304150000215,False,5,['p'],True,0.375,0.5,0.25,1.0,2.0,0.9850568223215076,0.0,wait_cost,0,4,,,,or1,4,2022-04-29_15h00.22.475,threat_forest,2021.2.3,60.20295620774385,
12,0,12,0,1,0,1,0,,,,,,,,,,right,0.8310188999894308,437.4561121000006,or1,437.4561121000006,None,427.51636699998926,431.01304150000215,False,4,['p'],True,0.375,0.5,0.25,1.0,2.0,0.9850568223215076,0.0,wait_cost,0,3,435.9570403999969,None,4,or1,4,2022-04-29_15h00.22.475,threat_forest,2021.2.3,60.20295620774385,
12,0,12,0,2,0,2,0,,,,,,,,,,right,0.8088959000015166,441.6266844999918,or1,441.6266844999918,None,427.51636699998926,431.01304150000215,False,3,['p'],True,0.375,0.5,0.25,1.0,2.0,0.9850568223215076,-0.25,wait_cost,0,2,440.31959800000186,None,3,or1,4,2022-04-29_15h00.22.475,threat_forest,2021.2.3,60.20295620774385,
12,0,12,0,3,0,3,0,,,,,,,,,,right,0.8843159999960335,446.3876389999932,or1,442.4682587999996,444.4823103999952,446.3876389999932,None,True,2,['p'],False,0.2,0.2,0.0,0.0,2.0,0.4554859150035951,-0.8,fight_cost,1,0,444.4823103999952,None,2,or1,4,2022-04-29_15h00.22.475,threat_forest,2021.2.3,60.20295620774385,
12,0,12,0,,,,,,,,,,,,,,,,,,,,,,,,,,,,,,,,,,,,449.3113069999963,None,0,or1,4,2022-04-29_15h00.22.475,threat_forest,2021.2.3,60.20295620774385,
13,0,13,0,0,0,0,0,,,,,,,452.6119763000024,456.1060889999935,None,right,0.74391609999293,458.41965949999576,or1,452.6119763000024,456.1060889999935,458.41965949999576,None,True,4,['r'],False,0.16,0.2,0.2,2.0,2.0,0.8198746470064713,0.0,fight_cost,1,1,,,,or1,4,2022-04-29_15h00.22.475,threat_forest,2021.2.3,60.20295620774385,
13,0,13,0,1,0,1,0,,,,,,,,,,left,1.5446214999974472,463.9812163000024,or1,463.9812163000024,None,459.1854919000034,461.20016249999753,True,1,['r'],True,0.25,0.5,0.5,1.0,2.0,0.9463946303571862,0.25,succ_gain,0,3,461.20016249999753,None,1,or1,4,2022-04-29_15h00.22.475,threat_forest,2021.2.3,60.20295620774385,
13,0,13,0,2,0,2,0,,,,,,,,,,right,1.200055199995404,468.13513569999486,or1,465.5464653999952,467.56074329999683,468.13513569999486,None,True,3,['r'],False,0.16,0.2,0.2,2.0,2.0,0.8198746470064713,-0.2,succ_gain,1,5,467.56074329999683,None,3,or1,4,2022-04-29_15h00.22.475,threat_forest,2021.2.3,60.20295620774385,
13,0,13,0,3,0,3,0,,,,,,,,,,left,2.017635700001847,473.58992469999066,or1,465.5464653999952,467.56074329999683,473.58992469999066,None,False,5,['r'],False,0.16,0.2,0.2,2.0,2.0,0.8198746470064713,0.0,wait_cost,1,4,471.37383939999563,None,5,or1,4,2022-04-29_15h00.22.475,threat_forest,2021.2.3,60.20295620774385,
13,0,13,0,4,0,4,0,,,,,,,,,,right,1.0717881000018679,480.39934920000087,or1,465.5464653999952,467.56074329999683,480.39934920000087,None,True,4,['r'],False,0.16,0.2,0.2,2.0,2.0,0.8198746470064713,0.0,unsucc_cost,1,2,477.6514906999946,None,4,or1,4,2022-04-29_15h00.22.475,threat_forest,2021.2.3,60.20295620774385,
13,0,13,0,5,0,5,0,,,,,,,,,,right,1.2722493000037502,485.87795059999917,or1,465.5464653999952,467.56074329999683,485.87795059999917,None,True,2,['r'],False,0.16,0.2,0.2,2.0,2.0,0.8198746470064713,-0.8400000000000001,unsucc_cost,1,0,483.5125398999953,None,2,or1,4,2022-04-29_15h00.22.475,threat_forest,2021.2.3,60.20295620774385,
13,0,13,0,,,,,,,,,,,,,,,,,,,,,,,,,,,,,,,,,,,,489.1908841999975,None,0,or1,4,2022-04-29_15h00.22.475,threat_forest,2021.2.3,60.20295620774385,
14,0,14,0,0,0,0,0,,,,,,,491.4883715999895,494.9872330999933,None,right,0.8047300000034738,497.0466226999997,or1,497.0466226999997,None,491.4883715999895,494.9872330999933,False,4,['r'],True,0.4444444444444445,0.6666666666666666,0.3333333333333333,1.0,1.0,0.9656336071428248,0.0,wait_cost,0,3,,,,or1,4,2022-04-29_15h00.22.475,threat_forest,2021.2.3,60.20295620774385,
14,0,14,0,1,0,1,0,,,,,,,,,,right,0.6402426999993622,502.15247739999904,or1,497.8904027999961,499.897458499996,502.15247739999904,None,True,3,['r'],False,0.1975308641975308,0.2222222222222222,0.1111111111111111,1.0,1.0,0.7461067557824965,-0.1111111111111111,fight_cost,1,0,499.897458499996,None,3,or1,4,2022-04-29_15h00.22.475,threat_forest,2021.2.3,60.20295620774385,
14,0,14,0,,,,,,,,,,,,,,,,,,,,,,,,,,,,,,,,,,,,504.8261341999896,None,0,or1,4,2022-04-29_15h00.22.475,threat_forest,2021.2.3,60.20295620774385,
15,0,15,0,0,0,0,0,,,,,,,506.4753686999902,509.973330599998,None,left,1.4289766000001691,510.66666789999,or1,506.4753686999902,509.973330599998,510.66666789999,None,False,5,['r'],False,0.2040816326530612,0.2857142857142857,0.2857142857142857,2.0,1.0,0.9335459102197724,0.0,wait_cost,1,4,,,,or1,4,2022-04-29_15h00.22.475,threat_forest,2021.2.3,60.20295620774385,
15,0,15,0,1,0,1,0,,,,,,,,,,left,0.8190742000006139,515.7987051999953,or1,515.7987051999953,None,512.1196836000017,514.1339969999972,True,4,['r'],True,0.25,0.25,0.0,0.0,1.0,0.5118595071429148,0.0,unsucc_cost,0,2,514.1339969999972,None,4,or1,4,2022-04-29_15h00.22.475,threat_forest,2021.2.3,60.20295620774385,
15,0,15,0,2,0,2,0,,,,,,,,,,right,0.6556870000058552,521.1676348999899,or1,516.6487554999912,518.6630359999981,521.1676348999899,None,True,2,['r'],False,0.2040816326530612,0.2857142857142857,0.2857142857142857,2.0,1.0,0.9335459102197724,-0.7959183673469388,succ_gain,1,3,518.6630359999981,None,2,or1,4,2022-04-29_15h00.22.475,threat_forest,2021.2.3,60.20295620774385,
15,0,15,0,3,0,3,0,,,,,,,,,,left,1.047649200001615,526.040903599991,or1,516.6487554999912,518.6630359999981,526.040903599991,None,False,3,['r'],False,0.2040816326530612,0.2857142857142857,0.2857142857142857,2.0,1.0,0.9335459102197724,-0.2857142857142857,wait_cost,1,2,523.8582065999944,None,3,or1,4,2022-04-29_15h00.22.475,threat_forest,2021.2.3,60.20295620774385,
15,0,15,0,4,0,4,0,,,,,,,,,,left,0.74081920000026,532.7595768000028,or1,532.7595768000028,None,527.1057301999972,529.1199145999999,True,2,['r'],True,0.25,0.25,0.0,0.0,1.0,0.5118595071429148,-0.75,succ_gain,0,3,529.1199145999999,None,2,or1,4,2022-04-29_15h00.22.475,threat_forest,2021.2.3,60.20295620774385,
15,0,15,0,5,0,5,0,,,,,,,,,,right,2.588886600002297,537.0196015999973,or1,533.5330734000017,535.547258999999,537.0196015999973,None,True,3,['r'],False,0.2040816326530612,0.2857142857142857,0.2857142857142857,2.0,1.0,0.9335459102197724,-0.2857142857142857,succ_gain,1,4,535.547258999999,None,3,or1,4,2022-04-29_15h00.22.475,threat_forest,2021.2.3,60.20295620774385,
15,0,15,0,6,0,6,0,,,,,,,,,,left,0.6619634999951813,542.227123699995,or1,533.5330734000017,535.547258999999,542.227123699995,None,False,4,['r'],False,0.2040816326530612,0.2857142857142857,0.2857142857142857,2.0,1.0,0.9335459102197724,0.0,wait_cost,1,3,541.6416278999968,None,4,or1,4,2022-04-29_15h00.22.475,threat_forest,2021.2.3,60.20295620774385,
15,0,15,0,7,0,7,0,,,,,,,,,,right,0.5816873000003397,548.3156681999972,or1,548.3156681999972,None,542.907480599999,544.9218969999929,False,3,['r'],True,0.25,0.25,0.0,0.0,1.0,0.5118595071429148,0.0,wait_cost,0,2,544.9218969999929,None,3,or1,4,2022-04-29_15h00.22.475,threat_forest,2021.2.3,60.20295620774385,
15,0,15,0,,,,,,,,,,,,,,,,,,,,,,,,,,,,,,,,,,,,550.9329913999973,None,2,or1,4,2022-04-29_15h00.22.475,threat_forest,2021.2.3,60.20295620774385,
16,0,16,0,0,0,0,0,,,,,,,553.3037213999924,556.7969376999972,None,right,0.8782917999924393,558.1059217000002,or1,558.1059217000002,None,553.3037213999924,556.7969376999972,False,5,['r'],True,0.4444444444444445,0.6666666666666666,0.3333333333333333,1.0,2.0,0.9656336071428248,0.0,wait_cost,0,4,,,,or1,4,2022-04-29_15h00.22.475,threat_forest,2021.2.3,60.20295620774385,
16,0,16,0,1,0,1,0,,,,,,,,,,right,0.5361816999939037,562.8307432000001,or1,562.8307432000001,None,553.3037213999924,556.7969376999972,False,4,['r'],True,0.4444444444444445,0.6666666666666666,0.3333333333333333,1.0,2.0,0.9656336071428248,0.0,wait_cost,0,3,561.0067079,None,4,or1,4,2022-04-29_15h00.22.475,threat_forest,2021.2.3,60.20295620774385,
16,0,16,0,2,0,2,0,,,,,,,,,,right,0.8226004999887664,569.0711538000032,or1,563.3884452999919,565.4025563999894,569.0711538000032,None,True,3,['r'],False,0.2592592592592592,0.3333333333333333,0.2222222222222222,2.0,2.0,0.9327883776363324,-0.2222222222222222,fight_cost,1,0,565.4025563999894,None,3,or1,4,2022-04-29_15h00.22.475,threat_forest,2021.2.3,60.20295620774385,
16,0,16,0,,,,,,,,,,,,,,,,,,,,,,,,,,,,,,,,,,,,571.9299642999977,None,0,or1,4,2022-04-29_15h00.22.475,threat_forest,2021.2.3,60.20295620774385,
17,0,17,0,0,0,0,0,,,,,,,575.3399442999944,578.8399348999956,None,left,1.0800561000069138,579.9819223999948,or1,575.3399442999944,578.8399348999956,579.9819223999948,None,False,5,['p'],False,0.24,0.4,0.4,2.0,2.0,0.9801625908629508,0.0,wait_cost,1,4,,,,or1,4,2022-04-29_15h00.22.475,threat_forest,2021.2.3,60.20295620774385,
17,0,17,0,1,0,1,0,,,,,,,,,,left,0.8663429000007454,583.7857342999923,or1,575.3399442999944,578.8399348999956,583.7857342999923,None,False,4,['p'],False,0.24,0.4,0.4,2.0,2.0,0.9801625908629508,0.0,wait_cost,1,3,583.1027076000028,None,4,or1,4,2022-04-29_15h00.22.475,threat_forest,2021.2.3,60.20295620774385,
17,0,17,0,2,0,2,0,,,,,,,,,,left,0.9084377000108361,587.7820159999974,or1,575.3399442999944,578.8399348999956,587.7820159999974,None,False,3,['p'],False,0.24,0.4,0.4,2.0,2.0,0.9801625908629508,-0.4,wait_cost,1,2,586.6827574999916,None,3,or1,4,2022-04-29_15h00.22.475,threat_forest,2021.2.3,60.20295620774385,
17,0,17,0,3,0,3,0,,,,,,,,,,left,0.913497899993672,594.1440110999974,or1,575.3399442999944,578.8399348999956,594.1440110999974,None,False,2,['p'],False,0.24,0.4,0.4,2.0,2.0,0.9801625908629508,-0.76,wait_cost,1,1,590.7290453000023,None,2,or1,4,2022-04-29_15h00.22.475,threat_forest,2021.2.3,60.20295620774385,
17,0,17,0,4,0,4,0,,,,,,,,,,right,0.9553308000031393,598.5554929999926,or1,575.3399442999944,578.8399348999956,598.5554929999926,None,True,1,['p'],False,0.24,0.4,0.4,2.0,2.0,0.9801625908629508,0.24,unsucc_cost,1,0,597.0896940999955,None,1,or1,4,2022-04-29_15h00.22.475,threat_forest,2021.2.3,60.20295620774385,
17,0,17,0,,,,,,,,,,,,,,,,,,,,,,,,,,,,,,,,,,,,601.5523411999893,None,0,or1,4,2022-04-29_15h00.22.475,threat_forest,2021.2.3,60.20295620774385,
