miniblock.thisRepN,miniblock.thisTrialN,miniblock.thisN,miniblock.thisIndex,day.thisRepN,day.thisTrialN,day.thisN,day.thisIndex,welcoming.started,welcoming.stopped,key_resp_2.keys,key_resp_2.rt,key_resp_2.started,key_resp_2.stopped,forest.started,fixation_forest.started,fixation_forest.stopped,key_resp.keys,key_resp.rt,key_resp.started,Subject_ID,weather_left.started,weather_left.stopped,weather_right.started,weather_right.stopped,foraging T/F,in_LP,p/r heuristic,good_weather.T/F,p_succ_correct,p_succ_uncorrected,r_threat,n_oponents,gain_if_succ,weather_entropy,OP_value_difference,action_outcome,forest_side_L=0_R=1,out_LP,fixation_day.started,fixation_day.stopped,n_day-1.out_LP.,participant,session,date,expName,psychopyVersion,frameRate,
,,,,,,,,14.712830299977213,None,space,2.4743554999586195,14.712830299977213,None,,,,,,,,,,,,,,,,,,,,,,,,,,,,,xt17,3,2022-04-21_14h48.21.981,threat_forest,2021.2.3,60.82924861818583,
0,0,0,0,0,0,0,0,,,,,,,17.24429199984297,20.756656099809334,None,right,1.9490956000518054,21.471780199790373,xt17,17.24429199984297,20.756656099809334,21.471780199790373,None,True,5,['r'],False,0.4081632653061224,0.5714285714285714,0.2857142857142857,2.0,2.0,0.9885754083994552,0.0,unsucc_cost,1,3,,,,xt17,3,2022-04-21_14h48.21.981,threat_forest,2021.2.3,60.82924861818583,
0,0,0,0,1,0,1,0,,,,,,,,,,left,2.6382160000503063,28.27368119987659,xt17,28.27368119987659,None,23.440365999937057,25.44014329998754,True,3,['r'],True,0.5,0.5,0.0,0.0,2.0,0.6309297535714574,0.0,succ_gain,0,5,25.44014329998754,None,3,xt17,3,2022-04-21_14h48.21.981,threat_forest,2021.2.3,60.82924861818583,
0,0,0,0,2,0,2,0,,,,,,,,,,right,2.723799900151789,34.44239439978264,xt17,30.94037239998579,32.94018049980514,34.44239439978264,None,True,5,['r'],False,0.4081632653061224,0.5714285714285714,0.2857142857142857,2.0,2.0,0.9885754083994552,0.0,fight_cost,1,2,32.94018049980514,None,5,xt17,3,2022-04-21_14h48.21.981,threat_forest,2021.2.3,60.82924861818583,
0,0,0,0,3,0,3,0,,,,,,,,,,None,,40.82415149989538,xt17,30.94037239998579,32.94018049980514,40.82415149989538,None,None,2,['r'],False,0.4081632653061224,0.5714285714285714,0.2857142857142857,2.0,2.0,0.9885754083994552,-0.5918367346938775,wait_cost,1,1,39.190322999842465,None,2,xt17,3,2022-04-21_14h48.21.981,threat_forest,2021.2.3,60.82924861818583,
0,0,0,0,4,0,4,0,,,,,,,,,,left,1.4226009999401867,49.5241126997862,xt17,49.5241126997862,None,43.82385079981759,45.82369739981368,True,1,['r'],True,0.5,0.5,0.0,0.0,2.0,0.6309297535714574,0.5,unsucc_cost,0,0,45.82369739981368,None,1,xt17,3,2022-04-21_14h48.21.981,threat_forest,2021.2.3,60.82924861818583,
0,0,0,0,,,,,,,,,,,,,,,,,,,,,,,,,,,,,,,,,,,,52.9764309998136,None,0,xt17,3,2022-04-21_14h48.21.981,threat_forest,2021.2.3,60.82924861818583,
1,0,1,0,0,0,0,0,,,,,,,56.70657809986733,60.19593249983154,None,left,1.0191830000840127,63.124450699891895,xt17,56.70657809986733,60.19593249983154,63.124450699891895,None,False,5,['p'],False,0.16,0.2,0.2,2.0,2.0,0.8198746470064713,0.0,wait_cost,1,4,,,,xt17,3,2022-04-21_14h48.21.981,threat_forest,2021.2.3,60.82924861818583,
1,0,1,0,1,0,1,0,,,,,,,,,,right,1.3580285999923944,68.46127019985579,xt17,68.46127019985579,None,64.17455569980666,66.17407499998808,False,4,['p'],True,0.24,0.4,0.4,2.0,2.0,0.9801625908629508,0.0,wait_cost,0,3,66.17407499998808,None,4,xt17,3,2022-04-21_14h48.21.981,threat_forest,2021.2.3,60.82924861818583,
1,0,1,0,2,0,2,0,,,,,,,,,,right,1.5935954998712987,72.52475489978679,xt17,72.52475489978679,None,64.17455569980666,66.17407499998808,False,3,['p'],True,0.24,0.4,0.4,2.0,2.0,0.9801625908629508,-0.4,wait_cost,0,2,71.84086059988476,None,3,xt17,3,2022-04-21_14h48.21.981,threat_forest,2021.2.3,60.82924861818583,
1,0,1,0,3,0,3,0,,,,,,,,,,left,2.459784099832177,78.44159369985573,xt17,74.14106619986705,76.14091949979775,78.44159369985573,None,False,2,['p'],False,0.16,0.2,0.2,2.0,2.0,0.8198746470064713,-0.8400000000000001,wait_cost,1,1,76.14091949979775,None,2,xt17,3,2022-04-21_14h48.21.981,threat_forest,2021.2.3,60.82924861818583,
1,0,1,0,4,0,4,0,,,,,,,,,,left,1.0161790999118239,86.30885619996116,xt17,86.30885619996116,None,80.92452739994042,82.92434939998202,True,1,['p'],True,0.24,0.4,0.4,2.0,2.0,0.9801625908629508,0.24,unsucc_cost,0,0,82.92434939998202,None,1,xt17,3,2022-04-21_14h48.21.981,threat_forest,2021.2.3,60.82924861818583,
1,0,1,0,,,,,,,,,,,,,,,,,,,,,,,,,,,,,,,,,,,,89.35781929991208,None,0,xt17,3,2022-04-21_14h48.21.981,threat_forest,2021.2.3,60.82924861818583,
2,0,2,0,0,0,0,0,,,,,,,91.91243709996343,95.42439099983312,None,right,1.7783965999260545,96.75829209992662,xt17,91.91243709996343,95.42439099983312,96.75829209992662,None,True,5,['p'],False,0.4081632653061224,0.5714285714285714,0.2857142857142857,2.0,1.0,0.9885754083994552,0.0,unsucc_cost,1,3,,,,xt17,3,2022-04-21_14h48.21.981,threat_forest,2021.2.3,60.82924861818583,
2,0,2,0,1,0,1,0,,,,,,,,,,right,2.3173761998768896,104.1751832999289,xt17,91.91243709996343,95.42439099983312,104.1751832999289,None,True,3,['p'],False,0.4081632653061224,0.5714285714285714,0.2857142857142857,2.0,1.0,0.9885754083994552,-0.2857142857142857,unsucc_cost,1,1,100.55796259990893,None,3,xt17,3,2022-04-21_14h48.21.981,threat_forest,2021.2.3,60.82924861818583,
2,0,2,0,2,0,2,0,,,,,,,,,,right,0.9665987000335008,111.57509979978204,xt17,91.91243709996343,95.42439099983312,111.57509979978204,None,True,1,['p'],False,0.4081632653061224,0.5714285714285714,0.2857142857142857,2.0,1.0,0.9885754083994552,0.4081632653061224,unsucc_cost,1,0,108.5247695997823,None,1,xt17,3,2022-04-21_14h48.21.981,threat_forest,2021.2.3,60.82924861818583,
2,0,2,0,,,,,,,,,,,,,,,,,,,,,,,,,,,,,,,,,,,,114.55818089982495,None,0,xt17,3,2022-04-21_14h48.21.981,threat_forest,2021.2.3,60.82924861818583,
3,0,3,0,0,0,0,0,,,,,,,117.93269499996677,121.44149779994041,None,left,2.013475000159815,124.44370609987527,xt17,117.93269499996677,121.44149779994041,124.44370609987527,None,False,4,['p'],False,0.2592592592592592,0.3333333333333333,0.2222222222222222,2.0,2.0,0.9327883776363324,0.0,wait_cost,1,3,,,,xt17,3,2022-04-21_14h48.21.981,threat_forest,2021.2.3,60.82924861818583,
3,0,3,0,1,0,1,0,,,,,,,,,,left,1.7400797998998314,129.67545219999738,xt17,117.93269499996677,121.44149779994041,129.67545219999738,None,False,3,['p'],False,0.2592592592592592,0.3333333333333333,0.2222222222222222,2.0,2.0,0.9327883776363324,-0.2222222222222222,wait_cost,1,2,128.47503659990616,None,3,xt17,3,2022-04-21_14h48.21.981,threat_forest,2021.2.3,60.82924861818583,
3,0,3,0,2,0,2,0,,,,,,,,,,right,0.9964564999099821,135.90937989996746,xt17,117.93269499996677,121.44149779994041,135.90937989996746,None,True,2,['p'],False,0.2592592592592592,0.3333333333333333,0.2222222222222222,2.0,2.0,0.9327883776363324,-0.7407407407407408,fight_cost,1,0,133.44173699989915,None,2,xt17,3,2022-04-21_14h48.21.981,threat_forest,2021.2.3,60.82924861818583,
3,0,3,0,,,,,,,,,,,,,,,,,,,,,,,,,,,,,,,,,,,,138.92520699999295,None,0,xt17,3,2022-04-21_14h48.21.981,threat_forest,2021.2.3,60.82924861818583,
4,0,4,0,0,0,0,0,,,,,,,142.64332549995743,146.15858849999495,None,right,1.1464123998302966,149.85919349989854,xt17,149.85919349989854,None,142.64332549995743,146.15858849999495,False,5,['r'],True,0.3333333333333333,0.3333333333333333,0.0,0.0,1.0,0.5793801642856949,0.0,wait_cost,0,4,,,,xt17,3,2022-04-21_14h48.21.981,threat_forest,2021.2.3,60.82924861818583,
4,0,4,0,1,0,1,0,,,,,,,,,,left,1.304158499930054,156.45938889984973,xt17,151.02544519980438,153.02531209983863,156.45938889984973,None,False,4,['r'],False,0.2222222222222222,0.6666666666666666,0.6666666666666666,2.0,1.0,0.77250688571426,0.0,wait_cost,1,3,153.02531209983863,None,4,xt17,3,2022-04-21_14h48.21.981,threat_forest,2021.2.3,60.82924861818583,
4,0,4,0,2,0,2,0,,,,,,,,,,left,1.9782507999334484,161.62598929996602,xt17,151.02544519980438,153.02531209983863,161.62598929996602,None,False,3,['r'],False,0.2222222222222222,0.6666666666666666,0.6666666666666666,2.0,1.0,0.77250688571426,-0.6666666666666666,wait_cost,1,2,159.79216609988362,None,3,xt17,3,2022-04-21_14h48.21.981,threat_forest,2021.2.3,60.82924861818583,
4,0,4,0,3,0,3,0,,,,,,,,,,right,1.9601253001019359,168.87624659994617,xt17,151.02544519980438,153.02531209983863,168.87624659994617,None,True,2,['r'],False,0.2222222222222222,0.6666666666666666,0.6666666666666666,2.0,1.0,0.77250688571426,-0.7777777777777778,succ_gain,1,3,165.62561609991826,None,2,xt17,3,2022-04-21_14h48.21.981,threat_forest,2021.2.3,60.82924861818583,
4,0,4,0,4,0,4,0,,,,,,,,,,left,1.7687154999002814,174.75948089989834,xt17,151.02544519980438,153.02531209983863,174.75948089989834,None,False,3,['r'],False,0.2222222222222222,0.6666666666666666,0.6666666666666666,2.0,1.0,0.77250688571426,-0.6666666666666666,wait_cost,1,2,172.85900199995376,None,3,xt17,3,2022-04-21_14h48.21.981,threat_forest,2021.2.3,60.82924861818583,
4,0,4,0,5,0,5,0,,,,,,,,,,right,1.3163880000356585,179.57584499986842,xt17,179.57584499986842,None,176.55919609987177,178.55910189985298,False,2,['r'],True,0.3333333333333333,0.3333333333333333,0.0,0.0,1.0,0.5793801642856949,-0.6666666666666667,wait_cost,0,1,178.55910189985298,None,2,xt17,3,2022-04-21_14h48.21.981,threat_forest,2021.2.3,60.82924861818583,
4,0,4,0,6,0,6,0,,,,,,,,,,left,1.7459894998464733,185.25995879992843,xt17,185.25995879992843,None,176.55919609987177,178.55910189985298,True,1,['r'],True,0.3333333333333333,0.3333333333333333,0.0,0.0,1.0,0.5793801642856949,0.3333333333333332,unsucc_cost,0,0,182.9091287998017,None,1,xt17,3,2022-04-21_14h48.21.981,threat_forest,2021.2.3,60.82924861818583,
4,0,4,0,,,,,,,,,,,,,,,,,,,,,,,,,,,,,,,,,,,,189.02603679988533,None,0,xt17,3,2022-04-21_14h48.21.981,threat_forest,2021.2.3,60.82924861818583,
5,0,5,0,0,0,0,0,,,,,,,189.5512838999275,193.05921529978514,None,right,1.1506897998042405,195.17692849994637,xt17,189.5512838999275,193.05921529978514,195.17692849994637,None,True,5,['r'],False,0.46875,0.625,0.25,2.0,2.0,0.9634951148421658,0.0,succ_gain,1,6,,,,xt17,3,2022-04-21_14h48.21.981,threat_forest,2021.2.3,60.82924861818583,
5,0,5,0,1,0,1,0,,,,,,,,,,right,2.195996700087562,200.27659549983218,xt17,189.5512838999275,193.05921529978514,200.27659549983218,None,True,6,['r'],False,0.46875,0.625,0.25,2.0,2.0,0.9634951148421658,0.0,unsucc_cost,1,4,198.3593045999296,None,6,xt17,3,2022-04-21_14h48.21.981,threat_forest,2021.2.3,60.82924861818583,
5,0,5,0,2,0,2,0,,,,,,,,,,right,2.6351717999204993,208.0762574998662,xt17,189.5512838999275,193.05921529978514,208.0762574998662,None,True,4,['r'],False,0.46875,0.625,0.25,2.0,2.0,0.9634951148421658,0.0,unsucc_cost,1,2,204.49275289988145,None,4,xt17,3,2022-04-21_14h48.21.981,threat_forest,2021.2.3,60.82924861818583,
5,0,5,0,3,0,3,0,,,,,,,,,,left,1.6991584000643343,216.2441449998878,xt17,216.2441449998878,None,210.7430673998315,212.7430554998573,True,2,['r'],True,0.6,0.6,0.0,0.0,2.0,0.6126016192893442,-0.4,fight_cost,0,0,212.7430554998573,None,2,xt17,3,2022-04-21_14h48.21.981,threat_forest,2021.2.3,60.82924861818583,
5,0,5,0,,,,,,,,,,,,,,,,,,,,,,,,,,,,,,,,,,,,219.95979169989005,None,0,xt17,3,2022-04-21_14h48.21.981,threat_forest,2021.2.3,60.82924861818583,
6,0,6,0,0,0,0,0,,,,,,,221.96754009998403,225.47644759994,None,left,1.5491479998454452,227.22711759991944,xt17,221.96754009998403,225.47644759994,227.22711759991944,None,False,4,['p'],False,0.18,0.2,0.1,1.0,1.0,0.7058405977926203,0.0,wait_cost,1,3,,,,xt17,3,2022-04-21_14h48.21.981,threat_forest,2021.2.3,60.82924861818583,
6,0,6,0,1,0,1,0,,,,,,,,,,right,1.3082874999381602,233.41293709981255,xt17,233.41293709981255,None,228.7934118998237,230.793225399917,False,3,['p'],True,0.375,0.5,0.25,1.0,1.0,0.9850568223215076,-0.25,wait_cost,0,2,230.793225399917,None,3,xt17,3,2022-04-21_14h48.21.981,threat_forest,2021.2.3,60.82924861818583,
6,0,6,0,2,0,2,0,,,,,,,,,,right,1.0820034998469055,239.11070139985532,xt17,239.11070139985532,None,228.7934118998237,230.793225399917,False,2,['p'],True,0.375,0.5,0.25,1.0,1.0,0.9850568223215076,-0.625,wait_cost,0,1,236.74319129996002,None,2,xt17,3,2022-04-21_14h48.21.981,threat_forest,2021.2.3,60.82924861818583,
6,0,6,0,3,0,3,0,,,,,,,,,,right,1.7347947000525892,244.14367219991982,xt17,240.2100740999449,242.21005189977586,244.14367219991982,None,True,1,['p'],False,0.18,0.2,0.1,1.0,1.0,0.7058405977926203,0.1799999999999999,succ_gain,1,2,242.21005189977586,None,1,xt17,3,2022-04-21_14h48.21.981,threat_forest,2021.2.3,60.82924861818583,
6,0,6,0,4,0,4,0,,,,,,,,,,right,0.915743299992755,249.8455139999278,xt17,249.8455139999278,None,245.91061009978876,247.91037149983458,False,2,['p'],True,0.375,0.5,0.25,1.0,1.0,0.9850568223215076,-0.625,wait_cost,0,1,247.91037149983458,None,2,xt17,3,2022-04-21_14h48.21.981,threat_forest,2021.2.3,60.82924861818583,
6,0,6,0,5,0,5,0,,,,,,,,,,left,1.7855636000167578,253.5941222999245,xt17,253.5941222999245,None,245.91061009978876,247.91037149983458,True,1,['p'],True,0.375,0.5,0.25,1.0,1.0,0.9850568223215076,0.375,unsucc_cost,0,0,252.79351169988513,None,1,xt17,3,2022-04-21_14h48.21.981,threat_forest,2021.2.3,60.82924861818583,
6,0,6,0,,,,,,,,,,,,,,,,,,,,,,,,,,,,,,,,,,,,257.4103238999378,None,0,xt17,3,2022-04-21_14h48.21.981,threat_forest,2021.2.3,60.82924861818583,
7,0,7,0,0,0,0,0,,,,,,,260.6503758998588,264.1604081999976,None,left,1.0960071999579668,265.11160969990306,xt17,260.6503758998588,264.1604081999976,265.11160969990306,None,False,5,['p'],False,0.2222222222222222,0.2222222222222222,0.0,0.0,1.0,0.4821593609696809,0.0,wait_cost,1,4,,,,xt17,3,2022-04-21_14h48.21.981,threat_forest,2021.2.3,60.82924861818583,
7,0,7,0,1,0,1,0,,,,,,,,,,left,1.8175562000833452,271.0940484998282,xt17,271.0940484998282,None,266.227449900005,268.22697629989125,True,4,['p'],True,0.4444444444444445,0.6666666666666666,0.3333333333333333,1.0,1.0,0.9656336071428248,0.0,succ_gain,0,5,268.22697629989125,None,4,xt17,3,2022-04-21_14h48.21.981,threat_forest,2021.2.3,60.82924861818583,
7,0,7,0,2,0,2,0,,,,,,,,,,left,0.9529870999976993,276.71110649988987,xt17,272.92745759990066,274.9271008998621,276.71110649988987,None,False,5,['p'],False,0.2222222222222222,0.2222222222222222,0.0,0.0,1.0,0.4821593609696809,0.0,wait_cost,1,4,274.9271008998621,None,5,xt17,3,2022-04-21_14h48.21.981,threat_forest,2021.2.3,60.82924861818583,
7,0,7,0,3,0,3,0,,,,,,,,,,left,0.6653142999857664,282.74449339997955,xt17,272.92745759990066,274.9271008998621,282.74449339997955,None,False,4,['p'],False,0.2222222222222222,0.2222222222222222,0.0,0.0,1.0,0.4821593609696809,0.0,wait_cost,1,3,279.69383969996125,None,4,xt17,3,2022-04-21_14h48.21.981,threat_forest,2021.2.3,60.82924861818583,
7,0,7,0,4,0,4,0,,,,,,,,,,left,1.6379786999896169,288.74443999980576,xt17,272.92745759990066,274.9271008998621,288.74443999980576,None,False,3,['p'],False,0.2222222222222222,0.2222222222222222,0.0,0.0,1.0,0.4821593609696809,0.0,wait_cost,1,2,285.4272882998921,None,3,xt17,3,2022-04-21_14h48.21.981,threat_forest,2021.2.3,60.82924861818583,
7,0,7,0,5,0,5,0,,,,,,,,,,left,2.2620868999511003,293.6616102999542,xt17,272.92745759990066,274.9271008998621,293.6616102999542,None,False,2,['p'],False,0.2222222222222222,0.2222222222222222,0.0,0.0,1.0,0.4821593609696809,-0.7777777777777778,wait_cost,1,1,292.41068259999156,None,2,xt17,3,2022-04-21_14h48.21.981,threat_forest,2021.2.3,60.82924861818583,
7,0,7,0,6,0,6,0,,,,,,,,,,left,1.56491840002127,299.5111634999048,xt17,299.5111634999048,None,295.94437049981207,297.9440982998349,True,1,['p'],True,0.4444444444444445,0.6666666666666666,0.3333333333333333,1.0,1.0,0.9656336071428248,0.4444444444444444,succ_gain,0,2,297.9440982998349,None,1,xt17,3,2022-04-21_14h48.21.981,threat_forest,2021.2.3,60.82924861818583,
7,0,7,0,7,0,7,0,,,,,,,,,,right,0.6790455000009388,305.97827409999445,xt17,305.97827409999445,None,295.94437049981207,297.9440982998349,False,2,['p'],True,0.4444444444444445,0.6666666666666666,0.3333333333333333,1.0,1.0,0.9656336071428248,-0.5555555555555556,wait_cost,0,1,303.09462719992734,None,2,xt17,3,2022-04-21_14h48.21.981,threat_forest,2021.2.3,60.82924861818583,
7,0,7,0,,,,,,,,,,,,,,,,,,,,,,,,,,,,,,,,,,,,308.6776838998776,None,1,xt17,3,2022-04-21_14h48.21.981,threat_forest,2021.2.3,60.82924861818583,
8,0,8,0,0,0,0,0,,,,,,,312.23679619980976,315.74446079996414,None,left,1.530233999947086,318.678406199906,xt17,318.678406199906,None,312.23679619980976,315.74446079996414,True,4,['r'],True,0.5714285714285714,0.5714285714285714,0.0,0.0,2.0,0.6216097450797566,0.0,succ_gain,0,6,,,,xt17,3,2022-04-21_14h48.21.981,threat_forest,2021.2.3,60.82924861818583,
8,0,8,0,1,0,1,0,,,,,,,,,,right,2.3171294999774545,325.66196249984205,xt17,325.66196249984205,None,312.23679619980976,315.74446079996414,False,6,['r'],True,0.5714285714285714,0.5714285714285714,0.0,0.0,2.0,0.6216097450797566,0.0,wait_cost,0,5,322.22791729983874,None,6,xt17,3,2022-04-21_14h48.21.981,threat_forest,2021.2.3,60.82924861818583,
8,0,8,0,2,0,2,0,,,,,,,,,,left,1.1451258000452071,332.8786427997984,xt17,332.8786427997984,None,312.23679619980976,315.74446079996414,True,5,['r'],True,0.5714285714285714,0.5714285714285714,0.0,0.0,2.0,0.6216097450797566,0.0,succ_gain,0,6,330.0112645998597,None,5,xt17,3,2022-04-21_14h48.21.981,threat_forest,2021.2.3,60.82924861818583,
8,0,8,0,3,0,3,0,,,,,,,,,,right,0.9472346999682486,336.81216400000267,xt17,336.81216400000267,None,312.23679619980976,315.74446079996414,False,6,['r'],True,0.5714285714285714,0.5714285714285714,0.0,0.0,2.0,0.6216097450797566,0.0,wait_cost,0,5,336.0447269999422,None,6,xt17,3,2022-04-21_14h48.21.981,threat_forest,2021.2.3,60.82924861818583,
8,0,8,0,4,0,4,0,,,,,,,,,,left,1.1328523999545723,342.2473143998068,xt17,337.7784374000039,339.7781552998349,342.2473143998068,None,False,5,['r'],False,0.46875,0.625,0.25,2.0,2.0,0.9634951148421658,0.0,wait_cost,1,4,339.7781552998349,None,5,xt17,3,2022-04-21_14h48.21.981,threat_forest,2021.2.3,60.82924861818583,
8,0,8,0,5,0,5,0,,,,,,,,,,right,1.55072130006738,348.7618981997948,xt17,348.7618981997948,None,343.41174939996563,345.4115295999218,False,4,['r'],True,0.5714285714285714,0.5714285714285714,0.0,0.0,2.0,0.6216097450797566,0.0,wait_cost,0,3,345.4115295999218,None,4,xt17,3,2022-04-21_14h48.21.981,threat_forest,2021.2.3,60.82924861818583,
8,0,8,0,6,0,6,0,,,,,,,,,,right,1.037363699870184,353.0118638998829,xt17,353.0118638998829,None,343.41174939996563,345.4115295999218,False,3,['r'],True,0.5714285714285714,0.5714285714285714,0.0,0.0,2.0,0.6216097450797566,0.0,wait_cost,0,2,352.3449565998744,None,3,xt17,3,2022-04-21_14h48.21.981,threat_forest,2021.2.3,60.82924861818583,
8,0,8,0,7,0,7,0,,,,,,,,,,right,0.6616676000412554,359.06229469995014,xt17,359.06229469995014,None,343.41174939996563,345.4115295999218,False,2,['r'],True,0.5714285714285714,0.5714285714285714,0.0,0.0,2.0,0.6216097450797566,-0.4285714285714286,wait_cost,0,1,356.0784310998861,None,2,xt17,3,2022-04-21_14h48.21.981,threat_forest,2021.2.3,60.82924861818583,
8,0,8,0,,,,,,,,,,,,,,,,,,,,,,,,,,,,,,,,,,,,361.74525199993514,None,1,xt17,3,2022-04-21_14h48.21.981,threat_forest,2021.2.3,60.82924861818583,
9,0,9,0,0,0,0,0,,,,,,,364.83538449998014,368.345146499807,None,right,1.0634060001466423,370.69599529984407,xt17,364.83538449998014,368.345146499807,370.69599529984407,None,True,5,['p'],False,0.4081632653061224,0.5714285714285714,0.2857142857142857,2.0,2.0,0.9885754083994552,0.0,succ_gain,1,6,,,,xt17,3,2022-04-21_14h48.21.981,threat_forest,2021.2.3,60.82924861818583,
9,0,9,0,1,0,1,0,,,,,,,,,,right,1.104494399856776,377.04793070000596,xt17,377.04793070000596,None,371.7791487998329,373.7789366999641,False,6,['p'],True,0.5,0.5,0.0,0.0,2.0,0.6309297535714574,0.0,wait_cost,0,5,373.7789366999641,None,6,xt17,3,2022-04-21_14h48.21.981,threat_forest,2021.2.3,60.82924861818583,
9,0,9,0,2,0,2,0,,,,,,,,,,right,1.2744845999404788,381.6459825998172,xt17,378.1790147998836,380.1787627998274,381.6459825998172,None,True,5,['p'],False,0.4081632653061224,0.5714285714285714,0.2857142857142857,2.0,2.0,0.9885754083994552,0.0,unsucc_cost,1,3,380.1787627998274,None,5,xt17,3,2022-04-21_14h48.21.981,threat_forest,2021.2.3,60.82924861818583,
9,0,9,0,3,0,3,0,,,,,,,,,,left,1.2011693001259118,387.0457579998765,xt17,387.0457579998765,None,382.94563159998506,384.9458063999191,True,3,['p'],True,0.5,0.5,0.0,0.0,2.0,0.6309297535714574,0.0,fight_cost,0,0,384.9458063999191,None,3,xt17,3,2022-04-21_14h48.21.981,threat_forest,2021.2.3,60.82924861818583,
9,0,9,0,,,,,,,,,,,,,,,,,,,,,,,,,,,,,,,,,,,,390.2788805998862,None,0,xt17,3,2022-04-21_14h48.21.981,threat_forest,2021.2.3,60.82924861818583,
10,0,10,0,0,0,0,0,,,,,,,393.81233579991385,397.3098792999517,None,right,1.0598993001040071,401.11252659978345,xt17,393.81233579991385,397.3098792999517,401.11252659978345,None,True,4,['r'],False,0.5185185185185185,0.6666666666666666,0.2222222222222222,2.0,2.0,0.9327883776363328,0.0,unsucc_cost,1,2,,,,xt17,3,2022-04-21_14h48.21.981,threat_forest,2021.2.3,60.82924861818583,
10,0,10,0,1,0,1,0,,,,,,,,,,right,1.8660333999432623,404.97970219980925,xt17,393.81233579991385,397.3098792999517,404.97970219980925,None,True,2,['r'],False,0.5185185185185185,0.6666666666666666,0.2222222222222222,2.0,2.0,0.9327883776363328,-0.4814814814814815,succ_gain,1,4,404.1957916999236,None,2,xt17,3,2022-04-21_14h48.21.981,threat_forest,2021.2.3,60.82924861818583,
10,0,10,0,2,0,2,0,,,,,,,,,,right,1.5827115001156926,410.5297059000004,xt17,393.81233579991385,397.3098792999517,410.5297059000004,None,True,4,['r'],False,0.5185185185185185,0.6666666666666666,0.2222222222222222,2.0,2.0,0.9327883776363328,0.0,unsucc_cost,1,2,408.86242319992743,None,4,xt17,3,2022-04-21_14h48.21.981,threat_forest,2021.2.3,60.82924861818583,
10,0,10,0,3,0,3,0,,,,,,,,,,left,2.334248000057414,417.54869289998896,xt17,417.54869289998896,None,412.12940819980577,414.12917459988967,True,2,['r'],True,0.625,0.625,0.0,0.0,2.0,0.6021808102656677,-0.375,fight_cost,0,0,414.12917459988967,None,2,xt17,3,2022-04-21_14h48.21.981,threat_forest,2021.2.3,60.82924861818583,
10,0,10,0,,,,,,,,,,,,,,,,,,,,,,,,,,,,,,,,,,,,421.9127734999638,None,0,xt17,3,2022-04-21_14h48.21.981,threat_forest,2021.2.3,60.82924861818583,
11,0,11,0,0,0,0,0,,,,,,,423.92139899986796,427.429467999842,None,right,1.2828345999587327,428.73026419989765,xt17,428.73026419989765,None,423.92139899986796,427.429467999842,False,4,['p'],True,0.4,0.4,0.0,0.0,2.0,0.6126016192893442,0.0,wait_cost,0,3,,,,xt17,3,2022-04-21_14h48.21.981,threat_forest,2021.2.3,60.82924861818583,
11,0,11,0,1,0,1,0,,,,,,,,,,right,2.005753800040111,434.1968445999082,xt17,434.1968445999082,None,423.92139899986796,427.429467999842,False,3,['p'],True,0.4,0.4,0.0,0.0,2.0,0.6126016192893442,0.0,wait_cost,0,2,432.0295731998049,None,3,xt17,3,2022-04-21_14h48.21.981,threat_forest,2021.2.3,60.82924861818583,
11,0,11,0,2,0,2,0,,,,,,,,,,left,1.203498899936676,439.2136814999394,xt17,439.2136814999394,None,423.92139899986796,427.429467999842,True,2,['p'],True,0.4,0.4,0.0,0.0,2.0,0.6126016192893442,-0.6,unsucc_cost,0,0,438.2296259999275,None,2,xt17,3,2022-04-21_14h48.21.981,threat_forest,2021.2.3,60.82924861818583,
11,0,11,0,,,,,,,,,,,,,,,,,,,,,,,,,,,,,,,,,,,,442.4465141999535,None,0,xt17,3,2022-04-21_14h48.21.981,threat_forest,2021.2.3,60.82924861818583,
12,0,12,0,0,0,0,0,,,,,,,443.2201628999319,446.7297137998976,None,right,1.1840476000215858,448.2310097999871,xt17,448.2310097999871,None,443.2201628999319,446.7297137998976,False,5,['p'],True,0.375,0.5,0.25,1.0,2.0,0.9850568223215076,0.0,wait_cost,0,4,,,,xt17,3,2022-04-21_14h48.21.981,threat_forest,2021.2.3,60.82924861818583,
12,0,12,0,1,0,1,0,,,,,,,,,,left,1.8248554000165313,454.89697629981674,xt17,449.4467364999,451.4463851999026,454.89697629981674,None,False,4,['p'],False,0.2448979591836734,0.2857142857142857,0.1428571428571428,1.0,2.0,0.8400769154957735,0.0,wait_cost,1,3,451.4463851999026,None,4,xt17,3,2022-04-21_14h48.21.981,threat_forest,2021.2.3,60.82924861818583,
12,0,12,0,2,0,2,0,,,,,,,,,,left,1.4587688001338392,460.28059169999324,xt17,449.4467364999,451.4463851999026,460.28059169999324,None,False,3,['p'],False,0.2448979591836734,0.2857142857142857,0.1428571428571428,1.0,2.0,0.8400769154957735,-0.1428571428571428,wait_cost,1,2,458.7464599998202,None,3,xt17,3,2022-04-21_14h48.21.981,threat_forest,2021.2.3,60.82924861818583,
12,0,12,0,3,0,3,0,,,,,,,,,,left,1.1418855998199433,466.89686349988915,xt17,449.4467364999,451.4463851999026,466.89686349988915,None,False,2,['p'],False,0.2448979591836734,0.2857142857142857,0.1428571428571428,1.0,2.0,0.8400769154957735,-0.7551020408163265,wait_cost,1,1,463.7633263999596,None,2,xt17,3,2022-04-21_14h48.21.981,threat_forest,2021.2.3,60.82924861818583,
12,0,12,0,4,0,4,0,,,,,,,,,,right,1.4468833999708295,473.76413559983484,xt17,449.4467364999,451.4463851999026,473.76413559983484,None,True,1,['p'],False,0.2448979591836734,0.2857142857142857,0.1428571428571428,1.0,2.0,0.8400769154957735,0.2448979591836735,unsucc_cost,1,0,470.0634724998381,None,1,xt17,3,2022-04-21_14h48.21.981,threat_forest,2021.2.3,60.82924861818583,
12,0,12,0,,,,,,,,,,,,,,,,,,,,,,,,,,,,,,,,,,,,477.23022069991566,None,0,xt17,3,2022-04-21_14h48.21.981,threat_forest,2021.2.3,60.82924861818583,
13,0,13,0,0,0,0,0,,,,,,,478.2361057999078,481.74689949979074,None,left,1.4504694999195635,483.1472827999387,xt17,478.2361057999078,481.74689949979074,483.1472827999387,None,False,5,['r'],False,0.2448979591836734,0.2857142857142857,0.1428571428571428,1.0,2.0,0.8400769154957735,0.0,wait_cost,1,4,,,,xt17,3,2022-04-21_14h48.21.981,threat_forest,2021.2.3,60.82924861818583,
13,0,13,0,1,0,1,0,,,,,,,,,,left,0.7884414000436664,487.7304598998744,xt17,478.2361057999078,481.74689949979074,487.7304598998744,None,False,4,['r'],False,0.2448979591836734,0.2857142857142857,0.1428571428571428,1.0,2.0,0.8400769154957735,0.0,wait_cost,1,3,486.6302823999431,None,4,xt17,3,2022-04-21_14h48.21.981,threat_forest,2021.2.3,60.82924861818583,
13,0,13,0,2,0,2,0,,,,,,,,,,left,1.0428021000698209,491.8143293999601,xt17,478.2361057999078,481.74689949979074,491.8143293999601,None,False,3,['r'],False,0.2448979591836734,0.2857142857142857,0.1428571428571428,1.0,2.0,0.8400769154957735,-0.1428571428571428,wait_cost,1,2,490.54697449994273,None,3,xt17,3,2022-04-21_14h48.21.981,threat_forest,2021.2.3,60.82924861818583,
13,0,13,0,3,0,3,0,,,,,,,,,,left,1.067881900118664,497.1807491998188,xt17,497.1807491998188,None,492.8806556998752,494.8805071997922,True,2,['r'],True,0.4444444444444445,0.6666666666666666,0.3333333333333333,1.0,2.0,0.9656336071428248,-0.5555555555555556,unsucc_cost,0,0,494.8805071997922,None,2,xt17,3,2022-04-21_14h48.21.981,threat_forest,2021.2.3,60.82924861818583,
13,0,13,0,,,,,,,,,,,,,,,,,,,,,,,,,,,,,,,,,,,,500.280714499997,None,0,xt17,3,2022-04-21_14h48.21.981,threat_forest,2021.2.3,60.82924861818583,
14,0,14,0,0,0,0,0,,,,,,,503.5718140997924,507.0806356999092,None,right,1.0653866999782622,510.33127269987017,xt17,510.33127269987017,None,503.5718140997924,507.0806356999092,False,5,['p'],True,0.32,0.4,0.2,1.0,1.0,0.9455672104350704,0.0,wait_cost,0,4,,,,xt17,3,2022-04-21_14h48.21.981,threat_forest,2021.2.3,60.82924861818583,
14,0,14,0,1,0,1,0,,,,,,,,,,left,1.0299265999346972,516.2163960000034,xt17,511.4143285998143,513.4141005999409,516.2163960000034,None,False,4,['p'],False,0.21875,0.25,0.125,1.0,1.0,0.7908280489481783,0.0,wait_cost,1,3,513.4141005999409,None,4,xt17,3,2022-04-21_14h48.21.981,threat_forest,2021.2.3,60.82924861818583,
14,0,14,0,2,0,2,0,,,,,,,,,,left,0.8027755001094192,520.7977095998358,xt17,511.4143285998143,513.4141005999409,520.7977095998358,None,False,3,['p'],False,0.21875,0.25,0.125,1.0,1.0,0.7908280489481783,-0.125,wait_cost,1,2,519.2641796998214,None,3,xt17,3,2022-04-21_14h48.21.981,threat_forest,2021.2.3,60.82924861818583,
14,0,14,0,3,0,3,0,,,,,,,,,,right,1.0225887999404222,525.1816356999334,xt17,525.1816356999334,None,521.6311079999432,523.6309491998982,False,2,['p'],True,0.32,0.4,0.2,1.0,1.0,0.9455672104350704,-0.6799999999999999,wait_cost,0,1,523.6309491998982,None,2,xt17,3,2022-04-21_14h48.21.981,threat_forest,2021.2.3,60.82924861818583,
14,0,14,0,4,0,4,0,,,,,,,,,,right,2.462487799813971,531.2482020999305,xt17,526.2312709998805,528.2308783999179,531.2482020999305,None,True,1,['p'],False,0.21875,0.25,0.125,1.0,1.0,0.7908280489481783,0.21875,fight_cost,1,0,528.2308783999179,None,1,xt17,3,2022-04-21_14h48.21.981,threat_forest,2021.2.3,60.82924861818583,
14,0,14,0,,,,,,,,,,,,,,,,,,,,,,,,,,,,,,,,,,,,535.7311447998509,None,0,xt17,3,2022-04-21_14h48.21.981,threat_forest,2021.2.3,60.82924861818583,
15,0,15,0,0,0,0,0,,,,,,,539.0397942999844,542.5477541999426,None,left,1.0183153999969363,543.6649689998012,xt17,539.0397942999844,542.5477541999426,543.6649689998012,None,False,4,['p'],False,0.1975308641975308,0.2222222222222222,0.1111111111111111,1.0,1.0,0.7461067557824965,0.0,wait_cost,1,3,,,,xt17,3,2022-04-21_14h48.21.981,threat_forest,2021.2.3,60.82924861818583,
15,0,15,0,1,0,1,0,,,,,,,,,,right,0.8164740998763591,549.9667436999734,xt17,549.9667436999734,None,544.7148987997789,546.7145706999581,False,3,['p'],True,0.32,0.4,0.2,1.0,1.0,0.9455672104350704,-0.2,wait_cost,0,2,546.7145706999581,None,3,xt17,3,2022-04-21_14h48.21.981,threat_forest,2021.2.3,60.82924861818583,
15,0,15,0,2,0,2,0,,,,,,,,,,left,1.6854236999060959,554.8484888998792,xt17,550.8149459999986,552.8146372998599,554.8484888998792,None,False,2,['p'],False,0.1975308641975308,0.2222222222222222,0.1111111111111111,1.0,1.0,0.7461067557824965,-0.8024691358024691,wait_cost,1,1,552.8146372998599,None,2,xt17,3,2022-04-21_14h48.21.981,threat_forest,2021.2.3,60.82924861818583,
15,0,15,0,3,0,3,0,,,,,,,,,,right,1.839457199908793,561.248210699996,xt17,550.8149459999986,552.8146372998599,561.248210699996,None,True,1,['p'],False,0.1975308641975308,0.2222222222222222,0.1111111111111111,1.0,1.0,0.7461067557824965,0.1975308641975308,unsucc_cost,1,0,558.5648359998595,None,1,xt17,3,2022-04-21_14h48.21.981,threat_forest,2021.2.3,60.82924861818583,
15,0,15,0,,,,,,,,,,,,,,,,,,,,,,,,,,,,,,,,,,,,565.1148400998209,None,0,xt17,3,2022-04-21_14h48.21.981,threat_forest,2021.2.3,60.82924861818583,
16,0,16,0,0,0,0,0,,,,,,,566.2075286000036,569.7148293999489,None,right,1.1065622998867184,572.8987848998513,xt17,572.8987848998513,None,566.2075286000036,569.7148293999489,False,4,['p'],True,0.375,0.5,0.25,1.0,1.0,0.9850568223215076,0.0,wait_cost,0,3,,,,xt17,3,2022-04-21_14h48.21.981,threat_forest,2021.2.3,60.82924861818583,
16,0,16,0,1,0,1,0,,,,,,,,,,left,1.2092953999526799,577.1850359998643,xt17,574.0318404999562,576.0317713997792,577.1850359998643,None,False,3,['p'],False,0.16,0.2,0.2,2.0,1.0,0.8198746470064713,-0.2,wait_cost,1,2,576.0317713997792,None,3,xt17,3,2022-04-21_14h48.21.981,threat_forest,2021.2.3,60.82924861818583,
16,0,16,0,2,0,2,0,,,,,,,,,,left,0.981271900003776,582.9492607999127,xt17,574.0318404999562,576.0317713997792,582.9492607999127,None,False,2,['p'],False,0.16,0.2,0.2,2.0,1.0,0.8198746470064713,-0.8400000000000001,wait_cost,1,1,580.4149871999398,None,2,xt17,3,2022-04-21_14h48.21.981,threat_forest,2021.2.3,60.82924861818583,
16,0,16,0,3,0,3,0,,,,,,,,,,None,,588.4658367999364,xt17,574.0318404999562,576.0317713997792,588.4658367999364,None,None,1,['p'],False,0.16,0.2,0.2,2.0,1.0,0.8198746470064713,0.1599999999999999,wait_cost,1,0,585.9484503997955,None,1,xt17,3,2022-04-21_14h48.21.981,threat_forest,2021.2.3,60.82924861818583,
16,0,16,0,,,,,,,,,,,,,,,,,,,,,,,,,,,,,,,,,,,,593.4652071997989,None,0,xt17,3,2022-04-21_14h48.21.981,threat_forest,2021.2.3,60.82924861818583,
17,0,17,0,0,0,0,0,,,,,,,594.1245893999003,597.6319722998887,None,left,1.5739190999884158,600.0826415999327,xt17,600.0826415999327,None,594.1245893999003,597.6319722998887,True,4,['p'],True,0.32,0.4,0.2,1.0,2.0,0.9455672104350704,0.0,unsucc_cost,0,2,,,,xt17,3,2022-04-21_14h48.21.981,threat_forest,2021.2.3,60.82924861818583,
17,0,17,0,1,0,1,0,,,,,,,,,,right,0.7756773000583053,605.0655733000021,xt17,605.0655733000021,None,594.1245893999003,597.6319722998887,False,2,['p'],True,0.32,0.4,0.2,1.0,2.0,0.9455672104350704,-0.6799999999999999,wait_cost,0,1,603.6821594999637,None,2,xt17,3,2022-04-21_14h48.21.981,threat_forest,2021.2.3,60.82924861818583,
17,0,17,0,2,0,2,0,,,,,,,,,,left,1.2470353001262993,608.6490644998848,xt17,608.6490644998848,None,594.1245893999003,597.6319722998887,True,1,['p'],True,0.32,0.4,0.2,1.0,2.0,0.9455672104350704,0.32,unsucc_cost,0,0,607.8655165999662,None,1,xt17,3,2022-04-21_14h48.21.981,threat_forest,2021.2.3,60.82924861818583,
17,0,17,0,,,,,,,,,,,,,,,,,,,,,,,,,,,,,,,,,,,,611.9156546997838,None,0,xt17,3,2022-04-21_14h48.21.981,threat_forest,2021.2.3,60.82924861818583,
