miniblock.thisRepN,miniblock.thisTrialN,miniblock.thisN,miniblock.thisIndex,day.thisRepN,day.thisTrialN,day.thisN,day.thisIndex,welcoming.started,welcoming.stopped,key_resp_2.keys,key_resp_2.rt,key_resp_2.started,key_resp_2.stopped,forest.started,fixation_forest.started,fixation_forest.stopped,key_resp.keys,key_resp.rt,key_resp.started,Subject_ID,weather_left.started,weather_left.stopped,weather_right.started,weather_right.stopped,foraging T/F,in_LP,p/r heuristic,good_weather.T/F,p_succ_correct,p_succ_uncorrected,r_threat,n_oponents,gain_if_succ,weather_entropy,OP_value_difference,action_outcome,forest_side_L=0_R=1,out_LP,fixation_day.started,fixation_day.stopped,n_day-1.out_LP.,participant,session,date,expName,psychopyVersion,frameRate,
,,,,,,,,10.612338199745864,None,space,9.002732399851084,10.612338199745864,None,,,,,,,,,,,,,,,,,,,,,,,,,,,,,nx8,4,2022-05-05_15h10.27.468,threat_forest,2021.2.3,60.00405633303615,
0,0,0,0,0,0,0,0,,,,,,,19.701251099817455,23.204827399924397,None,left,1.105167199857533,26.290840999688953,nx8,26.290840999688953,None,19.701251099817455,23.204827399924397,True,4,['p'],True,0.4444444444444445,0.6666666666666666,0.3333333333333333,1.0,1.0,0.9656336071428248,0.0,succ_gain,0,5,,,,nx8,4,2022-05-05_15h10.27.468,threat_forest,2021.2.3,60.00405633303615,
0,0,0,0,1,0,1,0,,,,,,,,,,right,1.0730829001404345,32.33817339967936,nx8,27.435517099685967,29.434175599832088,32.33817339967936,None,True,5,['p'],False,0.27,0.3,0.1,1.0,1.0,0.7963326591781347,0.0,fight_cost,1,2,29.434175599832088,None,5,nx8,4,2022-05-05_15h10.27.468,threat_forest,2021.2.3,60.00405633303615,
0,0,0,0,2,0,2,0,,,,,,,,,,right,1.256583800073713,38.63889049971476,nx8,38.63889049971476,None,33.43240319984034,35.43263139994815,False,2,['p'],True,0.4444444444444445,0.6666666666666666,0.3333333333333333,1.0,1.0,0.9656336071428248,-0.5555555555555556,wait_cost,0,1,35.43263139994815,None,2,nx8,4,2022-05-05_15h10.27.468,threat_forest,2021.2.3,60.00405633303615,
0,0,0,0,3,0,3,0,,,,,,,,,,left,1.5552643998526037,45.56747129978612,nx8,45.56747129978612,None,33.43240319984034,35.43263139994815,True,1,['p'],True,0.4444444444444445,0.6666666666666666,0.3333333333333333,1.0,1.0,0.9656336071428248,0.4444444444444444,fight_cost,0,0,41.92746659973636,None,1,nx8,4,2022-05-05_15h10.27.468,threat_forest,2021.2.3,60.00405633303615,
0,0,0,0,,,,,,,,,,,,,,,,,,,,,,,,,,,,,,,,,,,,49.18506640009582,None,0,nx8,4,2022-05-05_15h10.27.468,threat_forest,2021.2.3,60.00405633303615,
1,0,1,0,0,0,0,0,,,,,,,52.72437960002571,56.219521599821746,None,left,0.8729801001027226,58.21521249972284,nx8,58.21521249972284,None,52.72437960002571,56.219521599821746,True,4,['r'],True,0.4,0.4,0.0,0.0,2.0,0.6126016192893442,0.0,unsucc_cost,0,2,,,,nx8,4,2022-05-05_15h10.27.468,threat_forest,2021.2.3,60.00405633303615,
1,0,1,0,1,0,1,0,,,,,,,,,,right,0.7842151997610927,63.94996629981324,nx8,59.12144589982927,61.13307760003954,63.94996629981324,None,True,2,['r'],False,0.3333333333333333,0.5,0.3333333333333333,2.0,2.0,1.0,-0.6666666666666667,succ_gain,1,4,61.13307760003954,None,2,nx8,4,2022-05-05_15h10.27.468,threat_forest,2021.2.3,60.00405633303615,
1,0,1,0,2,0,2,0,,,,,,,,,,right,0.6194886001758277,69.06257080007344,nx8,59.12144589982927,61.13307760003954,69.06257080007344,None,True,4,['r'],False,0.3333333333333333,0.5,0.3333333333333333,2.0,2.0,1.0,0.0,succ_gain,1,6,66.76598409982398,None,4,nx8,4,2022-05-05_15h10.27.468,threat_forest,2021.2.3,60.00405633303615,
1,0,1,0,3,0,3,0,,,,,,,,,,left,1.0291613996960223,72.63322030007839,nx8,72.63322030007839,None,69.69992779986933,71.7050630999729,True,6,['r'],True,0.4,0.4,0.0,0.0,2.0,0.6126016192893442,0.0,unsucc_cost,0,4,71.7050630999729,None,6,nx8,4,2022-05-05_15h10.27.468,threat_forest,2021.2.3,60.00405633303615,
1,0,1,0,4,0,4,0,,,,,,,,,,left,1.4747456000186503,77.55478559993207,nx8,73.69897479983047,75.69946669973433,77.55478559993207,None,False,4,['r'],False,0.3333333333333333,0.5,0.3333333333333333,2.0,2.0,1.0,0.0,wait_cost,1,3,75.69946669973433,None,4,nx8,4,2022-05-05_15h10.27.468,threat_forest,2021.2.3,60.00405633303615,
1,0,1,0,5,0,5,0,,,,,,,,,,right,0.956271099857986,83.91898009972647,nx8,73.69897479983047,75.69946669973433,83.91898009972647,None,True,3,['r'],False,0.3333333333333333,0.5,0.3333333333333333,2.0,2.0,1.0,-0.3333333333333333,fight_cost,1,0,81.06618759967387,None,3,nx8,4,2022-05-05_15h10.27.468,threat_forest,2021.2.3,60.00405633303615,
1,0,1,0,,,,,,,,,,,,,,,,,,,,,,,,,,,,,,,,,,,,86.90021279966459,None,0,nx8,4,2022-05-05_15h10.27.468,threat_forest,2021.2.3,60.00405633303615,
2,0,2,0,0,0,0,0,,,,,,,90.73666490009055,94.23332059988752,None,right,1.135729500092566,96.04950999980792,nx8,90.73666490009055,94.23332059988752,96.04950999980792,None,True,4,['r'],False,0.2,0.2,0.0,0.0,2.0,0.4554859150035951,0.0,succ_gain,1,6,,,,nx8,4,2022-05-05_15h10.27.468,threat_forest,2021.2.3,60.00405633303615,
2,0,2,0,1,0,1,0,,,,,,,,,,right,0.7845188998617232,102.29651789972559,nx8,90.73666490009055,94.23332059988752,102.29651789972559,None,True,6,['r'],False,0.2,0.2,0.0,0.0,2.0,0.4554859150035951,0.0,fight_cost,1,3,99.21936379978433,None,6,nx8,4,2022-05-05_15h10.27.468,threat_forest,2021.2.3,60.00405633303615,
2,0,2,0,2,0,2,0,,,,,,,,,,left,0.66661879979074,106.67413239972666,nx8,90.73666490009055,94.23332059988752,106.67413239972666,None,False,3,['r'],False,0.2,0.2,0.0,0.0,2.0,0.4554859150035951,0.0,wait_cost,1,2,105.09996129991487,None,3,nx8,4,2022-05-05_15h10.27.468,threat_forest,2021.2.3,60.00405633303615,
2,0,2,0,3,0,3,0,,,,,,,,,,right,0.672096099704504,111.77156429970637,nx8,90.73666490009055,94.23332059988752,111.77156429970637,None,True,2,['r'],False,0.2,0.2,0.0,0.0,2.0,0.4554859150035951,-0.8,unsucc_cost,1,0,109.38332369970158,None,2,nx8,4,2022-05-05_15h10.27.468,threat_forest,2021.2.3,60.00405633303615,
2,0,2,0,,,,,,,,,,,,,,,,,,,,,,,,,,,,,,,,,,,,114.46708199987188,None,0,nx8,4,2022-05-05_15h10.27.468,threat_forest,2021.2.3,60.00405633303615,
3,0,3,0,0,0,0,0,,,,,,,115.796112800017,119.30615839967504,None,left,1.22029779991135,121.04029819974676,nx8,121.04029819974676,None,115.796112800017,119.30615839967504,True,5,['p'],True,0.25,0.25,0.0,0.0,1.0,0.5118595071429148,0.0,unsucc_cost,0,3,,,,nx8,4,2022-05-05_15h10.27.468,threat_forest,2021.2.3,60.00405633303615,
3,0,3,0,1,0,1,0,,,,,,,,,,right,2.64295049989596,127.74846229981631,nx8,122.29223260004073,124.3010796001181,127.74846229981631,None,True,3,['p'],False,0.2040816326530612,0.2857142857142857,0.2857142857142857,2.0,1.0,0.9335459102197724,-0.2857142857142857,unsucc_cost,1,1,124.3010796001181,None,3,nx8,4,2022-05-05_15h10.27.468,threat_forest,2021.2.3,60.00405633303615,
3,0,3,0,2,0,2,0,,,,,,,,,,right,0.8612739001400769,135.60074630007148,nx8,135.60074630007148,None,130.41754850000143,132.41716550011188,False,1,['p'],True,0.25,0.25,0.0,0.0,1.0,0.5118595071429148,0.25,wait_cost,0,0,132.41716550011188,None,1,nx8,4,2022-05-05_15h10.27.468,threat_forest,2021.2.3,60.00405633303615,
3,0,3,0,,,,,,,,,,,,,,,,,,,,,,,,,,,,,,,,,,,,138.48385530011728,None,0,nx8,4,2022-05-05_15h10.27.468,threat_forest,2021.2.3,60.00405633303615,
4,0,4,0,0,0,0,0,,,,,,,140.71494859969243,144.21719180000946,None,left,0.7736146003007889,146.73714810004458,nx8,146.73714810004458,None,140.71494859969243,144.21719180000946,True,4,['p'],True,0.4166666666666667,0.5,0.1666666666666666,1.0,2.0,0.9358932809493992,0.0,succ_gain,0,6,,,,nx8,4,2022-05-05_15h10.27.468,threat_forest,2021.2.3,60.00405633303615,
4,0,4,0,1,0,1,0,,,,,,,,,,left,0.8352983999066055,152.6461346000433,nx8,152.6461346000433,None,140.71494859969243,144.21719180000946,True,6,['p'],True,0.4166666666666667,0.5,0.1666666666666666,1.0,2.0,0.9358932809493992,0.0,fight_cost,0,3,149.5507475999184,None,6,nx8,4,2022-05-05_15h10.27.468,threat_forest,2021.2.3,60.00405633303615,
4,0,4,0,2,0,2,0,,,,,,,,,,left,0.8737320001237094,156.3439100999385,nx8,156.3439100999385,None,140.71494859969243,144.21719180000946,True,3,['p'],True,0.4166666666666667,0.5,0.1666666666666666,1.0,2.0,0.9358932809493992,-0.1666666666666666,succ_gain,0,5,155.5008469996974,None,3,nx8,4,2022-05-05_15h10.27.468,threat_forest,2021.2.3,60.00405633303615,
4,0,4,0,3,0,3,0,,,,,,,,,,right,1.13781030010432,161.1625387999229,nx8,161.1625387999229,None,140.71494859969243,144.21719180000946,False,5,['p'],True,0.4166666666666667,0.5,0.1666666666666666,1.0,2.0,0.9358932809493992,0.0,wait_cost,0,4,159.2341934000142,None,5,nx8,4,2022-05-05_15h10.27.468,threat_forest,2021.2.3,60.00405633303615,
4,0,4,0,4,0,4,0,,,,,,,,,,left,0.9407303002662957,167.9287437996827,nx8,167.9287437996827,None,140.71494859969243,144.21719180000946,True,4,['p'],True,0.4166666666666667,0.5,0.1666666666666666,1.0,2.0,0.9358932809493992,0.0,fight_cost,0,1,164.31759959971532,None,4,nx8,4,2022-05-05_15h10.27.468,threat_forest,2021.2.3,60.00405633303615,
4,0,4,0,5,0,5,0,,,,,,,,,,left,0.7765830997377634,172.29292730009183,nx8,172.29292730009183,None,140.71494859969243,144.21719180000946,True,1,['p'],True,0.4166666666666667,0.5,0.1666666666666666,1.0,2.0,0.9358932809493992,0.4166666666666667,unsucc_cost,0,0,170.90105499979109,None,1,nx8,4,2022-05-05_15h10.27.468,threat_forest,2021.2.3,60.00405633303615,
4,0,4,0,,,,,,,,,,,,,,,,,,,,,,,,,,,,,,,,,,,,175.10122139984742,None,0,nx8,4,2022-05-05_15h10.27.468,threat_forest,2021.2.3,60.00405633303615,
5,0,5,0,0,0,0,0,,,,,,,176.1308180000633,179.62745019979775,None,right,0.9341098996810615,182.52062179986387,nx8,176.1308180000633,179.62745019979775,182.52062179986387,None,True,5,['p'],False,0.46875,0.625,0.25,2.0,2.0,0.9634951148421658,0.0,unsucc_cost,1,3,,,,nx8,4,2022-05-05_15h10.27.468,threat_forest,2021.2.3,60.00405633303615,
5,0,5,0,1,0,1,0,,,,,,,,,,left,0.5084041999652982,188.55804480006918,nx8,188.55804480006918,None,183.48497089976445,185.48466320009902,True,3,['p'],True,0.5714285714285714,0.5714285714285714,0.0,0.0,2.0,0.6216097450797566,0.0,fight_cost,0,0,185.48466320009902,None,3,nx8,4,2022-05-05_15h10.27.468,threat_forest,2021.2.3,60.00405633303615,
5,0,5,0,,,,,,,,,,,,,,,,,,,,,,,,,,,,,,,,,,,,191.08467740006745,None,0,nx8,4,2022-05-05_15h10.27.468,threat_forest,2021.2.3,60.00405633303615,
6,0,6,0,0,0,0,0,,,,,,,193.49023739993572,196.99447829974815,None,right,0.5180207998491824,200.2260658000596,nx8,193.49023739993572,196.99447829974815,200.2260658000596,None,True,5,['p'],False,0.4081632653061224,0.5714285714285714,0.2857142857142857,2.0,1.0,0.9885754083994552,0.0,unsucc_cost,1,3,,,,nx8,4,2022-05-05_15h10.27.468,threat_forest,2021.2.3,60.00405633303615,
6,0,6,0,1,0,1,0,,,,,,,,,,left,0.5447056996636093,203.496638499666,nx8,193.49023739993572,196.99447829974815,203.496638499666,None,False,3,['p'],False,0.4081632653061224,0.5714285714285714,0.2857142857142857,2.0,1.0,0.9885754083994552,-0.2857142857142857,wait_cost,1,2,202.76810600003228,None,3,nx8,4,2022-05-05_15h10.27.468,threat_forest,2021.2.3,60.00405633303615,
6,0,6,0,2,0,2,0,,,,,,,,,,right,0.8476048996672034,207.56336259981617,nx8,193.49023739993572,196.99447829974815,207.56336259981617,None,True,2,['p'],False,0.4081632653061224,0.5714285714285714,0.2857142857142857,2.0,1.0,0.9885754083994552,-0.5918367346938775,succ_gain,1,3,206.06823330000043,None,2,nx8,4,2022-05-05_15h10.27.468,threat_forest,2021.2.3,60.00405633303615,
6,0,6,0,3,0,3,0,,,,,,,,,,left,0.7700527999550104,211.75117990002036,nx8,211.75117990002036,None,208.4353625997901,210.43520519975573,True,3,['p'],True,0.5,0.5,0.0,0.0,1.0,0.6309297535714574,0.0,succ_gain,0,4,210.43520519975573,None,3,nx8,4,2022-05-05_15h10.27.468,threat_forest,2021.2.3,60.00405633303615,
6,0,6,0,4,0,4,0,,,,,,,,,,left,0.6493285000324249,216.311375499703,nx8,216.311375499703,None,208.4353625997901,210.43520519975573,True,4,['p'],True,0.5,0.5,0.0,0.0,1.0,0.6309297535714574,0.0,unsucc_cost,0,2,214.56865079980344,None,4,nx8,4,2022-05-05_15h10.27.468,threat_forest,2021.2.3,60.00405633303615,
6,0,6,0,5,0,5,0,,,,,,,,,,right,0.6335988999344409,220.0880284998566,nx8,216.98983380012214,219.00179239967838,220.0880284998566,None,True,2,['p'],False,0.4081632653061224,0.5714285714285714,0.2857142857142857,2.0,1.0,0.9885754083994552,-0.5918367346938775,succ_gain,1,3,219.00179239967838,None,2,nx8,4,2022-05-05_15h10.27.468,threat_forest,2021.2.3,60.00405633303615,
6,0,6,0,6,0,6,0,,,,,,,,,,left,1.1531095001846552,223.73856549989432,nx8,223.73856549989432,None,220.75221919966862,222.7518750000745,True,3,['p'],True,0.5,0.5,0.0,0.0,1.0,0.6309297535714574,0.0,unsucc_cost,0,1,222.7518750000745,None,3,nx8,4,2022-05-05_15h10.27.468,threat_forest,2021.2.3,60.00405633303615,
6,0,6,0,7,0,7,0,,,,,,,,,,left,1.3346353000961244,229.45813699997962,nx8,229.45813699997962,None,220.75221919966862,222.7518750000745,True,1,['p'],True,0.5,0.5,0.0,0.0,1.0,0.6309297535714574,0.5,succ_gain,0,2,226.9352349997498,None,1,nx8,4,2022-05-05_15h10.27.468,threat_forest,2021.2.3,60.00405633303615,
6,0,6,0,,,,,,,,,,,,,,,,,,,,,,,,,,,,,,,,,,,,232.81873739976436,None,2,nx8,4,2022-05-05_15h10.27.468,threat_forest,2021.2.3,60.00405633303615,
7,0,7,0,0,0,0,0,,,,,,,233.41846949979663,236.91310779983178,None,left,0.9580975999124348,238.8885260000825,nx8,238.8885260000825,None,233.41846949979663,236.91310779983178,True,5,['p'],True,0.5,0.5,0.0,0.0,2.0,0.6309297535714574,0.0,succ_gain,0,6,,,,nx8,4,2022-05-05_15h10.27.468,threat_forest,2021.2.3,60.00405633303615,
7,0,7,0,1,0,1,0,,,,,,,,,,left,1.0242472002282739,243.31677469983697,nx8,243.31677469983697,None,233.41846949979663,236.91310779983178,True,6,['p'],True,0.5,0.5,0.0,0.0,2.0,0.6309297535714574,0.0,fight_cost,0,3,241.86878969985992,None,6,nx8,4,2022-05-05_15h10.27.468,threat_forest,2021.2.3,60.00405633303615,
7,0,7,0,2,0,2,0,,,,,,,,,,right,1.1439428003504872,247.2277881000191,nx8,247.2277881000191,None,233.41846949979663,236.91310779983178,False,3,['p'],True,0.5,0.5,0.0,0.0,2.0,0.6309297535714574,0.0,wait_cost,0,2,246.36881629982963,None,3,nx8,4,2022-05-05_15h10.27.468,threat_forest,2021.2.3,60.00405633303615,
7,0,7,0,3,0,3,0,,,,,,,,,,left,0.5839682999067008,250.94638259988278,nx8,250.94638259988278,None,233.41846949979663,236.91310779983178,True,2,['p'],True,0.5,0.5,0.0,0.0,2.0,0.6309297535714574,-0.5,unsucc_cost,0,0,250.41893329983577,None,2,nx8,4,2022-05-05_15h10.27.468,threat_forest,2021.2.3,60.00405633303615,
7,0,7,0,,,,,,,,,,,,,,,,,,,,,,,,,,,,,,,,,,,,253.56906599970534,None,0,nx8,4,2022-05-05_15h10.27.468,threat_forest,2021.2.3,60.00405633303615,
8,0,8,0,0,0,0,0,,,,,,,255.34007879998535,258.8380454001017,None,right,0.8878498999401927,261.6514721997082,nx8,255.34007879998535,258.8380454001017,261.6514721997082,None,True,4,['r'],False,0.4444444444444445,0.6666666666666666,0.3333333333333333,2.0,2.0,0.9656336071428248,0.0,unsucc_cost,1,2,,,,nx8,4,2022-05-05_15h10.27.468,threat_forest,2021.2.3,60.00405633303615,
8,0,8,0,1,0,1,0,,,,,,,,,,left,0.5615992001257837,267.60851679975167,nx8,255.34007879998535,258.8380454001017,267.60851679975167,None,False,2,['r'],False,0.4444444444444445,0.6666666666666666,0.3333333333333333,2.0,2.0,0.9656336071428248,-0.5555555555555556,wait_cost,1,1,264.5692247999832,None,2,nx8,4,2022-05-05_15h10.27.468,threat_forest,2021.2.3,60.00405633303615,
8,0,8,0,2,0,2,0,,,,,,,,,,left,0.89519780036062,273.57085429970175,nx8,273.57085429970175,None,268.20281489985064,270.2029582997784,True,1,['r'],True,0.6,0.6,0.0,0.0,2.0,0.6126016192893442,0.6,unsucc_cost,0,0,270.2029582997784,None,1,nx8,4,2022-05-05_15h10.27.468,threat_forest,2021.2.3,60.00405633303615,
8,0,8,0,,,,,,,,,,,,,,,,,,,,,,,,,,,,,,,,,,,,276.4861841998063,None,0,nx8,4,2022-05-05_15h10.27.468,threat_forest,2021.2.3,60.00405633303615,
9,0,9,0,0,0,0,0,,,,,,,278.7089118999429,282.2006405000575,None,left,0.9260558998212218,285.26114929979667,nx8,278.7089118999429,282.2006405000575,285.26114929979667,None,False,5,['p'],False,0.18,0.2,0.1,1.0,1.0,0.7058405977926203,0.0,wait_cost,1,4,,,,nx8,4,2022-05-05_15h10.27.468,threat_forest,2021.2.3,60.00405633303615,
9,0,9,0,1,0,1,0,,,,,,,,,,left,1.8353312001563609,288.80140769993886,nx8,288.80140769993886,None,286.2268451997079,288.2208014000207,True,4,['p'],True,0.375,0.5,0.25,1.0,1.0,0.9850568223215076,0.0,unsucc_cost,0,2,288.2208014000207,None,4,nx8,4,2022-05-05_15h10.27.468,threat_forest,2021.2.3,60.00405633303615,
9,0,9,0,2,0,2,0,,,,,,,,,,left,1.2078745001927018,295.6740497997962,nx8,290.6754243997857,292.6861994997598,295.6740497997962,None,False,2,['p'],False,0.18,0.2,0.1,1.0,1.0,0.7058405977926203,-0.8200000000000001,wait_cost,1,1,292.6861994997598,None,2,nx8,4,2022-05-05_15h10.27.468,threat_forest,2021.2.3,60.00405633303615,
9,0,9,0,3,0,3,0,,,,,,,,,,right,0.9296551002189517,300.18201319966465,nx8,290.6754243997857,292.6861994997598,300.18201319966465,None,True,1,['p'],False,0.18,0.2,0.1,1.0,1.0,0.7058405977926203,0.1799999999999999,unsucc_cost,1,0,298.93618159973994,None,1,nx8,4,2022-05-05_15h10.27.468,threat_forest,2021.2.3,60.00405633303615,
9,0,9,0,,,,,,,,,,,,,,,,,,,,,,,,,,,,,,,,,,,,303.1525197001174,None,0,nx8,4,2022-05-05_15h10.27.468,threat_forest,2021.2.3,60.00405633303615,
10,0,10,0,0,0,0,0,,,,,,,303.8574300999753,307.36227370006964,None,right,0.7847295999526978,308.31799650005996,nx8,303.8574300999753,307.36227370006964,308.31799650005996,None,True,4,['r'],False,0.18,0.2,0.1,1.0,2.0,0.7058405977926203,0.0,unsucc_cost,1,2,,,,nx8,4,2022-05-05_15h10.27.468,threat_forest,2021.2.3,60.00405633303615,
10,0,10,0,1,0,1,0,,,,,,,,,,left,0.9175289999693632,314.65957359969616,nx8,314.65957359969616,None,309.12024910002947,311.1198263000697,True,2,['r'],True,0.4444444444444445,0.6666666666666666,0.3333333333333333,1.0,2.0,0.9656336071428248,-0.5555555555555556,unsucc_cost,0,0,311.1198263000697,None,2,nx8,4,2022-05-05_15h10.27.468,threat_forest,2021.2.3,60.00405633303615,
10,0,10,0,,,,,,,,,,,,,,,,,,,,,,,,,,,,,,,,,,,,317.6073086000979,None,0,nx8,4,2022-05-05_15h10.27.468,threat_forest,2021.2.3,60.00405633303615,
11,0,11,0,0,0,0,0,,,,,,,320.4588187998161,323.95583009999245,None,right,0.9012054996564984,326.40792390005663,nx8,320.4588187998161,323.95583009999245,326.40792390005663,None,True,4,['p'],False,0.4081632653061224,0.5714285714285714,0.2857142857142857,2.0,2.0,0.9885754083994552,0.0,fight_cost,1,1,,,,nx8,4,2022-05-05_15h10.27.468,threat_forest,2021.2.3,60.00405633303615,
11,0,11,0,1,0,1,0,,,,,,,,,,right,0.7056645001284778,330.41433560010046,nx8,320.4588187998161,323.95583009999245,330.41433560010046,None,True,1,['p'],False,0.4081632653061224,0.5714285714285714,0.2857142857142857,2.0,2.0,0.9885754083994552,0.4081632653061224,unsucc_cost,1,0,329.33676109975204,None,1,nx8,4,2022-05-05_15h10.27.468,threat_forest,2021.2.3,60.00405633303615,
11,0,11,0,,,,,,,,,,,,,,,,,,,,,,,,,,,,,,,,,,,,333.136719699949,None,0,nx8,4,2022-05-05_15h10.27.468,threat_forest,2021.2.3,60.00405633303615,
12,0,12,0,0,0,0,0,,,,,,,333.994637100026,337.5005568000488,None,right,0.4623604998923838,338.69334729993716,nx8,333.994637100026,337.5005568000488,338.69334729993716,None,True,4,['r'],False,0.1975308641975308,0.2222222222222222,0.1111111111111111,1.0,1.0,0.7461067557824965,0.0,unsucc_cost,1,2,,,,nx8,4,2022-05-05_15h10.27.468,threat_forest,2021.2.3,60.00405633303615,
12,0,12,0,1,0,1,0,,,,,,,,,,left,0.6059376997873187,344.31631289981306,nx8,333.994637100026,337.5005568000488,344.31631289981306,None,False,2,['r'],False,0.1975308641975308,0.2222222222222222,0.1111111111111111,1.0,1.0,0.7461067557824965,-0.8024691358024691,wait_cost,1,1,341.2035631998442,None,2,nx8,4,2022-05-05_15h10.27.468,threat_forest,2021.2.3,60.00405633303615,
12,0,12,0,2,0,2,0,,,,,,,,,,right,1.5077635999768972,348.8815834997222,nx8,333.994637100026,337.5005568000488,348.8815834997222,None,True,1,['r'],False,0.1975308641975308,0.2222222222222222,0.1111111111111111,1.0,1.0,0.7461067557824965,0.1975308641975308,unsucc_cost,1,0,346.9537857999094,None,1,nx8,4,2022-05-05_15h10.27.468,threat_forest,2021.2.3,60.00405633303615,
12,0,12,0,,,,,,,,,,,,,,,,,,,,,,,,,,,,,,,,,,,,352.42059209989384,None,0,nx8,4,2022-05-05_15h10.27.468,threat_forest,2021.2.3,60.00405633303615,
13,0,13,0,0,0,0,0,,,,,,,355.1769681996666,358.6670467997901,None,right,0.8736401000060141,361.277849199716,nx8,355.1769681996666,358.6670467997901,361.277849199716,None,True,5,['r'],False,0.3061224489795918,0.4285714285714285,0.2857142857142857,2.0,1.0,0.9885754083994552,0.0,succ_gain,1,6,,,,nx8,4,2022-05-05_15h10.27.468,threat_forest,2021.2.3,60.00405633303615,
13,0,13,0,1,0,1,0,,,,,,,,,,left,0.8972212998196483,367.37066880008206,nx8,355.1769681996666,358.6670467997901,367.37066880008206,None,False,6,['r'],False,0.3061224489795918,0.4285714285714285,0.2857142857142857,2.0,1.0,0.9885754083994552,0.0,wait_cost,1,5,364.17077879980206,None,6,nx8,4,2022-05-05_15h10.27.468,threat_forest,2021.2.3,60.00405633303615,
13,0,13,0,2,0,2,0,,,,,,,,,,left,1.2534762998111546,370.9044920001179,nx8,370.9044920001179,None,368.2877555000596,370.2875486998819,True,5,['r'],True,0.4,0.4,0.0,0.0,1.0,0.6126016192893442,0.0,unsucc_cost,0,3,370.2875486998819,None,5,nx8,4,2022-05-05_15h10.27.468,threat_forest,2021.2.3,60.00405633303615,
13,0,13,0,3,0,3,0,,,,,,,,,,left,1.3553778999485075,375.6809902996756,nx8,375.6809902996756,None,368.2877555000596,370.2875486998819,True,3,['r'],True,0.4,0.4,0.0,0.0,1.0,0.6126016192893442,0.0,unsucc_cost,0,1,374.18742020009086,None,3,nx8,4,2022-05-05_15h10.27.468,threat_forest,2021.2.3,60.00405633303615,
13,0,13,0,4,0,4,0,,,,,,,,,,left,0.7184605998918414,381.7794876997359,nx8,381.7794876997359,None,368.2877555000596,370.2875486998819,True,1,['r'],True,0.4,0.4,0.0,0.0,1.0,0.6126016192893442,0.4,unsucc_cost,0,0,379.0708188000135,None,1,nx8,4,2022-05-05_15h10.27.468,threat_forest,2021.2.3,60.00405633303615,
13,0,13,0,,,,,,,,,,,,,,,,,,,,,,,,,,,,,,,,,,,,384.5211085998453,None,0,nx8,4,2022-05-05_15h10.27.468,threat_forest,2021.2.3,60.00405633303615,
14,0,14,0,0,0,0,0,,,,,,,386.6008359999396,390.1000855998136,None,right,0.9160549999214709,392.48593619978055,nx8,386.6008359999396,390.1000855998136,392.48593619978055,None,True,5,['p'],False,0.2,0.2,0.0,0.0,1.0,0.4554859150035951,0.0,succ_gain,1,6,,,,nx8,4,2022-05-05_15h10.27.468,threat_forest,2021.2.3,60.00405633303615,
14,0,14,0,1,0,1,0,,,,,,,,,,left,1.5339177995920181,396.48206569999456,nx8,396.48206569999456,None,393.4216549997218,395.4210208998993,True,6,['p'],True,0.375,0.5,0.25,1.0,1.0,0.9850568223215076,0.0,unsucc_cost,0,4,395.4210208998993,None,6,nx8,4,2022-05-05_15h10.27.468,threat_forest,2021.2.3,60.00405633303615,
14,0,14,0,2,0,2,0,,,,,,,,,,right,0.8813352999277413,403.5896081998944,nx8,398.0489531001076,400.054815299809,403.5896081998944,None,True,4,['p'],False,0.2,0.2,0.0,0.0,1.0,0.4554859150035951,0.0,succ_gain,1,5,400.054815299809,None,4,nx8,4,2022-05-05_15h10.27.468,threat_forest,2021.2.3,60.00405633303615,
14,0,14,0,3,0,3,0,,,,,,,,,,left,0.8118369998410344,409.22618780005723,nx8,409.22618780005723,None,404.49085719976574,406.50453009968624,True,5,['p'],True,0.375,0.5,0.25,1.0,1.0,0.9850568223215076,0.0,unsucc_cost,0,3,406.50453009968624,None,5,nx8,4,2022-05-05_15h10.27.468,threat_forest,2021.2.3,60.00405633303615,
14,0,14,0,4,0,4,0,,,,,,,,,,right,1.0044734999537468,414.21630290010944,nx8,410.0551081998274,412.0644833999686,414.21630290010944,None,True,3,['p'],False,0.2,0.2,0.0,0.0,1.0,0.4554859150035951,0.0,succ_gain,1,4,412.0644833999686,None,3,nx8,4,2022-05-05_15h10.27.468,threat_forest,2021.2.3,60.00405633303615,
14,0,14,0,5,0,5,0,,,,,,,,,,left,1.0233883000910282,419.3949744999409,nx8,419.3949744999409,None,415.2389910998754,417.2379049998708,True,4,['p'],True,0.375,0.5,0.25,1.0,1.0,0.9850568223215076,0.0,unsucc_cost,0,2,417.2379049998708,None,4,nx8,4,2022-05-05_15h10.27.468,threat_forest,2021.2.3,60.00405633303615,
14,0,14,0,6,0,6,0,,,,,,,,,,right,0.6887860000133514,426.10410479968414,nx8,426.10410479968414,None,415.2389910998754,417.2379049998708,False,2,['p'],True,0.375,0.5,0.25,1.0,1.0,0.9850568223215076,-0.625,wait_cost,0,1,422.4714949000627,None,2,nx8,4,2022-05-05_15h10.27.468,threat_forest,2021.2.3,60.00405633303615,
14,0,14,0,7,0,7,0,,,,,,,,,,left,0.8585907998494804,429.55065950006247,nx8,429.55065950006247,None,415.2389910998754,417.2379049998708,True,1,['p'],True,0.375,0.5,0.25,1.0,1.0,0.9850568223215076,0.375,unsucc_cost,0,0,428.8215560996905,None,1,nx8,4,2022-05-05_15h10.27.468,threat_forest,2021.2.3,60.00405633303615,
14,0,14,0,,,,,,,,,,,,,,,,,,,,,,,,,,,,,,,,,,,,432.4383927998133,None,0,nx8,4,2022-05-05_15h10.27.468,threat_forest,2021.2.3,60.00405633303615,
15,0,15,0,0,0,0,0,,,,,,,433.1089955996722,436.61708639981225,None,right,1.1808931999839842,437.75829999987036,nx8,433.1089955996722,436.61708639981225,437.75829999987036,None,True,5,['r'],False,0.36,0.6,0.4,2.0,2.0,0.9801625908629508,0.0,unsucc_cost,1,3,,,,nx8,4,2022-05-05_15h10.27.468,threat_forest,2021.2.3,60.00405633303615,
15,0,15,0,1,0,1,0,,,,,,,,,,right,1.146313900128007,442.48148849979043,nx8,433.1089955996722,436.61708639981225,442.48148849979043,None,True,3,['r'],False,0.36,0.6,0.4,2.0,2.0,0.9801625908629508,-0.4,unsucc_cost,1,1,440.972116000019,None,3,nx8,4,2022-05-05_15h10.27.468,threat_forest,2021.2.3,60.00405633303615,
15,0,15,0,2,0,2,0,,,,,,,,,,right,0.4414704996161163,446.2292999997735,nx8,433.1089955996722,436.61708639981225,446.2292999997735,None,True,1,['r'],False,0.36,0.6,0.4,2.0,2.0,0.9801625908629508,0.36,fight_cost,1,0,445.655384299811,None,1,nx8,4,2022-05-05_15h10.27.468,threat_forest,2021.2.3,60.00405633303615,
15,0,15,0,,,,,,,,,,,,,,,,,,,,,,,,,,,,,,,,,,,,448.6886877999641,None,0,nx8,4,2022-05-05_15h10.27.468,threat_forest,2021.2.3,60.00405633303615,
16,0,16,0,0,0,0,0,,,,,,,449.799885999877,453.2900932999328,None,left,0.8867180002853274,454.7971855998039,nx8,454.7971855998039,None,449.799885999877,453.2900932999328,True,5,['r'],True,0.2,0.2,0.0,0.0,2.0,0.4554859150035951,0.0,unsucc_cost,0,3,,,,nx8,4,2022-05-05_15h10.27.468,threat_forest,2021.2.3,60.00405633303615,
16,0,16,0,1,0,1,0,,,,,,,,,,right,0.7317130998708308,460.4687894997187,nx8,460.4687894997187,None,449.799885999877,453.2900932999328,False,3,['r'],True,0.2,0.2,0.0,0.0,2.0,0.4554859150035951,0.0,wait_cost,0,2,457.7219365998171,None,3,nx8,4,2022-05-05_15h10.27.468,threat_forest,2021.2.3,60.00405633303615,
16,0,16,0,2,0,2,0,,,,,,,,,,left,1.109652299899608,465.80186819983646,nx8,465.80186819983646,None,449.799885999877,453.2900932999328,True,2,['r'],True,0.2,0.2,0.0,0.0,2.0,0.4554859150035951,-0.8,succ_gain,0,4,463.2221226999536,None,2,nx8,4,2022-05-05_15h10.27.468,threat_forest,2021.2.3,60.00405633303615,
16,0,16,0,3,0,3,0,,,,,,,,,,left,0.8875734000466764,471.5206899996847,nx8,471.5206899996847,None,449.799885999877,453.2900932999328,True,4,['r'],True,0.2,0.2,0.0,0.0,2.0,0.4554859150035951,0.0,unsucc_cost,0,2,468.93880000011995,None,4,nx8,4,2022-05-05_15h10.27.468,threat_forest,2021.2.3,60.00405633303615,
16,0,16,0,4,0,4,0,,,,,,,,,,right,0.729943800251931,475.97780010011047,nx8,472.43944810004905,474.4390102997422,475.97780010011047,None,True,2,['r'],False,0.1728395061728395,0.2222222222222222,0.2222222222222222,2.0,2.0,0.8571721972794328,-0.8271604938271605,succ_gain,1,4,474.4390102997422,None,2,nx8,4,2022-05-05_15h10.27.468,threat_forest,2021.2.3,60.00405633303615,
16,0,16,0,5,0,5,0,,,,,,,,,,right,0.8585702003911138,481.6001577996649,nx8,472.43944810004905,474.4390102997422,481.6001577996649,None,True,4,['r'],False,0.1728395061728395,0.2222222222222222,0.2222222222222222,2.0,2.0,0.8571721972794328,0.0,unsucc_cost,1,2,478.75591409998015,None,4,nx8,4,2022-05-05_15h10.27.468,threat_forest,2021.2.3,60.00405633303615,
16,0,16,0,6,0,6,0,,,,,,,,,,right,1.6621039998717606,486.4128605998121,nx8,472.43944810004905,474.4390102997422,486.4128605998121,None,True,2,['r'],False,0.1728395061728395,0.2222222222222222,0.2222222222222222,2.0,2.0,0.8571721972794328,-0.8271604938271605,unsucc_cost,1,0,484.48908860003576,None,2,nx8,4,2022-05-05_15h10.27.468,threat_forest,2021.2.3,60.00405633303615,
16,0,16,0,,,,,,,,,,,,,,,,,,,,,,,,,,,,,,,,,,,,490.1226943996735,None,0,nx8,4,2022-05-05_15h10.27.468,threat_forest,2021.2.3,60.00405633303615,
17,0,17,0,0,0,0,0,,,,,,,492.0881663998589,495.5780551000498,None,left,1.0814610999077559,498.0372162000276,nx8,498.0372162000276,None,492.0881663998589,495.5780551000498,True,5,['r'],True,0.5,0.5,0.0,0.0,1.0,0.6309297535714574,0.0,unsucc_cost,0,3,,,,nx8,4,2022-05-05_15h10.27.468,threat_forest,2021.2.3,60.00405633303615,
17,0,17,0,1,0,1,0,,,,,,,,,,right,1.339494800195098,502.4281112998724,nx8,502.4281112998724,None,492.0881663998589,495.5780551000498,False,3,['r'],True,0.5,0.5,0.0,0.0,1.0,0.6309297535714574,0.0,wait_cost,0,2,501.1562183997594,None,3,nx8,4,2022-05-05_15h10.27.468,threat_forest,2021.2.3,60.00405633303615,
17,0,17,0,2,0,2,0,,,,,,,,,,left,0.5626223003491759,509.34130600001663,nx8,503.7897609998472,505.7896647998132,509.34130600001663,None,False,2,['r'],False,0.36,0.6,0.4,2.0,1.0,0.9801625908629508,-0.64,wait_cost,1,1,505.7896647998132,None,2,nx8,4,2022-05-05_15h10.27.468,threat_forest,2021.2.3,60.00405633303615,
17,0,17,0,3,0,3,0,,,,,,,,,,left,0.8753623999655247,515.0339261000045,nx8,515.0339261000045,None,509.9271919997409,511.9394883001223,True,1,['r'],True,0.5,0.5,0.0,0.0,1.0,0.6309297535714574,0.5,succ_gain,0,2,511.9394883001223,None,1,nx8,4,2022-05-05_15h10.27.468,threat_forest,2021.2.3,60.00405633303615,
17,0,17,0,4,0,4,0,,,,,,,,,,right,1.599261499941349,519.3278473000973,nx8,515.9397988999262,517.9395284000784,519.3278473000973,None,True,2,['r'],False,0.36,0.6,0.4,2.0,1.0,0.9801625908629508,-0.64,unsucc_cost,1,0,517.9395284000784,None,2,nx8,4,2022-05-05_15h10.27.468,threat_forest,2021.2.3,60.00405633303615,
17,0,17,0,,,,,,,,,,,,,,,,,,,,,,,,,,,,,,,,,,,,522.9563417998143,None,0,nx8,4,2022-05-05_15h10.27.468,threat_forest,2021.2.3,60.00405633303615,
