miniblock.thisRepN,miniblock.thisTrialN,miniblock.thisN,miniblock.thisIndex,day.thisRepN,day.thisTrialN,day.thisN,day.thisIndex,welcoming.started,welcoming.stopped,key_resp_2.keys,key_resp_2.rt,key_resp_2.started,key_resp_2.stopped,forest.started,fixation_forest.started,fixation_forest.stopped,key_resp.keys,key_resp.rt,key_resp.started,Subject_ID,weather_left.started,weather_left.stopped,weather_right.started,weather_right.stopped,foraging T/F,in_LP,p/r heuristic,good_weather.T/F,p_succ_correct,p_succ_uncorrected,r_threat,n_oponents,gain_if_succ,weather_entropy,OP_value_difference,action_outcome,forest_side_L=0_R=1,out_LP,fixation_day.started,fixation_day.stopped,participant,session,date,expName,psychopyVersion,frameRate,
,,,,,,,,21.41541750030592,None,space,4.2005197000689805,21.41541750030592,None,,,,,,,,,,,,,,,,,,,,,,,,,,,,ti14,1,2022-05-05_11h29.17.852,threat_forest,2021.2.3,59.99196104394372,
0,0,0,0,0,0,0,0,,,,,,,25.680842500180006,29.189737300388515,None,left,1.5764535004273057,30.02876350004226,ti14,30.02876350004226,None,25.680842500180006,29.189737300388515,True,5,['r'],True,0.625,0.625,0.0,0.0,2.0,0.6021808102656677,0.0,succ_gain,0,6,,,ti14,1,2022-05-05_11h29.17.852,threat_forest,2021.2.3,59.99196104394372,
0,0,0,0,1,0,1,0,,,,,,,,,,left,1.0233017997816205,35.85933759994805,ti14,35.85933759994805,None,25.680842500180006,29.189737300388515,True,6,['r'],True,0.625,0.625,0.0,0.0,2.0,0.6021808102656677,0.0,succ_gain,0,6,33.63684380007908,None,ti14,1,2022-05-05_11h29.17.852,threat_forest,2021.2.3,59.99196104394372,
0,0,0,0,2,0,2,0,,,,,,,,,,right,1.8997348002158105,40.49963360000402,ti14,36.90398790035397,38.903662899974734,40.49963360000402,None,True,6,['r'],False,0.5185185185185185,0.6666666666666666,0.2222222222222222,2.0,2.0,0.9327883776363328,0.0,succ_gain,1,6,38.903662899974734,None,ti14,1,2022-05-05_11h29.17.852,threat_forest,2021.2.3,59.99196104394372,
0,0,0,0,3,0,3,0,,,,,,,,,,right,1.094325799960643,47.81424490036443,ti14,36.90398790035397,38.903662899974734,47.81424490036443,None,True,6,['r'],False,0.5185185185185185,0.6666666666666666,0.2222222222222222,2.0,2.0,0.9327883776363328,0.0,succ_gain,1,6,44.43705700011924,None,ti14,1,2022-05-05_11h29.17.852,threat_forest,2021.2.3,59.99196104394372,
0,0,0,0,4,0,4,0,,,,,,,,,,right,1.0552936000749469,52.04324690019712,ti14,36.90398790035397,38.903662899974734,52.04324690019712,None,True,6,['r'],False,0.5185185185185185,0.6666666666666666,0.2222222222222222,2.0,2.0,0.9327883776363328,0.0,unsucc_cost,1,4,50.937207700219005,None,ti14,1,2022-05-05_11h29.17.852,threat_forest,2021.2.3,59.99196104394372,
0,0,0,0,5,0,5,0,,,,,,,,,,left,1.0335554997436702,56.878465600311756,ti14,56.878465600311756,None,53.121032000053674,55.12048610020429,True,4,['r'],True,0.625,0.625,0.0,0.0,2.0,0.6021808102656677,0.0,unsucc_cost,0,2,55.12048610020429,None,ti14,1,2022-05-05_11h29.17.852,threat_forest,2021.2.3,59.99196104394372,
0,0,0,0,6,0,6,0,,,,,,,,,,right,0.6332030999474227,61.8129559000954,ti14,57.943204200360924,59.95433880016208,61.8129559000954,None,True,2,['r'],False,0.5185185185185185,0.6666666666666666,0.2222222222222222,2.0,2.0,0.9327883776363328,-0.4814814814814815,succ_gain,1,4,59.95433880016208,None,ti14,1,2022-05-05_11h29.17.852,threat_forest,2021.2.3,59.99196104394372,
0,0,0,0,7,0,7,0,,,,,,,,,,right,1.47049369988963,65.89388660015538,ti14,65.89388660015538,None,62.47127630002797,64.4708525002934,False,4,['r'],True,0.625,0.625,0.0,0.0,2.0,0.6021808102656677,0.0,wait_cost,0,3,64.4708525002934,None,ti14,1,2022-05-05_11h29.17.852,threat_forest,2021.2.3,59.99196104394372,
0,0,0,0,,,,,,,,,,,,,,,,,,,,,,,,,,,,,,,,,,,,69.38915890036151,None,ti14,1,2022-05-05_11h29.17.852,threat_forest,2021.2.3,59.99196104394372,
1,0,1,0,0,0,0,0,,,,,,,70.64038750017062,74.15430340031162,None,left,1.5412213001400232,75.97969070030376,ti14,70.64038750017062,74.15430340031162,75.97969070030376,None,False,4,['r'],False,0.4081632653061224,0.5714285714285714,0.2857142857142857,2.0,1.0,0.9885754083994552,0.0,wait_cost,1,3,,,ti14,1,2022-05-05_11h29.17.852,threat_forest,2021.2.3,59.99196104394372,
1,0,1,0,1,0,1,0,,,,,,,,,,left,1.6979684997349977,80.67549009993672,ti14,80.67549009993672,None,77.53803870035335,79.5386331002228,True,3,['r'],True,0.5,0.5,0.0,0.0,1.0,0.6309297535714574,0.0,unsucc_cost,0,1,79.5386331002228,None,ti14,1,2022-05-05_11h29.17.852,threat_forest,2021.2.3,59.99196104394372,
1,0,1,0,2,0,2,0,,,,,,,,,,left,1.5856800000183284,87.40689490037039,ti14,87.40689490037039,None,77.53803870035335,79.5386331002228,True,1,['r'],True,0.5,0.5,0.0,0.0,1.0,0.6309297535714574,0.5,unsucc_cost,0,0,84.40450170030817,None,ti14,1,2022-05-05_11h29.17.852,threat_forest,2021.2.3,59.99196104394372,
1,0,1,0,,,,,,,,,,,,,,,,,,,,,,,,,,,,,,,,,,,,91.02169670024887,None,ti14,1,2022-05-05_11h29.17.852,threat_forest,2021.2.3,59.99196104394372,
2,0,2,0,0,0,0,0,,,,,,,92.19641009997576,95.69760120008141,None,right,1.2529768999665976,96.51517150038853,ti14,96.51517150038853,None,92.19641009997576,95.69760120008141,False,4,['p'],True,0.48,0.6,0.2,1.0,1.0,0.9455672104350704,0.0,wait_cost,0,3,,,ti14,1,2022-05-05_11h29.17.852,threat_forest,2021.2.3,59.99196104394372,
2,0,2,0,1,0,1,0,,,,,,,,,,right,0.9334936998784542,102.11560390004888,ti14,97.7886161999777,99.78833530005068,102.11560390004888,None,True,3,['p'],False,0.2962962962962963,0.3333333333333333,0.1111111111111111,1.0,1.0,0.8325252476189534,-0.1111111111111111,unsucc_cost,1,1,99.78833530005068,None,ti14,1,2022-05-05_11h29.17.852,threat_forest,2021.2.3,59.99196104394372,
2,0,2,0,2,0,2,0,,,,,,,,,,right,0.7296815002337098,105.60767689999193,ti14,97.7886161999777,99.78833530005068,105.60767689999193,None,True,1,['p'],False,0.2962962962962963,0.3333333333333333,0.1111111111111111,1.0,1.0,0.8325252476189534,0.2962962962962963,succ_gain,1,2,105.07153660012409,None,ti14,1,2022-05-05_11h29.17.852,threat_forest,2021.2.3,59.99196104394372,
2,0,2,0,3,0,3,0,,,,,,,,,,right,1.2290012002922595,112.12532800016925,ti14,97.7886161999777,99.78833530005068,112.12532800016925,None,True,2,['p'],False,0.2962962962962963,0.3333333333333333,0.1111111111111111,1.0,1.0,0.8325252476189534,-0.7037037037037037,succ_gain,1,3,108.35489790001884,None,ti14,1,2022-05-05_11h29.17.852,threat_forest,2021.2.3,59.99196104394372,
2,0,2,0,4,0,4,0,,,,,,,,,,right,1.2866412000730634,118.34752070019022,ti14,118.34752070019022,None,113.37217540014535,115.37158770021051,False,3,['p'],True,0.48,0.6,0.2,1.0,1.0,0.9455672104350704,-0.2,wait_cost,0,2,115.37158770021051,None,ti14,1,2022-05-05_11h29.17.852,threat_forest,2021.2.3,59.99196104394372,
2,0,2,0,5,0,5,0,,,,,,,,,,right,1.128880700096488,122.44580370001495,ti14,119.65550340013579,121.65498120011762,122.44580370001495,None,True,2,['p'],False,0.2962962962962963,0.3333333333333333,0.1111111111111111,1.0,1.0,0.8325252476189534,-0.7037037037037037,unsucc_cost,1,0,121.65498120011762,None,ti14,1,2022-05-05_11h29.17.852,threat_forest,2021.2.3,59.99196104394372,
2,0,2,0,,,,,,,,,,,,,,,,,,,,,,,,,,,,,,,,,,,,125.62179960031062,None,ti14,1,2022-05-05_11h29.17.852,threat_forest,2021.2.3,59.99196104394372,
3,0,3,0,0,0,0,0,,,,,,,129.16729910019785,132.6720440001227,None,right,0.9028960997238755,136.0794083001092,ti14,129.16729910019785,132.6720440001227,136.0794083001092,None,True,4,['p'],False,0.2448979591836734,0.2857142857142857,0.1428571428571428,1.0,1.0,0.8400769154957735,0.0,succ_gain,1,5,,,ti14,1,2022-05-05_11h29.17.852,threat_forest,2021.2.3,59.99196104394372,
3,0,3,0,1,0,1,0,,,,,,,,,,right,0.7030215999111533,141.9753295001574,ti14,129.16729910019785,132.6720440001227,141.9753295001574,None,True,5,['p'],False,0.2448979591836734,0.2857142857142857,0.1428571428571428,1.0,1.0,0.8400769154957735,0.0,succ_gain,1,6,139.0055007999763,None,ti14,1,2022-05-05_11h29.17.852,threat_forest,2021.2.3,59.99196104394372,
3,0,3,0,2,0,2,0,,,,,,,,,,right,0.697492599952966,146.27555390028283,ti14,129.16729910019785,132.6720440001227,146.27555390028283,None,True,6,['p'],False,0.2448979591836734,0.2857142857142857,0.1428571428571428,1.0,1.0,0.8400769154957735,0.0,unsucc_cost,1,4,144.70527550019324,None,ti14,1,2022-05-05_11h29.17.852,threat_forest,2021.2.3,59.99196104394372,
3,0,3,0,3,0,3,0,,,,,,,,,,right,1.0095556997694075,151.87427810020745,ti14,129.16729910019785,132.6720440001227,151.87427810020745,None,True,4,['p'],False,0.2448979591836734,0.2857142857142857,0.1428571428571428,1.0,1.0,0.8400769154957735,0.0,succ_gain,1,5,149.00532740028575,None,ti14,1,2022-05-05_11h29.17.852,threat_forest,2021.2.3,59.99196104394372,
3,0,3,0,4,0,4,0,,,,,,,,,,right,1.068516300059855,157.58652260014787,ti14,157.58652260014787,None,152.90585820004344,154.90561630018055,False,5,['p'],True,0.4444444444444445,0.6666666666666666,0.3333333333333333,1.0,1.0,0.9656336071428248,0.0,wait_cost,0,4,154.90561630018055,None,ti14,1,2022-05-05_11h29.17.852,threat_forest,2021.2.3,59.99196104394372,
3,0,3,0,5,0,5,0,,,,,,,,,,right,1.8206906002014875,163.70786660024896,ti14,163.70786660024896,None,152.90585820004344,154.90561630018055,False,4,['p'],True,0.4444444444444445,0.6666666666666666,0.3333333333333333,1.0,1.0,0.9656336071428248,0.0,wait_cost,0,3,160.67230990016833,None,ti14,1,2022-05-05_11h29.17.852,threat_forest,2021.2.3,59.99196104394372,
3,0,3,0,6,0,6,0,,,,,,,,,,right,0.8875033003278077,168.14751660032198,ti14,165.5561970002018,167.55629280023277,168.14751660032198,None,True,3,['p'],False,0.2448979591836734,0.2857142857142857,0.1428571428571428,1.0,1.0,0.8400769154957735,-0.1428571428571428,unsucc_cost,1,1,167.55629280023277,None,ti14,1,2022-05-05_11h29.17.852,threat_forest,2021.2.3,59.99196104394372,
3,0,3,0,7,0,7,0,,,,,,,,,,right,1.1994449002668262,173.02819250011817,ti14,173.02819250011817,None,169.0561279002577,171.05579830007628,False,1,['p'],True,0.4444444444444445,0.6666666666666666,0.3333333333333333,1.0,1.0,0.9656336071428248,0.4444444444444444,wait_cost,0,0,171.05579830007628,None,ti14,1,2022-05-05_11h29.17.852,threat_forest,2021.2.3,59.99196104394372,
3,0,3,0,,,,,,,,,,,,,,,,,,,,,,,,,,,,,,,,,,,,176.25603489996865,None,ti14,1,2022-05-05_11h29.17.852,threat_forest,2021.2.3,59.99196104394372,
4,0,4,0,0,0,0,0,,,,,,,179.46696210000664,182.97293940000236,None,left,1.0135457003489137,184.13262790022418,ti14,184.13262790022418,None,179.46696210000664,182.97293940000236,True,4,['r'],True,0.6,0.6,0.0,0.0,2.0,0.6126016192893442,0.0,unsucc_cost,0,2,,,ti14,1,2022-05-05_11h29.17.852,threat_forest,2021.2.3,59.99196104394372,
4,0,4,0,1,0,1,0,,,,,,,,,,right,1.5382469999603927,188.0126650002785,ti14,185.17313050013036,187.17270060023293,188.0126650002785,None,True,2,['r'],False,0.4444444444444445,0.6666666666666666,0.3333333333333333,2.0,2.0,0.9656336071428248,-0.5555555555555556,figh_cost,1,0,187.17270060023293,None,ti14,1,2022-05-05_11h29.17.852,threat_forest,2021.2.3,59.99196104394372,
4,0,4,0,,,,,,,,,,,,,,,,,,,,,,,,,,,,,,,,,,,,191.5727347000502,None,ti14,1,2022-05-05_11h29.17.852,threat_forest,2021.2.3,59.99196104394372,
5,0,5,0,0,0,0,0,,,,,,,192.6511666001752,196.1568162003532,None,right,1.0476957000792027,197.31707570003346,ti14,192.6511666001752,196.1568162003532,197.31707570003346,None,True,4,['r'],False,0.25,0.5,0.5,2.0,1.0,0.9463946303571862,0.0,succ_gain,1,5,,,ti14,1,2022-05-05_11h29.17.852,threat_forest,2021.2.3,59.99196104394372,
5,0,5,0,1,0,1,0,,,,,,,,,,right,1.1922779995948076,203.81155040021986,ti14,192.6511666001752,196.1568162003532,203.81155040021986,None,True,5,['r'],False,0.25,0.5,0.5,2.0,1.0,0.9463946303571862,0.0,figh_cost,1,2,200.38948990032077,None,ti14,1,2022-05-05_11h29.17.852,threat_forest,2021.2.3,59.99196104394372,
5,0,5,0,2,0,2,0,,,,,,,,,,left,1.0264448001980782,208.9956678999588,ti14,208.9956678999588,None,205.02329490007833,207.02337460033596,True,2,['r'],True,0.3333333333333333,0.3333333333333333,0.0,0.0,1.0,0.5793801642856949,-0.6666666666666667,unsucc_cost,0,0,207.02337460033596,None,ti14,1,2022-05-05_11h29.17.852,threat_forest,2021.2.3,59.99196104394372,
5,0,5,0,,,,,,,,,,,,,,,,,,,,,,,,,,,,,,,,,,,,212.04051019996405,None,ti14,1,2022-05-05_11h29.17.852,threat_forest,2021.2.3,59.99196104394372,
6,0,6,0,0,0,0,0,,,,,,,213.8014237000607,217.30626690015197,None,right,0.8616450000554323,220.01405810005963,ti14,220.01405810005963,None,213.8014237000607,217.30626690015197,False,4,['r'],True,0.5,0.5,0.0,0.0,2.0,0.6309297535714574,0.0,wait_cost,0,3,,,ti14,1,2022-05-05_11h29.17.852,threat_forest,2021.2.3,59.99196104394372,
6,0,6,0,1,0,1,0,,,,,,,,,,right,1.4986091000027955,223.77633110014722,ti14,223.77633110014722,None,213.8014237000607,217.30626690015197,False,3,['r'],True,0.5,0.5,0.0,0.0,2.0,0.6309297535714574,0.0,wait_cost,0,2,222.92328520026058,None,ti14,1,2022-05-05_11h29.17.852,threat_forest,2021.2.3,59.99196104394372,
6,0,6,0,2,0,2,0,,,,,,,,,,right,0.912655099760741,230.52767540002242,ti14,225.30759580014274,227.30675690015778,230.52767540002242,None,True,2,['r'],False,0.2222222222222222,0.6666666666666666,0.6666666666666666,2.0,2.0,0.77250688571426,-0.7777777777777778,unsucc_cost,1,0,227.30675690015778,None,ti14,1,2022-05-05_11h29.17.852,threat_forest,2021.2.3,59.99196104394372,
6,0,6,0,,,,,,,,,,,,,,,,,,,,,,,,,,,,,,,,,,,,233.45691579999402,None,ti14,1,2022-05-05_11h29.17.852,threat_forest,2021.2.3,59.99196104394372,
7,0,7,0,0,0,0,0,,,,,,,234.8681705002673,238.37370060011744,None,right,0.7369703003205359,240.8137427000329,ti14,234.8681705002673,238.37370060011744,240.8137427000329,None,True,5,['r'],False,0.28125,0.375,0.25,2.0,2.0,0.9634951148421658,0.0,unsucc_cost,1,3,,,ti14,1,2022-05-05_11h29.17.852,threat_forest,2021.2.3,59.99196104394372,
7,0,7,0,1,0,1,0,,,,,,,,,,right,1.6987018999643624,245.73265670007095,ti14,245.73265670007095,None,241.57406220026314,243.5735088000074,False,3,['r'],True,0.3333333333333333,0.3333333333333333,0.0,0.0,2.0,0.5793801642856949,0.0,wait_cost,0,2,243.5735088000074,None,ti14,1,2022-05-05_11h29.17.852,threat_forest,2021.2.3,59.99196104394372,
7,0,7,0,2,0,2,0,,,,,,,,,,left,1.7053112001158297,250.61432310007513,ti14,250.61432310007513,None,241.57406220026314,243.5735088000074,True,2,['r'],True,0.3333333333333333,0.3333333333333333,0.0,0.0,2.0,0.5793801642856949,-0.6666666666666667,unsucc_cost,0,0,249.4568885001354,None,ti14,1,2022-05-05_11h29.17.852,threat_forest,2021.2.3,59.99196104394372,
7,0,7,0,,,,,,,,,,,,,,,,,,,,,,,,,,,,,,,,,,,,254.34069700026885,None,ti14,1,2022-05-05_11h29.17.852,threat_forest,2021.2.3,59.99196104394372,
8,0,8,0,0,0,0,0,,,,,,,255.310937799979,258.8093138001859,None,left,0.9720242000184953,260.7351906001568,ti14,260.7351906001568,None,255.310937799979,258.8093138001859,True,4,['p'],True,0.375,0.5,0.25,1.0,2.0,0.9850568223215076,0.0,succ_gain,0,6,,,ti14,1,2022-05-05_11h29.17.852,threat_forest,2021.2.3,59.99196104394372,
8,0,8,0,1,0,1,0,,,,,,,,,,right,1.4493848998099566,265.1310649001971,ti14,261.72445270000026,263.72400910034776,265.1310649001971,None,True,6,['p'],False,0.2,0.2,0.0,0.0,2.0,0.4554859150035951,0.0,unsucc_cost,1,4,263.72400910034776,None,ti14,1,2022-05-05_11h29.17.852,threat_forest,2021.2.3,59.99196104394372,
8,0,8,0,2,0,2,0,,,,,,,,,,right,1.570329399779439,270.7114069000818,ti14,261.72445270000026,263.72400910034776,270.7114069000818,None,True,4,['p'],False,0.2,0.2,0.0,0.0,2.0,0.4554859150035951,0.0,unsucc_cost,1,2,268.6072041001171,None,ti14,1,2022-05-05_11h29.17.852,threat_forest,2021.2.3,59.99196104394372,
8,0,8,0,3,0,3,0,,,,,,,,,,right,1.5645924001000822,276.5589483999647,ti14,261.72445270000026,263.72400910034776,276.5589483999647,None,True,2,['p'],False,0.2,0.2,0.0,0.0,2.0,0.4554859150035951,-0.8,succ_gain,1,4,274.30728580011055,None,ti14,1,2022-05-05_11h29.17.852,threat_forest,2021.2.3,59.99196104394372,
8,0,8,0,4,0,4,0,,,,,,,,,,right,1.5698384996503592,280.7178438003175,ti14,280.7178438003175,None,278.1413968000561,280.1409035003744,False,4,['p'],True,0.375,0.5,0.25,1.0,2.0,0.9850568223215076,0.0,wait_cost,0,3,280.1409035003744,None,ti14,1,2022-05-05_11h29.17.852,threat_forest,2021.2.3,59.99196104394372,
8,0,8,0,5,0,5,0,,,,,,,,,,right,1.2683898000977933,287.4288527001627,ti14,282.3081864002161,284.30753570003435,287.4288527001627,None,True,3,['p'],False,0.2,0.2,0.0,0.0,2.0,0.4554859150035951,0.0,succ_gain,1,5,284.30753570003435,None,ti14,1,2022-05-05_11h29.17.852,threat_forest,2021.2.3,59.99196104394372,
8,0,8,0,6,0,6,0,,,,,,,,,,right,1.4822172997519374,294.1485033002682,ti14,294.1485033002682,None,288.72448820015416,290.7247562003322,False,5,['p'],True,0.375,0.5,0.25,1.0,2.0,0.9850568223215076,0.0,wait_cost,0,4,290.7247562003322,None,ti14,1,2022-05-05_11h29.17.852,threat_forest,2021.2.3,59.99196104394372,
8,0,8,0,7,0,7,0,,,,,,,,,,right,1.7399687999859452,299.2790151000954,ti14,295.6579158999957,297.6576408999972,299.2790151000954,None,True,4,['p'],False,0.2,0.2,0.0,0.0,2.0,0.4554859150035951,0.0,succ_gain,1,6,297.6576408999972,None,ti14,1,2022-05-05_11h29.17.852,threat_forest,2021.2.3,59.99196104394372,
8,0,8,0,,,,,,,,,,,,,,,,,,,,,,,,,,,,,,,,,,,,303.04122780030593,None,ti14,1,2022-05-05_11h29.17.852,threat_forest,2021.2.3,59.99196104394372,
9,0,9,0,0,0,0,0,,,,,,,304.9060380002484,308.40767300035805,None,left,1.9238925999961793,309.68399390019476,ti14,309.68399390019476,None,304.9060380002484,308.40767300035805,True,4,['r'],True,0.3333333333333333,0.3333333333333333,0.0,0.0,2.0,0.5793801642856949,0.0,succ_gain,0,6,,,ti14,1,2022-05-05_11h29.17.852,threat_forest,2021.2.3,59.99196104394372,
9,0,9,0,1,0,1,0,,,,,,,,,,left,0.8992210002616048,316.0008994000964,ti14,311.62499239994213,313.6244389000349,316.0008994000964,None,False,6,['r'],False,0.28125,0.375,0.25,2.0,2.0,0.9634951148421658,0.0,wait_cost,1,5,313.6244389000349,None,ti14,1,2022-05-05_11h29.17.852,threat_forest,2021.2.3,59.99196104394372,
9,0,9,0,2,0,2,0,,,,,,,,,,left,0.9117216998711228,320.1636085002683,ti14,320.1636085002683,None,316.9251149003394,318.9247524002567,True,5,['r'],True,0.3333333333333333,0.3333333333333333,0.0,0.0,2.0,0.5793801642856949,0.0,unsucc_cost,0,3,318.9247524002567,None,ti14,1,2022-05-05_11h29.17.852,threat_forest,2021.2.3,59.99196104394372,
9,0,9,0,3,0,3,0,,,,,,,,,,left,1.0723386998288333,325.2651860001497,ti14,321.0954483002424,323.10807189997286,325.2651860001497,None,False,3,['r'],False,0.28125,0.375,0.25,2.0,2.0,0.9634951148421658,-0.25,wait_cost,1,2,323.10807189997286,None,ti14,1,2022-05-05_11h29.17.852,threat_forest,2021.2.3,59.99196104394372,
9,0,9,0,4,0,4,0,,,,,,,,,,left,0.9610663997009397,331.1625900003128,ti14,331.1625900003128,None,326.358668200206,328.3580567999743,True,2,['r'],True,0.3333333333333333,0.3333333333333333,0.0,0.0,2.0,0.5793801642856949,-0.6666666666666667,unsucc_cost,0,0,328.3580567999743,None,ti14,1,2022-05-05_11h29.17.852,threat_forest,2021.2.3,59.99196104394372,
9,0,9,0,,,,,,,,,,,,,,,,,,,,,,,,,,,,,,,,,,,,334.1417585001327,None,ti14,1,2022-05-05_11h29.17.852,threat_forest,2021.2.3,59.99196104394372,
10,0,10,0,0,0,0,0,,,,,,,336.37017270037904,339.8750764001161,None,right,1.189521700143814,340.6705212001689,ti14,336.37017270037904,339.8750764001161,340.6705212001689,None,True,5,['p'],False,0.2448979591836734,0.2857142857142857,0.1428571428571428,1.0,2.0,0.8400769154957735,0.0,unsucc_cost,1,3,,,ti14,1,2022-05-05_11h29.17.852,threat_forest,2021.2.3,59.99196104394372,
10,0,10,0,1,0,1,0,,,,,,,,,,left,1.726013499777764,346.46415190026164,ti14,346.46415190026164,None,341.8922280999832,343.89173889998347,True,3,['p'],True,0.375,0.5,0.25,1.0,2.0,0.9850568223215076,-0.25,unsucc_cost,0,1,343.89173889998347,None,ti14,1,2022-05-05_11h29.17.852,threat_forest,2021.2.3,59.99196104394372,
10,0,10,0,2,0,2,0,,,,,,,,,,right,1.945598800200969,352.2500820001587,ti14,348.2091066003777,350.20860240003094,352.2500820001587,None,True,1,['p'],False,0.2448979591836734,0.2857142857142857,0.1428571428571428,1.0,2.0,0.8400769154957735,0.2448979591836735,succ_gain,1,3,350.20860240003094,None,ti14,1,2022-05-05_11h29.17.852,threat_forest,2021.2.3,59.99196104394372,
10,0,10,0,3,0,3,0,,,,,,,,,,left,1.93016770016402,357.4282103003934,ti14,348.2091066003777,350.20860240003094,357.4282103003934,None,False,3,['p'],False,0.2448979591836734,0.2857142857142857,0.1428571428571428,1.0,2.0,0.8400769154957735,-0.1428571428571428,wait_cost,1,2,356.2251242999919,None,ti14,1,2022-05-05_11h29.17.852,threat_forest,2021.2.3,59.99196104394372,
10,0,10,0,4,0,4,0,,,,,,,,,,right,1.1323231998831034,362.41079140035436,ti14,348.2091066003777,350.20860240003094,362.41079140035436,None,True,2,['p'],False,0.2448979591836734,0.2857142857142857,0.1428571428571428,1.0,2.0,0.8400769154957735,-0.7551020408163265,unsucc_cost,1,0,361.3754094000906,None,ti14,1,2022-05-05_11h29.17.852,threat_forest,2021.2.3,59.99196104394372,
10,0,10,0,,,,,,,,,,,,,,,,,,,,,,,,,,,,,,,,,,,,365.57529910001904,None,ti14,1,2022-05-05_11h29.17.852,threat_forest,2021.2.3,59.99196104394372,
11,0,11,0,0,0,0,0,,,,,,,368.75434220023453,372.2590920999646,None,left,1.1084493002854288,373.70384080009535,ti14,368.75434220023453,372.2590920999646,373.70384080009535,None,False,4,['p'],False,0.27,0.3,0.1,1.0,1.0,0.7963326591781347,0.0,wait_cost,1,3,,,ti14,1,2022-05-05_11h29.17.852,threat_forest,2021.2.3,59.99196104394372,
11,0,11,0,1,0,1,0,,,,,,,,,,right,0.7186598000116646,377.37998420000076,ti14,368.75434220023453,372.2590920999646,377.37998420000076,None,True,3,['p'],False,0.27,0.3,0.1,1.0,1.0,0.7963326591781347,-0.1,unsucc_cost,1,1,376.85886010015383,None,ti14,1,2022-05-05_11h29.17.852,threat_forest,2021.2.3,59.99196104394372,
11,0,11,0,2,0,2,0,,,,,,,,,,right,1.3152426001615822,382.33014490036294,ti14,368.75434220023453,372.2590920999646,382.33014490036294,None,True,1,['p'],False,0.27,0.3,0.1,1.0,1.0,0.7963326591781347,0.27,unsucc_cost,1,0,380.1255574002862,None,ti14,1,2022-05-05_11h29.17.852,threat_forest,2021.2.3,59.99196104394372,
11,0,11,0,,,,,,,,,,,,,,,,,,,,,,,,,,,,,,,,,,,,385.69266290031374,None,ti14,1,2022-05-05_11h29.17.852,threat_forest,2021.2.3,59.99196104394372,
12,0,12,0,0,0,0,0,,,,,,,389.0429036002606,392.54171700030565,None,right,1.1139130997471511,393.28552479995415,ti14,389.0429036002606,392.54171700030565,393.28552479995415,None,True,4,['p'],False,0.1975308641975308,0.2222222222222222,0.1111111111111111,1.0,2.0,0.7461067557824965,0.0,succ_gain,1,6,,,ti14,1,2022-05-05_11h29.17.852,threat_forest,2021.2.3,59.99196104394372,
12,0,12,0,1,0,1,0,,,,,,,,,,right,1.0751673998311162,399.35454059997573,ti14,399.35454059997573,None,394.4265356003307,396.42632760014385,False,6,['p'],True,0.2777777777777778,0.3333333333333333,0.1666666666666666,1.0,2.0,0.8929352898779304,0.0,wait_cost,0,5,396.42632760014385,None,ti14,1,2022-05-05_11h29.17.852,threat_forest,2021.2.3,59.99196104394372,
12,0,12,0,2,0,2,0,,,,,,,,,,right,1.0031723002903163,405.8808143003844,ti14,405.8808143003844,None,394.4265356003307,396.42632760014385,False,5,['p'],True,0.2777777777777778,0.3333333333333333,0.1666666666666666,1.0,2.0,0.8929352898779304,0.0,wait_cost,0,4,402.4594256002456,None,ti14,1,2022-05-05_11h29.17.852,threat_forest,2021.2.3,59.99196104394372,
12,0,12,0,3,0,3,0,,,,,,,,,,right,1.7568974997848272,411.2972760000266,ti14,411.2972760000266,None,394.4265356003307,396.42632760014385,False,4,['p'],True,0.2777777777777778,0.3333333333333333,0.1666666666666666,1.0,2.0,0.8929352898779304,0.0,wait_cost,0,3,408.90963490027934,None,ti14,1,2022-05-05_11h29.17.852,threat_forest,2021.2.3,59.99196104394372,
12,0,12,0,4,0,4,0,,,,,,,,,,right,1.5241235997527838,416.1488689002581,ti14,413.07671000016853,415.076171700377,416.1488689002581,None,True,3,['p'],False,0.1975308641975308,0.2222222222222222,0.1111111111111111,1.0,2.0,0.7461067557824965,-0.1111111111111111,unsucc_cost,1,1,415.076171700377,None,ti14,1,2022-05-05_11h29.17.852,threat_forest,2021.2.3,59.99196104394372,
12,0,12,0,5,0,5,0,,,,,,,,,,right,0.8160701999440789,421.94554580003023,ti14,413.07671000016853,415.076171700377,421.94554580003023,None,True,1,['p'],False,0.1975308641975308,0.2222222222222222,0.1111111111111111,1.0,2.0,0.7461067557824965,0.1975308641975308,unsucc_cost,1,0,419.692890400067,None,ti14,1,2022-05-05_11h29.17.852,threat_forest,2021.2.3,59.99196104394372,
12,0,12,0,,,,,,,,,,,,,,,,,,,,,,,,,,,,,,,,,,,,424.79303160030395,None,ti14,1,2022-05-05_11h29.17.852,threat_forest,2021.2.3,59.99196104394372,
13,0,13,0,0,0,0,0,,,,,,,427.0842439001426,430.59314610017464,None,left,0.9686069004237652,433.1992744002491,ti14,433.1992744002491,None,427.0842439001426,430.59314610017464,True,4,['r'],True,0.3333333333333333,0.3333333333333333,0.0,0.0,2.0,0.5793801642856949,0.0,unsucc_cost,0,2,,,ti14,1,2022-05-05_11h29.17.852,threat_forest,2021.2.3,59.99196104394372,
13,0,13,0,1,0,1,0,,,,,,,,,,right,1.9562274999916553,437.00013880012557,ti14,434.19362380029634,436.1931416001171,437.00013880012557,None,True,2,['r'],False,0.24,0.4,0.4,2.0,2.0,0.9801625908629508,-0.76,succ_gain,1,4,436.1931416001171,None,ti14,1,2022-05-05_11h29.17.852,threat_forest,2021.2.3,59.99196104394372,
13,0,13,0,2,0,2,0,,,,,,,,,,left,1.0784431998617947,442.4319540001452,ti14,442.4319540001452,None,438.97713140025735,440.976442000363,True,4,['r'],True,0.3333333333333333,0.3333333333333333,0.0,0.0,2.0,0.5793801642856949,0.0,unsucc_cost,0,2,440.976442000363,None,ti14,1,2022-05-05_11h29.17.852,threat_forest,2021.2.3,59.99196104394372,
13,0,13,0,3,0,3,0,,,,,,,,,,left,1.1117352000437677,446.4937214003876,ti14,446.4937214003876,None,438.97713140025735,440.976442000363,True,2,['r'],True,0.3333333333333333,0.3333333333333333,0.0,0.0,2.0,0.5793801642856949,-0.6666666666666667,unsucc_cost,0,0,445.5432012001984,None,ti14,1,2022-05-05_11h29.17.852,threat_forest,2021.2.3,59.99196104394372,
13,0,13,0,,,,,,,,,,,,,,,,,,,,,,,,,,,,,,,,,,,,449.62665390037,None,ti14,1,2022-05-05_11h29.17.852,threat_forest,2021.2.3,59.99196104394372,
14,0,14,0,0,0,0,0,,,,,,,450.27760859997943,453.7768727000803,None,right,0.9321705000475049,454.71976689994335,ti14,454.71976689994335,None,450.27760859997943,453.7768727000803,False,5,['r'],True,0.5,0.5,0.0,0.0,2.0,0.6309297535714574,0.0,wait_cost,0,4,,,ti14,1,2022-05-05_11h29.17.852,threat_forest,2021.2.3,59.99196104394372,
14,0,14,0,1,0,1,0,,,,,,,,,,left,0.8352286000736058,459.31488470034674,ti14,459.31488470034674,None,450.27760859997943,453.7768727000803,True,4,['r'],True,0.5,0.5,0.0,0.0,2.0,0.6309297535714574,0.0,succ_gain,0,6,457.6767415003851,None,ti14,1,2022-05-05_11h29.17.852,threat_forest,2021.2.3,59.99196104394372,
14,0,14,0,2,0,2,0,,,,,,,,,,right,0.967633199878037,464.5494201001711,ti14,460.17887210007757,462.19329750025645,464.5494201001711,None,True,6,['r'],False,0.4081632653061224,0.5714285714285714,0.2857142857142857,2.0,2.0,0.9885754083994552,0.0,succ_gain,1,6,462.19329750025645,None,ti14,1,2022-05-05_11h29.17.852,threat_forest,2021.2.3,59.99196104394372,
14,0,14,0,3,0,3,0,,,,,,,,,,right,1.6432790998369455,470.2287219003774,ti14,460.17887210007757,462.19329750025645,470.2287219003774,None,True,6,['r'],False,0.4081632653061224,0.5714285714285714,0.2857142857142857,2.0,2.0,0.9885754083994552,0.0,unsucc_cost,1,4,467.5434109000489,None,ti14,1,2022-05-05_11h29.17.852,threat_forest,2021.2.3,59.99196104394372,
14,0,14,0,4,0,4,0,,,,,,,,,,right,1.5478587001562119,474.57901270035654,ti14,460.17887210007757,462.19329750025645,474.57901270035654,None,True,4,['r'],False,0.4081632653061224,0.5714285714285714,0.2857142857142857,2.0,2.0,0.9885754083994552,0.0,unsucc_cost,1,2,473.8936284002848,None,ti14,1,2022-05-05_11h29.17.852,threat_forest,2021.2.3,59.99196104394372,
14,0,14,0,5,0,5,0,,,,,,,,,,left,0.9509691996499896,481.16662950022146,ti14,481.16662950022146,None,476.14378810022026,478.1437357002869,True,2,['r'],True,0.5,0.5,0.0,0.0,2.0,0.6309297535714574,-0.5,unsucc_cost,0,0,478.1437357002869,None,ti14,1,2022-05-05_11h29.17.852,threat_forest,2021.2.3,59.99196104394372,
14,0,14,0,,,,,,,,,,,,,,,,,,,,,,,,,,,,,,,,,,,,484.1436832002364,None,ti14,1,2022-05-05_11h29.17.852,threat_forest,2021.2.3,59.99196104394372,
15,0,15,0,0,0,0,0,,,,,,,486.1785714002326,489.6770072001964,None,left,0.746433800086379,490.8693946003914,ti14,490.8693946003914,None,486.1785714002326,489.6770072001964,True,4,['r'],True,0.4,0.4,0.0,0.0,2.0,0.6126016192893442,0.0,succ_gain,0,6,,,ti14,1,2022-05-05_11h29.17.852,threat_forest,2021.2.3,59.99196104394372,
15,0,15,0,1,0,1,0,,,,,,,,,,left,1.062239599879831,495.2815407002345,ti14,495.2815407002345,None,486.1785714002326,489.6770072001964,True,6,['r'],True,0.4,0.4,0.0,0.0,2.0,0.6126016192893442,0.0,succ_gain,0,6,493.64381140004843,None,ti14,1,2022-05-05_11h29.17.852,threat_forest,2021.2.3,59.99196104394372,
15,0,15,0,2,0,2,0,,,,,,,,,,right,0.9883828000165522,499.00162840029225,ti14,499.00162840029225,None,486.1785714002326,489.6770072001964,False,6,['r'],True,0.4,0.4,0.0,0.0,2.0,0.6126016192893442,0.0,wait_cost,0,5,498.3605351001024,None,ti14,1,2022-05-05_11h29.17.852,threat_forest,2021.2.3,59.99196104394372,
15,0,15,0,3,0,3,0,,,,,,,,,,right,0.7906917999498546,504.3171227001585,ti14,500.0110582001507,502.01053460035473,504.3171227001585,None,True,5,['r'],False,0.3333333333333333,0.5,0.3333333333333333,2.0,2.0,1.0,0.0,unsucc_cost,1,3,502.01053460035473,None,ti14,1,2022-05-05_11h29.17.852,threat_forest,2021.2.3,59.99196104394372,
15,0,15,0,4,0,4,0,,,,,,,,,,left,0.7773040998727083,509.7682980000973,ti14,509.7682980000973,None,505.1277824002318,507.1273242002353,True,3,['r'],True,0.4,0.4,0.0,0.0,2.0,0.6126016192893442,0.0,succ_gain,0,5,507.1273242002353,None,ti14,1,2022-05-05_11h29.17.852,threat_forest,2021.2.3,59.99196104394372,
15,0,15,0,5,0,5,0,,,,,,,,,,right,1.598077000118792,515.0668010003865,ti14,510.5832394002937,512.5941345002502,515.0668010003865,None,True,5,['r'],False,0.3333333333333333,0.5,0.3333333333333333,2.0,2.0,1.0,0.0,unsucc_cost,1,3,512.5941345002502,None,ti14,1,2022-05-05_11h29.17.852,threat_forest,2021.2.3,59.99196104394372,
15,0,15,0,6,0,6,0,,,,,,,,,,right,0.7117792996577919,520.552034500055,ti14,520.552034500055,None,516.6944678002037,518.6944113001227,False,3,['r'],True,0.4,0.4,0.0,0.0,2.0,0.6126016192893442,0.0,wait_cost,0,2,518.6944113001227,None,ti14,1,2022-05-05_11h29.17.852,threat_forest,2021.2.3,59.99196104394372,
15,0,15,0,7,0,7,0,,,,,,,,,,right,0.644484399817884,526.7347020003945,ti14,521.2946777003817,523.2943426002748,526.7347020003945,None,True,2,['r'],False,0.3333333333333333,0.5,0.3333333333333333,2.0,2.0,1.0,-0.6666666666666667,unsucc_cost,1,0,523.2943426002748,None,ti14,1,2022-05-05_11h29.17.852,threat_forest,2021.2.3,59.99196104394372,
15,0,15,0,,,,,,,,,,,,,,,,,,,,,,,,,,,,,,,,,,,,529.4111079000868,None,ti14,1,2022-05-05_11h29.17.852,threat_forest,2021.2.3,59.99196104394372,
16,0,16,0,0,0,0,0,,,,,,,531.0354328001849,534.5445039002225,None,right,0.8575760000385344,536.4192675002851,ti14,536.4192675002851,None,531.0354328001849,534.5445039002225,False,4,['r'],True,0.3333333333333333,0.3333333333333333,0.0,0.0,2.0,0.5793801642856949,0.0,wait_cost,0,3,,,ti14,1,2022-05-05_11h29.17.852,threat_forest,2021.2.3,59.99196104394372,
16,0,16,0,1,0,1,0,,,,,,,,,,right,0.7667289995588362,542.24531379994,ti14,542.24531379994,None,531.0354328001849,534.5445039002225,False,3,['r'],True,0.3333333333333333,0.3333333333333333,0.0,0.0,2.0,0.5793801642856949,0.0,wait_cost,0,2,539.2953246999532,None,ti14,1,2022-05-05_11h29.17.852,threat_forest,2021.2.3,59.99196104394372,
16,0,16,0,2,0,2,0,,,,,,,,,,left,0.6819521998986602,547.8468332001939,ti14,547.8468332001939,None,531.0354328001849,534.5445039002225,True,2,['r'],True,0.3333333333333333,0.3333333333333333,0.0,0.0,2.0,0.5793801642856949,-0.6666666666666667,unsucc_cost,0,0,545.0447539002635,None,ti14,1,2022-05-05_11h29.17.852,threat_forest,2021.2.3,59.99196104394372,
16,0,16,0,,,,,,,,,,,,,,,,,,,,,,,,,,,,,,,,,,,,550.5449547003955,None,ti14,1,2022-05-05_11h29.17.852,threat_forest,2021.2.3,59.99196104394372,
17,0,17,0,0,0,0,0,,,,,,,553.080342900008,556.5784369003959,None,left,1.3363423002883792,560.286159100011,ti14,553.080342900008,556.5784369003959,560.286159100011,None,False,5,['r'],False,0.2040816326530612,0.2857142857142857,0.2857142857142857,2.0,1.0,0.9335459102197724,0.0,wait_cost,1,4,,,ti14,1,2022-05-05_11h29.17.852,threat_forest,2021.2.3,59.99196104394372,
17,0,17,0,1,0,1,0,,,,,,,,,,left,1.7560654999688268,566.7797859003767,ti14,553.080342900008,556.5784369003959,566.7797859003767,None,False,4,['r'],False,0.2040816326530612,0.2857142857142857,0.2857142857142857,2.0,1.0,0.9335459102197724,0.0,wait_cost,1,3,563.6452991003171,None,ti14,1,2022-05-05_11h29.17.852,threat_forest,2021.2.3,59.99196104394372,
17,0,17,0,2,0,2,0,,,,,,,,,,left,1.7921705995686352,573.5630156002007,ti14,553.080342900008,556.5784369003959,573.5630156002007,None,False,3,['r'],False,0.2040816326530612,0.2857142857142857,0.2857142857142857,2.0,1.0,0.9335459102197724,-0.2857142857142857,wait_cost,1,2,570.5617897002958,None,ti14,1,2022-05-05_11h29.17.852,threat_forest,2021.2.3,59.99196104394372,
17,0,17,0,3,0,3,0,,,,,,,,,,right,1.0366393001750112,578.3289057002403,ti14,553.080342900008,556.5784369003959,578.3289057002403,None,True,2,['r'],False,0.2040816326530612,0.2857142857142857,0.2857142857142857,2.0,1.0,0.9335459102197724,-0.7959183673469388,unsucc_cost,1,0,577.3783994000405,None,ti14,1,2022-05-05_11h29.17.852,threat_forest,2021.2.3,59.99196104394372,
17,0,17,0,,,,,,,,,,,,,,,,,,,,,,,,,,,,,,,,,,,,581.395222700201,None,ti14,1,2022-05-05_11h29.17.852,threat_forest,2021.2.3,59.99196104394372,
