miniblock.thisRepN,miniblock.thisTrialN,miniblock.thisN,miniblock.thisIndex,day.thisRepN,day.thisTrialN,day.thisN,day.thisIndex,welcoming.started,welcoming.stopped,key_resp_2.keys,key_resp_2.rt,key_resp_2.started,key_resp_2.stopped,forest.started,fixation_forest.started,fixation_forest.stopped,key_resp.keys,key_resp.rt,key_resp.started,Subject_ID,weather_left.started,weather_left.stopped,weather_right.started,weather_right.stopped,foraging T/F,in_LP,p/r heuristic,good_weather.T/F,p_succ_correct,p_succ_uncorrected,r_threat,n_oponents,gain_if_succ,weather_entropy,OP_value_difference,action_outcome,forest_side_L=0_R=1,out_LP,fixation_day.started,fixation_day.stopped,participant,session,date,expName,psychopyVersion,frameRate,
,,,,,,,,24.41724539990537,None,space,47.63648970006034,24.41724539990537,None,,,,,,,,,,,,,,,,,,,,,,,,,,,,iz8,1,2022-04-21_11h28.55.000,threat_forest,2021.2.3,59.73929775023638,
0,0,0,0,0,0,0,0,,,,,,,72.10452799987979,75.61118120001629,None,left,1.1514577998314053,76.13924399996176,iz8,72.10452799987979,75.61118120001629,76.13924399996176,None,False,5,['r'],False,0.5185185185185185,0.6666666666666666,0.2222222222222222,2.0,2.0,0.9327883776363328,0.0,wait_cost,1,4,,,iz8,1,2022-04-21_11h28.55.000,threat_forest,2021.2.3,59.73929775023638,
0,0,0,0,1,0,1,0,,,,,,,,,,left,1.0777908000163734,80.52255130000412,iz8,72.10452799987979,75.61118120001629,80.52255130000412,None,False,4,['r'],False,0.5185185185185185,0.6666666666666666,0.2222222222222222,2.0,2.0,0.9327883776363328,0.0,wait_cost,1,3,79.32210669992492,None,iz8,1,2022-04-21_11h28.55.000,threat_forest,2021.2.3,59.73929775023638,
0,0,0,0,2,0,2,0,,,,,,,,,,left,1.1191062999423593,85.38923779991455,iz8,72.10452799987979,75.61118120001629,85.38923779991455,None,False,3,['r'],False,0.5185185185185185,0.6666666666666666,0.2222222222222222,2.0,2.0,0.9327883776363328,-0.2222222222222222,wait_cost,1,2,83.62224359996617,None,iz8,1,2022-04-21_11h28.55.000,threat_forest,2021.2.3,59.73929775023638,
0,0,0,0,3,0,3,0,,,,,,,,,,left,0.8068699000868946,90.92386389989406,iz8,90.92386389989406,None,86.53945189993829,88.53894210001454,True,2,['r'],True,0.625,0.625,0.0,0.0,2.0,0.6021808102656677,-0.375,succ_gain,0,4,88.53894210001454,None,iz8,1,2022-04-21_11h28.55.000,threat_forest,2021.2.3,59.73929775023638,
0,0,0,0,4,0,4,0,,,,,,,,,,left,1.098701599985361,95.67466800007969,iz8,91.75596059998497,93.75565110007301,95.67466800007969,None,False,4,['r'],False,0.5185185185185185,0.6666666666666666,0.2222222222222222,2.0,2.0,0.9327883776363328,0.0,wait_cost,1,3,93.75565110007301,None,iz8,1,2022-04-21_11h28.55.000,threat_forest,2021.2.3,59.73929775023638,
0,0,0,0,5,0,5,0,,,,,,,,,,left,0.6767736000474542,99.72277950006537,iz8,91.75596059998497,93.75565110007301,99.72277950006537,None,False,3,['r'],False,0.5185185185185185,0.6666666666666666,0.2222222222222222,2.0,2.0,0.9327883776363328,-0.2222222222222222,wait_cost,1,2,98.80580860003829,None,iz8,1,2022-04-21_11h28.55.000,threat_forest,2021.2.3,59.73929775023638,
0,0,0,0,6,0,6,0,,,,,,,,,,left,0.5094033000059426,104.59359740000218,iz8,104.59359740000218,None,100.42293799994513,102.42248379997909,True,2,['r'],True,0.625,0.625,0.0,0.0,2.0,0.6021808102656677,-0.375,succ_gain,0,4,102.42248379997909,None,iz8,1,2022-04-21_11h28.55.000,threat_forest,2021.2.3,59.73929775023638,
0,0,0,0,7,0,7,0,,,,,,,,,,left,0.4440605998970568,109.17318330006674,iz8,105.1227430999279,107.12271069991402,109.17318330006674,None,False,4,['r'],False,0.5185185185185185,0.6666666666666666,0.2222222222222222,2.0,2.0,0.9327883776363328,0.0,wait_cost,1,3,107.12271069991402,None,iz8,1,2022-04-21_11h28.55.000,threat_forest,2021.2.3,59.73929775023638,
0,0,0,0,,,,,,,,,,,,,,,,,,,,,,,,,,,,,,,,,,,,111.63934429991059,None,iz8,1,2022-04-21_11h28.55.000,threat_forest,2021.2.3,59.73929775023638,
1,0,1,0,0,0,0,0,,,,,,,114.22029020008631,117.72272419999354,None,right,1.1794188998173922,119.10675049992278,iz8,114.22029020008631,117.72272419999354,119.10675049992278,None,True,5,['p'],False,0.24,0.3,0.2,2.0,2.0,0.9003120349047065,0.0,succ_gain,1,6,,,iz8,1,2022-04-21_11h28.55.000,threat_forest,2021.2.3,59.73929775023638,
1,0,1,0,1,0,1,0,,,,,,,,,,right,0.700641900068149,124.74292399990372,iz8,124.74292399990372,None,120.30637850007042,122.30613819998689,False,6,['p'],True,0.4444444444444445,0.6666666666666666,0.3333333333333333,1.0,2.0,0.9656336071428248,0.0,wait_cost,0,5,122.30613819998689,None,iz8,1,2022-04-21_11h28.55.000,threat_forest,2021.2.3,59.73929775023638,
1,0,1,0,2,0,2,0,,,,,,,,,,left,2.013789099873975,128.85653289989568,iz8,125.47306059999391,127.47279389994219,128.85653289989568,None,False,5,['p'],False,0.24,0.3,0.2,2.0,2.0,0.9003120349047065,0.0,wait_cost,1,4,127.47279389994219,None,iz8,1,2022-04-21_11h28.55.000,threat_forest,2021.2.3,59.73929775023638,
1,0,1,0,3,0,3,0,,,,,,,,,,right,0.651417399989441,136.42358419997618,iz8,125.47306059999391,127.47279389994219,136.42358419997618,None,True,4,['p'],False,0.24,0.3,0.2,2.0,2.0,0.9003120349047065,0.0,succ_gain,1,6,132.88964350009337,None,iz8,1,2022-04-21_11h28.55.000,threat_forest,2021.2.3,59.73929775023638,
1,0,1,0,4,0,4,0,,,,,,,,,,left,1.0240440000779927,140.5400745999068,iz8,125.47306059999391,127.47279389994219,140.5400745999068,None,False,6,['p'],False,0.24,0.3,0.2,2.0,2.0,0.9003120349047065,0.0,wait_cost,1,5,139.1064065999817,None,iz8,1,2022-04-21_11h28.55.000,threat_forest,2021.2.3,59.73929775023638,
1,0,1,0,5,0,5,0,,,,,,,,,,right,0.5651761000044644,144.67508640000597,iz8,144.67508640000597,None,141.5900842999108,143.5898021000903,False,5,['p'],True,0.4444444444444445,0.6666666666666666,0.3333333333333333,1.0,2.0,0.9656336071428248,0.0,wait_cost,0,4,143.5898021000903,None,iz8,1,2022-04-21_11h28.55.000,threat_forest,2021.2.3,59.73929775023638,
1,0,1,0,6,0,6,0,,,,,,,,,,left,0.4556073001585901,150.59030309994705,iz8,145.25689320010133,147.25651249988005,150.59030309994705,None,False,4,['p'],False,0.24,0.3,0.2,2.0,2.0,0.9003120349047065,0.0,wait_cost,1,3,147.25651249988005,None,iz8,1,2022-04-21_11h28.55.000,threat_forest,2021.2.3,59.73929775023638,
1,0,1,0,7,0,7,0,,,,,,,,,,right,0.8660903999116272,154.67374160001054,iz8,154.67374160001054,None,151.07351560005918,153.07379819988273,False,3,['p'],True,0.4444444444444445,0.6666666666666666,0.3333333333333333,1.0,2.0,0.9656336071428248,-0.3333333333333333,wait_cost,0,2,153.07379819988273,None,iz8,1,2022-04-21_11h28.55.000,threat_forest,2021.2.3,59.73929775023638,
1,0,1,0,,,,,,,,,,,,,,,,,,,,,,,,,,,,,,,,,,,,157.55664510000497,None,iz8,1,2022-04-21_11h28.55.000,threat_forest,2021.2.3,59.73929775023638,
2,0,2,0,0,0,0,0,,,,,,,160.7468288000673,164.25679020001553,None,right,0.7489340000320226,166.50730350008234,iz8,160.7468288000673,164.25679020001553,166.50730350008234,None,True,5,['p'],False,0.2592592592592592,0.3333333333333333,0.2222222222222222,2.0,2.0,0.9327883776363324,0.0,succ_gain,1,6,,,iz8,1,2022-04-21_11h28.55.000,threat_forest,2021.2.3,59.73929775023638,
2,0,2,0,1,0,1,0,,,,,,,,,,left,0.6710350001230836,171.75746749993414,iz8,160.7468288000673,164.25679020001553,171.75746749993414,None,False,6,['p'],False,0.2592592592592592,0.3333333333333333,0.2222222222222222,2.0,2.0,0.9327883776363324,0.0,wait_cost,1,5,169.27374810003676,None,iz8,1,2022-04-21_11h28.55.000,threat_forest,2021.2.3,59.73929775023638,
2,0,2,0,2,0,2,0,,,,,,,,,,left,0.5919516000431031,177.65770799992606,iz8,160.7468288000673,164.25679020001553,177.65770799992606,None,False,5,['p'],False,0.2592592592592592,0.3333333333333333,0.2222222222222222,2.0,2.0,0.9327883776363324,0.0,wait_cost,1,4,174.4569081000518,None,iz8,1,2022-04-21_11h28.55.000,threat_forest,2021.2.3,59.73929775023638,
2,0,2,0,3,0,3,0,,,,,,,,,,right,0.7311717998236418,182.84078540001065,iz8,160.7468288000673,164.25679020001553,182.84078540001065,None,True,4,['p'],False,0.2592592592592592,0.3333333333333333,0.2222222222222222,2.0,2.0,0.9327883776363324,0.0,succ_gain,1,6,180.27377910003997,None,iz8,1,2022-04-21_11h28.55.000,threat_forest,2021.2.3,59.73929775023638,
2,0,2,0,4,0,4,0,,,,,,,,,,left,0.42985059996135533,189.10795570001937,iz8,160.7468288000673,164.25679020001553,189.10795570001937,None,False,6,['p'],False,0.2592592592592592,0.3333333333333333,0.2222222222222222,2.0,2.0,0.9327883776363324,0.0,wait_cost,1,5,185.59057660005055,None,iz8,1,2022-04-21_11h28.55.000,threat_forest,2021.2.3,59.73929775023638,
2,0,2,0,5,0,5,0,,,,,,,,,,right,0.546146199805662,194.07550520007499,iz8,194.07550520007499,None,189.55757929990068,191.55717419995926,False,5,['p'],True,0.4444444444444445,0.6666666666666666,0.3333333333333333,1.0,2.0,0.9656336071428248,0.0,wait_cost,0,4,191.55717419995926,None,iz8,1,2022-04-21_11h28.55.000,threat_forest,2021.2.3,59.73929775023638,
2,0,2,0,6,0,6,0,,,,,,,,,,left,0.4508133002091199,199.79145579994656,iz8,194.64088169997558,196.64057889999822,199.79145579994656,None,False,4,['p'],False,0.2592592592592592,0.3333333333333333,0.2222222222222222,2.0,2.0,0.9327883776363324,0.0,wait_cost,1,3,196.64057889999822,None,iz8,1,2022-04-21_11h28.55.000,threat_forest,2021.2.3,59.73929775023638,
2,0,2,0,7,0,7,0,,,,,,,,,,left,0.6507894000969827,203.10797129990533,iz8,194.64088169997558,196.64057889999822,203.10797129990533,None,False,3,['p'],False,0.2592592592592592,0.3333333333333333,0.2222222222222222,2.0,2.0,0.9327883776363324,-0.2222222222222222,wait_cost,1,2,202.27400079998188,None,iz8,1,2022-04-21_11h28.55.000,threat_forest,2021.2.3,59.73929775023638,
2,0,2,0,,,,,,,,,,,,,,,,,,,,,,,,,,,,,,,,,,,,205.7907763000112,None,iz8,1,2022-04-21_11h28.55.000,threat_forest,2021.2.3,59.73929775023638,
3,0,3,0,0,0,0,0,,,,,,,207.88418149994686,211.39082690002397,None,left,1.4330546997953206,212.4415249999147,iz8,212.4415249999147,None,207.88418149994686,211.39082690002397,True,4,['p'],True,0.32,0.4,0.2,1.0,2.0,0.9455672104350704,0.0,unsucc_cost,0,2,,,iz8,1,2022-04-21_11h28.55.000,threat_forest,2021.2.3,59.73929775023638,
3,0,3,0,1,0,1,0,,,,,,,,,,right,0.6536755000706762,218.39360180008225,iz8,213.89106049994007,215.89101250004023,218.39360180008225,None,True,2,['p'],False,0.1975308641975308,0.2222222222222222,0.1111111111111111,1.0,2.0,0.7461067557824965,-0.8024691358024691,succ_gain,1,4,215.89101250004023,None,iz8,1,2022-04-21_11h28.55.000,threat_forest,2021.2.3,59.73929775023638,
3,0,3,0,2,0,2,0,,,,,,,,,,right,0.8712067001033574,224.24161410005763,iz8,213.89106049994007,215.89101250004023,224.24161410005763,None,True,4,['p'],False,0.1975308641975308,0.2222222222222222,0.1111111111111111,1.0,2.0,0.7461067557824965,0.0,succ_gain,1,6,221.07428420009091,None,iz8,1,2022-04-21_11h28.55.000,threat_forest,2021.2.3,59.73929775023638,
3,0,3,0,3,0,3,0,,,,,,,,,,right,1.1323024001903832,229.89146830001846,iz8,229.89146830001846,None,225.1412623000797,227.14107319992036,False,6,['p'],True,0.32,0.4,0.2,1.0,2.0,0.9455672104350704,0.0,wait_cost,0,5,227.14107319992036,None,iz8,1,2022-04-21_11h28.55.000,threat_forest,2021.2.3,59.73929775023638,
3,0,3,0,4,0,4,0,,,,,,,,,,left,0.9336978001520038,236.61050139996223,iz8,231.041357900016,233.04108390002511,236.61050139996223,None,False,5,['p'],False,0.1975308641975308,0.2222222222222222,0.1111111111111111,1.0,2.0,0.7461067557824965,0.0,wait_cost,1,4,233.04108390002511,None,iz8,1,2022-04-21_11h28.55.000,threat_forest,2021.2.3,59.73929775023638,
3,0,3,0,5,0,5,0,,,,,,,,,,left,1.522728299954906,242.47513949987479,iz8,231.041357900016,233.04108390002511,242.47513949987479,None,False,4,['p'],False,0.1975308641975308,0.2222222222222222,0.1111111111111111,1.0,2.0,0.7461067557824965,0.0,wait_cost,1,3,239.57456659991294,None,iz8,1,2022-04-21_11h28.55.000,threat_forest,2021.2.3,59.73929775023638,
3,0,3,0,6,0,6,0,,,,,,,,,,right,0.7106654001399875,248.37519069993868,iz8,248.37519069993868,None,244.02485909988172,246.02457350003533,False,3,['p'],True,0.32,0.4,0.2,1.0,2.0,0.9455672104350704,-0.2,wait_cost,0,2,246.02457350003533,None,iz8,1,2022-04-21_11h28.55.000,threat_forest,2021.2.3,59.73929775023638,
3,0,3,0,7,0,7,0,,,,,,,,,,right,0.62640820001252,254.87515669991262,iz8,254.87515669991262,None,244.02485909988172,246.02457350003533,False,2,['p'],True,0.32,0.4,0.2,1.0,2.0,0.9455672104350704,-0.6799999999999999,wait_cost,0,1,251.1081141999457,None,iz8,1,2022-04-21_11h28.55.000,threat_forest,2021.2.3,59.73929775023638,
3,0,3,0,,,,,,,,,,,,,,,,,,,,,,,,,,,,,,,,,,,,257.52476570010185,None,iz8,1,2022-04-21_11h28.55.000,threat_forest,2021.2.3,59.73929775023638,
4,0,4,0,0,0,0,0,,,,,,,258.7325641999487,262.24158759997226,None,right,1.0336812001187354,263.2604151000269,iz8,258.7325641999487,262.24158759997226,263.2604151000269,None,True,5,['p'],False,0.1975308641975308,0.2222222222222222,0.1111111111111111,1.0,1.0,0.7461067557824965,0.0,unsucc_cost,1,3,,,iz8,1,2022-04-21_11h28.55.000,threat_forest,2021.2.3,59.73929775023638,
4,0,4,0,1,0,1,0,,,,,,,,,,right,0.6337171997874975,268.50859940005466,iz8,258.7325641999487,262.24158759997226,268.50859940005466,None,True,3,['p'],False,0.1975308641975308,0.2222222222222222,0.1111111111111111,1.0,1.0,0.7461067557824965,-0.1111111111111111,unsucc_cost,1,1,266.32497849990614,None,iz8,1,2022-04-21_11h28.55.000,threat_forest,2021.2.3,59.73929775023638,
4,0,4,0,2,0,2,0,,,,,,,,,,right,0.8041088001336902,274.3586538999807,iz8,258.7325641999487,262.24158759997226,274.3586538999807,None,True,1,['p'],False,0.1975308641975308,0.2222222222222222,0.1111111111111111,1.0,1.0,0.7461067557824965,0.1975308641975308,succ_gain,1,2,271.1583682000637,None,iz8,1,2022-04-21_11h28.55.000,threat_forest,2021.2.3,59.73929775023638,
4,0,4,0,3,0,3,0,,,,,,,,,,right,1.2993634000886232,280.3426940999925,iz8,280.3426940999925,None,275.1920541001018,277.1917594000697,False,2,['p'],True,0.32,0.4,0.2,1.0,1.0,0.9455672104350704,-0.6799999999999999,wait_cost,0,1,277.1917594000697,None,iz8,1,2022-04-21_11h28.55.000,threat_forest,2021.2.3,59.73929775023638,
4,0,4,0,4,0,4,0,,,,,,,,,,right,0.6871931001078337,285.07983920001425,iz8,281.6593631999567,283.65865210001357,285.07983920001425,None,True,1,['p'],False,0.1975308641975308,0.2222222222222222,0.1111111111111111,1.0,1.0,0.7461067557824965,0.1975308641975308,unsucc_cost,1,0,283.65865210001357,None,iz8,1,2022-04-21_11h28.55.000,threat_forest,2021.2.3,59.73929775023638,
4,0,4,0,,,,,,,,,,,,,,,,,,,,,,,,,,,,,,,,,,,,287.79205869999714,None,iz8,1,2022-04-21_11h28.55.000,threat_forest,2021.2.3,59.73929775023638,
5,0,5,0,0,0,0,0,,,,,,,291.2997121999506,294.80864199995995,None,right,0.8766691000200808,295.4799929999281,iz8,291.2997121999506,294.80864199995995,295.4799929999281,None,True,5,['p'],False,0.27,0.3,0.1,1.0,2.0,0.7963326591781347,0.0,succ_gain,1,6,,,iz8,1,2022-04-21_11h28.55.000,threat_forest,2021.2.3,59.73929775023638,
5,0,5,0,1,0,1,0,,,,,,,,,,right,1.3249135999940336,301.6594479000196,iz8,301.6594479000196,None,296.3757038998883,298.3754886998795,False,6,['p'],True,0.4444444444444445,0.6666666666666666,0.3333333333333333,1.0,2.0,0.9656336071428248,0.0,wait_cost,0,5,298.3754886998795,None,iz8,1,2022-04-21_11h28.55.000,threat_forest,2021.2.3,59.73929775023638,
5,0,5,0,2,0,2,0,,,,,,,,,,right,0.6398167000152171,308.55917369993404,iz8,308.55917369993404,None,296.3757038998883,298.3754886998795,False,5,['p'],True,0.4444444444444445,0.6666666666666666,0.3333333333333333,1.0,2.0,0.9656336071428248,0.0,wait_cost,0,4,305.00897790002637,None,iz8,1,2022-04-21_11h28.55.000,threat_forest,2021.2.3,59.73929775023638,
5,0,5,0,3,0,3,0,,,,,,,,,,right,0.7522021001204848,314.04288890003227,iz8,314.04288890003227,None,296.3757038998883,298.3754886998795,False,4,['p'],True,0.4444444444444445,0.6666666666666666,0.3333333333333333,1.0,2.0,0.9656336071428248,0.0,wait_cost,0,3,311.22561209998094,None,iz8,1,2022-04-21_11h28.55.000,threat_forest,2021.2.3,59.73929775023638,
5,0,5,0,4,0,4,0,,,,,,,,,,left,0.8016413999721408,317.55964690004475,iz8,317.55964690004475,None,296.3757038998883,298.3754886998795,True,3,['p'],True,0.4444444444444445,0.6666666666666666,0.3333333333333333,1.0,2.0,0.9656336071428248,-0.3333333333333333,figh_cost,0,0,316.82572060008533,None,iz8,1,2022-04-21_11h28.55.000,threat_forest,2021.2.3,59.73929775023638,
5,0,5,0,,,,,,,,,,,,,,,,,,,,,,,,,,,,,,,,,,,,320.3926126998849,None,iz8,1,2022-04-21_11h28.55.000,threat_forest,2021.2.3,59.73929775023638,
6,0,6,0,0,0,0,0,,,,,,,323.0138783999719,326.5258690000046,None,right,1.9883894000668079,327.0762686000671,iz8,327.0762686000671,None,323.0138783999719,326.5258690000046,False,5,['r'],True,0.5,0.5,0.0,0.0,1.0,0.6309297535714574,0.0,wait_cost,0,4,,,iz8,1,2022-04-21_11h28.55.000,threat_forest,2021.2.3,59.73929775023638,
6,0,6,0,1,0,1,0,,,,,,,,,,right,0.8892055000178516,333.34342799987644,iz8,329.09482620004565,331.1092926999554,333.34342799987644,None,True,4,['r'],False,0.36,0.6,0.4,2.0,1.0,0.9801625908629508,0.0,succ_gain,1,5,331.1092926999554,None,iz8,1,2022-04-21_11h28.55.000,threat_forest,2021.2.3,59.73929775023638,
6,0,6,0,2,0,2,0,,,,,,,,,,right,0.7725919999647886,337.8931225000415,iz8,337.8931225000415,None,334.25975230010226,336.2621917000506,False,5,['r'],True,0.5,0.5,0.0,0.0,1.0,0.6309297535714574,0.0,wait_cost,0,4,336.2621917000506,None,iz8,1,2022-04-21_11h28.55.000,threat_forest,2021.2.3,59.73929775023638,
6,0,6,0,3,0,3,0,,,,,,,,,,right,0.6099056000821292,343.87641620007344,iz8,343.87641620007344,None,334.25975230010226,336.2621917000506,False,4,['r'],True,0.5,0.5,0.0,0.0,1.0,0.6309297535714574,0.0,wait_cost,0,3,340.69281979999505,None,iz8,1,2022-04-21_11h28.55.000,threat_forest,2021.2.3,59.73929775023638,
6,0,6,0,4,0,4,0,,,,,,,,,,right,0.642271899851039,350.27804809994996,iz8,350.27804809994996,None,334.25975230010226,336.2621917000506,False,3,['r'],True,0.5,0.5,0.0,0.0,1.0,0.6309297535714574,0.0,wait_cost,0,2,346.509491099976,None,iz8,1,2022-04-21_11h28.55.000,threat_forest,2021.2.3,59.73929775023638,
6,0,6,0,5,0,5,0,,,,,,,,,,right,0.5957337999716401,356.60997819993645,iz8,356.60997819993645,None,334.25975230010226,336.2621917000506,False,2,['r'],True,0.5,0.5,0.0,0.0,1.0,0.6309297535714574,-0.5,wait_cost,0,1,352.943046499975,None,iz8,1,2022-04-21_11h28.55.000,threat_forest,2021.2.3,59.73929775023638,
6,0,6,0,6,0,6,0,,,,,,,,,,right,0.6626391999889165,360.0435919999145,iz8,357.2266935000662,359.2263235000428,360.0435919999145,None,True,1,['r'],False,0.36,0.6,0.4,2.0,1.0,0.9801625908629508,0.36,succ_gain,1,2,359.2263235000428,None,iz8,1,2022-04-21_11h28.55.000,threat_forest,2021.2.3,59.73929775023638,
6,0,6,0,7,0,7,0,,,,,,,,,,right,0.6325083000119776,364.9768395998981,iz8,364.9768395998981,None,360.7267114999704,362.7263996999245,False,2,['r'],True,0.5,0.5,0.0,0.0,1.0,0.6309297535714574,-0.5,wait_cost,0,1,362.7263996999245,None,iz8,1,2022-04-21_11h28.55.000,threat_forest,2021.2.3,59.73929775023638,
6,0,6,0,,,,,,,,,,,,,,,,,,,,,,,,,,,,,,,,,,,,367.62652410008013,None,iz8,1,2022-04-21_11h28.55.000,threat_forest,2021.2.3,59.73929775023638,
7,0,7,0,0,0,0,0,,,,,,,369.66801310004666,373.17657390004024,None,right,1.1925291998777539,375.87843629997224,iz8,375.87843629997224,None,369.66801310004666,373.17657390004024,False,4,['r'],True,0.6,0.6,0.0,0.0,1.0,0.6126016192893442,0.0,wait_cost,0,3,,,iz8,1,2022-04-21_11h28.55.000,threat_forest,2021.2.3,59.73929775023638,
7,0,7,0,1,0,1,0,,,,,,,,,,right,0.7471984000876546,380.3439146000892,iz8,377.0935649999883,379.09332760004327,380.3439146000892,None,True,3,['r'],False,0.46875,0.625,0.25,2.0,1.0,0.9634951148421658,-0.25,unsucc_cost,1,1,379.09332760004327,None,iz8,1,2022-04-21_11h28.55.000,threat_forest,2021.2.3,59.73929775023638,
7,0,7,0,2,0,2,0,,,,,,,,,,right,0.580264899879694,385.5940960000735,iz8,377.0935649999883,379.09332760004327,385.5940960000735,None,True,1,['r'],False,0.46875,0.625,0.25,2.0,1.0,0.9634951148421658,0.46875,unsucc_cost,1,0,383.1100626999978,None,iz8,1,2022-04-21_11h28.55.000,threat_forest,2021.2.3,59.73929775023638,
7,0,7,0,,,,,,,,,,,,,,,,,,,,,,,,,,,,,,,,,,,,388.1935701998882,None,iz8,1,2022-04-21_11h28.55.000,threat_forest,2021.2.3,59.73929775023638,
8,0,8,0,0,0,0,0,,,,,,,390.9704934998881,394.4768948999699,None,right,0.9599868000950664,396.9941835999489,iz8,390.9704934998881,394.4768948999699,396.9941835999489,None,True,4,['p'],False,0.27,0.3,0.1,1.0,1.0,0.7963326591781347,0.0,figh_cost,1,1,,,iz8,1,2022-04-21_11h28.55.000,threat_forest,2021.2.3,59.73929775023638,
8,0,8,0,1,0,1,0,,,,,,,,,,right,0.9493131001945585,400.6108951000497,iz8,390.9704934998881,394.4768948999699,400.6108951000497,None,True,1,['p'],False,0.27,0.3,0.1,1.0,1.0,0.7963326591781347,0.27,succ_gain,1,2,399.9769643000327,None,iz8,1,2022-04-21_11h28.55.000,threat_forest,2021.2.3,59.73929775023638,
8,0,8,0,2,0,2,0,,,,,,,,,,right,1.0031519001349807,404.96121890004724,iz8,404.96121890004724,None,401.57747259992175,403.57703489996493,False,2,['p'],True,0.4166666666666667,0.5,0.1666666666666666,1.0,1.0,0.9358932809493992,-0.5833333333333333,wait_cost,0,1,403.57703489996493,None,iz8,1,2022-04-21_11h28.55.000,threat_forest,2021.2.3,59.73929775023638,
8,0,8,0,3,0,3,0,,,,,,,,,,right,1.248281099833548,408.9107528999448,iz8,405.9940176999662,407.9938819000963,408.9107528999448,None,True,1,['p'],False,0.27,0.3,0.1,1.0,1.0,0.7963326591781347,0.27,unsucc_cost,1,0,407.9938819000963,None,iz8,1,2022-04-21_11h28.55.000,threat_forest,2021.2.3,59.73929775023638,
8,0,8,0,,,,,,,,,,,,,,,,,,,,,,,,,,,,,,,,,,,,412.17722660000436,None,iz8,1,2022-04-21_11h28.55.000,threat_forest,2021.2.3,59.73929775023638,
9,0,9,0,0,0,0,0,,,,,,,414.7994609999005,418.31056379992515,None,right,1.1920044999569654,419.8122658999637,iz8,419.8122658999637,None,414.7994609999005,418.31056379992515,False,4,['p'],True,0.4444444444444445,0.6666666666666666,0.3333333333333333,1.0,2.0,0.9656336071428248,0.0,wait_cost,0,3,,,iz8,1,2022-04-21_11h28.55.000,threat_forest,2021.2.3,59.73929775023638,
9,0,9,0,1,0,1,0,,,,,,,,,,right,0.7187161999754608,423.994696599897,iz8,421.0277265000623,423.027305399999,423.994696599897,None,True,3,['p'],False,0.2040816326530612,0.2857142857142857,0.2857142857142857,2.0,2.0,0.9335459102197724,-0.2857142857142857,succ_gain,1,5,423.027305399999,None,iz8,1,2022-04-21_11h28.55.000,threat_forest,2021.2.3,59.73929775023638,
9,0,9,0,2,0,2,0,,,,,,,,,,left,1.3884455000516027,430.1279036998749,iz8,421.0277265000623,423.027305399999,430.1279036998749,None,False,5,['p'],False,0.2040816326530612,0.2857142857142857,0.2857142857142857,2.0,2.0,0.9335459102197724,0.0,wait_cost,1,4,426.7440098999068,None,iz8,1,2022-04-21_11h28.55.000,threat_forest,2021.2.3,59.73929775023638,
9,0,9,0,3,0,3,0,,,,,,,,,,right,0.5331778000108898,436.34491099999286,iz8,421.0277265000623,423.027305399999,436.34491099999286,None,True,4,['p'],False,0.2040816326530612,0.2857142857142857,0.2857142857142857,2.0,2.0,0.9335459102197724,0.0,figh_cost,1,1,433.54416979989037,None,iz8,1,2022-04-21_11h28.55.000,threat_forest,2021.2.3,59.73929775023638,
9,0,9,0,4,0,4,0,,,,,,,,,,right,0.8374164998531342,440.21125670010224,iz8,440.21125670010224,None,436.9115907000378,438.9108557999134,False,1,['p'],True,0.4444444444444445,0.6666666666666666,0.3333333333333333,1.0,2.0,0.9656336071428248,0.4444444444444444,wait_cost,0,0,438.9108557999134,None,iz8,1,2022-04-21_11h28.55.000,threat_forest,2021.2.3,59.73929775023638,
9,0,9,0,,,,,,,,,,,,,,,,,,,,,,,,,,,,,,,,,,,,443.07763449987397,None,iz8,1,2022-04-21_11h28.55.000,threat_forest,2021.2.3,59.73929775023638,
10,0,10,0,0,0,0,0,,,,,,,444.27308549988084,447.77784579992294,None,left,1.5047526000998914,451.06443280004896,iz8,451.06443280004896,None,444.27308549988084,447.77784579992294,True,5,['r'],True,0.5714285714285714,0.5714285714285714,0.0,0.0,2.0,0.6216097450797566,0.0,unsucc_cost,0,3,,,iz8,1,2022-04-21_11h28.55.000,threat_forest,2021.2.3,59.73929775023638,
10,0,10,0,1,0,1,0,,,,,,,,,,right,0.8365785998757929,456.21146179991774,iz8,452.5947374999523,454.5943899000995,456.21146179991774,None,True,3,['r'],False,0.46875,0.625,0.25,2.0,2.0,0.9634951148421658,-0.25,unsucc_cost,1,1,454.5943899000995,None,iz8,1,2022-04-21_11h28.55.000,threat_forest,2021.2.3,59.73929775023638,
10,0,10,0,2,0,2,0,,,,,,,,,,left,0.5489686999935657,461.5616776999086,iz8,461.5616776999086,None,457.0781914999243,459.07785840006545,True,1,['r'],True,0.5714285714285714,0.5714285714285714,0.0,0.0,2.0,0.6216097450797566,0.5714285714285714,succ_gain,0,3,459.07785840006545,None,iz8,1,2022-04-21_11h28.55.000,threat_forest,2021.2.3,59.73929775023638,
10,0,10,0,3,0,3,0,,,,,,,,,,right,1.028047899948433,464.7286862998735,iz8,462.1281616000924,464.1279462999664,464.7286862998735,None,True,3,['r'],False,0.46875,0.625,0.25,2.0,2.0,0.9634951148421658,-0.25,unsucc_cost,1,1,464.1279462999664,None,iz8,1,2022-04-21_11h28.55.000,threat_forest,2021.2.3,59.73929775023638,
10,0,10,0,4,0,4,0,,,,,,,,,,left,0.9853558999020606,468.56189140002243,iz8,468.56189140002243,None,465.77818239992484,467.77803419996053,True,1,['r'],True,0.5714285714285714,0.5714285714285714,0.0,0.0,2.0,0.6216097450797566,0.5714285714285714,succ_gain,0,3,467.77803419996053,None,iz8,1,2022-04-21_11h28.55.000,threat_forest,2021.2.3,59.73929775023638,
10,0,10,0,5,0,5,0,,,,,,,,,,right,0.549323899904266,472.8783154000994,iz8,469.5783216999844,471.57802679995075,472.8783154000994,None,True,3,['r'],False,0.46875,0.625,0.25,2.0,2.0,0.9634951148421658,-0.25,unsucc_cost,1,1,471.57802679995075,None,iz8,1,2022-04-21_11h28.55.000,threat_forest,2021.2.3,59.73929775023638,
10,0,10,0,6,0,6,0,,,,,,,,,,right,0.7442866000346839,477.361756300088,iz8,469.5783216999844,471.57802679995075,477.361756300088,None,True,1,['r'],False,0.46875,0.625,0.25,2.0,2.0,0.9634951148421658,0.46875,succ_gain,1,3,475.4447450998705,None,iz8,1,2022-04-21_11h28.55.000,threat_forest,2021.2.3,59.73929775023638,
10,0,10,0,7,0,7,0,,,,,,,,,,right,0.3996730998624116,481.2973676000256,iz8,481.2973676000256,None,478.128578200005,480.1281888000667,False,3,['r'],True,0.5714285714285714,0.5714285714285714,0.0,0.0,2.0,0.6216097450797566,0.0,wait_cost,0,2,480.1281888000667,None,iz8,1,2022-04-21_11h28.55.000,threat_forest,2021.2.3,59.73929775023638,
10,0,10,0,,,,,,,,,,,,,,,,,,,,,,,,,,,,,,,,,,,,483.72824979992583,None,iz8,1,2022-04-21_11h28.55.000,threat_forest,2021.2.3,59.73929775023638,
11,0,11,0,0,0,0,0,,,,,,,486.01804580003954,489.52833399991505,None,left,1.2352887999732047,490.9455802999437,iz8,490.9455802999437,None,486.01804580003954,489.52833399991505,True,4,['r'],True,0.3333333333333333,0.3333333333333333,0.0,0.0,2.0,0.5793801642856949,0.0,figh_cost,0,1,,,iz8,1,2022-04-21_11h28.55.000,threat_forest,2021.2.3,59.73929775023638,
11,0,11,0,1,0,1,0,,,,,,,,,,left,1.3630812000483274,495.16196119994856,iz8,495.16196119994856,None,486.01804580003954,489.52833399991505,True,1,['r'],True,0.3333333333333333,0.3333333333333333,0.0,0.0,2.0,0.5793801642856949,0.3333333333333332,succ_gain,0,3,494.2116765999235,None,iz8,1,2022-04-21_11h28.55.000,threat_forest,2021.2.3,59.73929775023638,
11,0,11,0,2,0,2,0,,,,,,,,,,right,1.4793772001285106,499.77880620001815,iz8,496.54534989991225,498.5451164999977,499.77880620001815,None,True,3,['r'],False,0.24,0.4,0.4,2.0,2.0,0.9801625908629508,-0.4,unsucc_cost,1,1,498.5451164999977,None,iz8,1,2022-04-21_11h28.55.000,threat_forest,2021.2.3,59.73929775023638,
11,0,11,0,3,0,3,0,,,,,,,,,,right,0.8679039999842644,505.02873010002077,iz8,496.54534989991225,498.5451164999977,505.02873010002077,None,True,1,['r'],False,0.24,0.4,0.4,2.0,2.0,0.9801625908629508,0.24,unsucc_cost,1,0,503.2785887999926,None,iz8,1,2022-04-21_11h28.55.000,threat_forest,2021.2.3,59.73929775023638,
11,0,11,0,,,,,,,,,,,,,,,,,,,,,,,,,,,,,,,,,,,,507.92880479991436,None,iz8,1,2022-04-21_11h28.55.000,threat_forest,2021.2.3,59.73929775023638,
12,0,12,0,0,0,0,0,,,,,,,509.19743339996785,512.7119581999723,None,right,1.2186386999674141,513.545923900092,iz8,513.545923900092,None,509.19743339996785,512.7119581999723,False,4,['r'],True,0.25,0.25,0.0,0.0,2.0,0.5118595071429148,0.0,wait_cost,0,3,,,iz8,1,2022-04-21_11h28.55.000,threat_forest,2021.2.3,59.73929775023638,
12,0,12,0,1,0,1,0,,,,,,,,,,right,0.8586607000324875,517.8959905998781,iz8,517.8959905998781,None,509.19743339996785,512.7119581999723,False,3,['r'],True,0.25,0.25,0.0,0.0,2.0,0.5118595071429148,0.0,wait_cost,0,2,516.7953530999366,None,iz8,1,2022-04-21_11h28.55.000,threat_forest,2021.2.3,59.73929775023638,
12,0,12,0,2,0,2,0,,,,,,,,,,left,1.510842900024727,522.9796458999626,iz8,522.9796458999626,None,509.19743339996785,512.7119581999723,True,2,['r'],True,0.25,0.25,0.0,0.0,2.0,0.5118595071429148,-0.75,unsucc_cost,0,0,520.7787591998931,None,iz8,1,2022-04-21_11h28.55.000,threat_forest,2021.2.3,59.73929775023638,
12,0,12,0,,,,,,,,,,,,,,,,,,,,,,,,,,,,,,,,,,,,526.5124868999701,None,iz8,1,2022-04-21_11h28.55.000,threat_forest,2021.2.3,59.73929775023638,
13,0,13,0,0,0,0,0,,,,,,,528.264404400019,531.7788976999,None,right,1.0550098000094295,535.096117899986,iz8,535.096117899986,None,528.264404400019,531.7788976999,False,4,['r'],True,0.3333333333333333,0.3333333333333333,0.0,0.0,2.0,0.5793801642856949,0.0,wait_cost,0,3,,,iz8,1,2022-04-21_11h28.55.000,threat_forest,2021.2.3,59.73929775023638,
13,0,13,0,1,0,1,0,,,,,,,,,,right,0.6439195999410003,540.5295599999372,iz8,536.1792440998834,538.1792279998772,540.5295599999372,None,True,3,['r'],False,0.25,0.5,0.5,2.0,2.0,0.9463946303571862,-0.5,unsucc_cost,1,1,538.1792279998772,None,iz8,1,2022-04-21_11h28.55.000,threat_forest,2021.2.3,59.73929775023638,
13,0,13,0,2,0,2,0,,,,,,,,,,left,1.1969632001128048,546.8293566000648,iz8,546.8293566000648,None,541.1959734999109,543.1957739999052,True,1,['r'],True,0.3333333333333333,0.3333333333333333,0.0,0.0,2.0,0.5793801642856949,0.3333333333333332,figh_cost,0,0,543.1957739999052,None,iz8,1,2022-04-21_11h28.55.000,threat_forest,2021.2.3,59.73929775023638,
13,0,13,0,,,,,,,,,,,,,,,,,,,,,,,,,,,,,,,,,,,,550.0460870999377,None,iz8,1,2022-04-21_11h28.55.000,threat_forest,2021.2.3,59.73929775023638,
14,0,14,0,0,0,0,0,,,,,,,551.2298864000477,554.729257900035,None,right,1.2559233999345452,558.2966201000381,iz8,558.2966201000381,None,551.2298864000477,554.729257900035,False,5,['r'],True,0.4,0.4,0.0,0.0,1.0,0.6126016192893442,0.0,wait_cost,0,4,,,iz8,1,2022-04-21_11h28.55.000,threat_forest,2021.2.3,59.73929775023638,
14,0,14,0,1,0,1,0,,,,,,,,,,left,1.4514830999542028,563.8316011999268,iz8,559.5795247999486,561.5793296999764,563.8316011999268,None,False,4,['r'],False,0.3061224489795918,0.4285714285714285,0.2857142857142857,2.0,1.0,0.9885754083994552,0.0,wait_cost,1,3,561.5793296999764,None,iz8,1,2022-04-21_11h28.55.000,threat_forest,2021.2.3,59.73929775023638,
14,0,14,0,2,0,2,0,,,,,,,,,,left,0.6594704000744969,570.1297102998942,iz8,559.5795247999486,561.5793296999764,570.1297102998942,None,False,3,['r'],False,0.3061224489795918,0.4285714285714285,0.2857142857142857,2.0,1.0,0.9885754083994552,-0.2857142857142857,wait_cost,1,2,567.3127055999357,None,iz8,1,2022-04-21_11h28.55.000,threat_forest,2021.2.3,59.73929775023638,
14,0,14,0,3,0,3,0,,,,,,,,,,left,0.7685373001731932,576.129954099888,iz8,576.129954099888,None,570.8130675000139,572.812838899903,True,2,['r'],True,0.4,0.4,0.0,0.0,1.0,0.6126016192893442,-0.6,succ_gain,0,3,572.812838899903,None,iz8,1,2022-04-21_11h28.55.000,threat_forest,2021.2.3,59.73929775023638,
14,0,14,0,4,0,4,0,,,,,,,,,,right,1.726691799936816,580.2638306000736,iz8,580.2638306000736,None,570.8130675000139,572.812838899903,False,3,['r'],True,0.4,0.4,0.0,0.0,1.0,0.6126016192893442,0.0,wait_cost,0,2,578.9297086000443,None,iz8,1,2022-04-21_11h28.55.000,threat_forest,2021.2.3,59.73929775023638,
14,0,14,0,5,0,5,0,,,,,,,,,,left,1.080656300066039,586.096604899969,iz8,582.0131824999116,584.0130463000387,586.096604899969,None,False,2,['r'],False,0.3061224489795918,0.4285714285714285,0.2857142857142857,2.0,1.0,0.9885754083994552,-0.6938775510204083,wait_cost,1,1,584.0130463000387,None,iz8,1,2022-04-21_11h28.55.000,threat_forest,2021.2.3,59.73929775023638,
14,0,14,0,6,0,6,0,,,,,,,,,,left,0.6048697999212891,592.5970733999275,iz8,592.5970733999275,None,587.1967785998713,589.1963664998766,True,1,['r'],True,0.4,0.4,0.0,0.0,1.0,0.6126016192893442,0.4,succ_gain,0,2,589.1963664998766,None,iz8,1,2022-04-21_11h28.55.000,threat_forest,2021.2.3,59.73929775023638,
14,0,14,0,7,0,7,0,,,,,,,,,,right,0.8049581998493522,598.9305612999015,iz8,598.9305612999015,None,587.1967785998713,589.1963664998766,False,2,['r'],True,0.4,0.4,0.0,0.0,1.0,0.6126016192893442,-0.6,wait_cost,0,1,595.2300026998855,None,iz8,1,2022-04-21_11h28.55.000,threat_forest,2021.2.3,59.73929775023638,
14,0,14,0,,,,,,,,,,,,,,,,,,,,,,,,,,,,,,,,,,,,601.7633050000295,None,iz8,1,2022-04-21_11h28.55.000,threat_forest,2021.2.3,59.73929775023638,
15,0,15,0,0,0,0,0,,,,,,,604.0837820998859,607.5966878999025,None,right,0.9427893001120538,610.9968514998909,iz8,610.9968514998909,None,604.0837820998859,607.5966878999025,False,4,['r'],True,0.3333333333333333,0.3333333333333333,0.0,0.0,1.0,0.5793801642856949,0.0,wait_cost,0,3,,,iz8,1,2022-04-21_11h28.55.000,threat_forest,2021.2.3,59.73929775023638,
15,0,15,0,1,0,1,0,,,,,,,,,,right,1.1520467998925596,616.3135748999193,iz8,616.3135748999193,None,604.0837820998859,607.5966878999025,False,3,['r'],True,0.3333333333333333,0.3333333333333333,0.0,0.0,1.0,0.5793801642856949,0.0,wait_cost,0,2,613.9678903999738,None,iz8,1,2022-04-21_11h28.55.000,threat_forest,2021.2.3,59.73929775023638,
15,0,15,0,2,0,2,0,,,,,,,,,,right,1.4288013000041246,622.6303469999693,iz8,622.6303469999693,None,604.0837820998859,607.5966878999025,False,2,['r'],True,0.3333333333333333,0.3333333333333333,0.0,0.0,1.0,0.5793801642856949,-0.6666666666666667,wait_cost,0,1,619.4968181999866,None,iz8,1,2022-04-21_11h28.55.000,threat_forest,2021.2.3,59.73929775023638,
15,0,15,0,3,0,3,0,,,,,,,,,,left,0.6505638000089675,629.5137549000792,iz8,629.5137549000792,None,604.0837820998859,607.5966878999025,True,1,['r'],True,0.3333333333333333,0.3333333333333333,0.0,0.0,1.0,0.5793801642856949,0.3333333333333332,unsucc_cost,0,0,626.0837254999205,None,iz8,1,2022-04-21_11h28.55.000,threat_forest,2021.2.3,59.73929775023638,
15,0,15,0,,,,,,,,,,,,,,,,,,,,,,,,,,,,,,,,,,,,632.1804502999876,None,iz8,1,2022-04-21_11h28.55.000,threat_forest,2021.2.3,59.73929775023638,
16,0,16,0,0,0,0,0,,,,,,,634.0664580999874,637.5806376999244,None,right,1.1957093998789787,640.8145063999109,iz8,634.0664580999874,637.5806376999244,640.8145063999109,None,True,4,['r'],False,0.36,0.6,0.4,2.0,2.0,0.9801625908629508,0.0,figh_cost,1,1,,,iz8,1,2022-04-21_11h28.55.000,threat_forest,2021.2.3,59.73929775023638,
16,0,16,0,1,0,1,0,,,,,,,,,,left,0.6795500000007451,646.5478419999126,iz8,646.5478419999126,None,642.0309818999376,644.0305204000324,True,1,['r'],True,0.5,0.5,0.0,0.0,2.0,0.6309297535714574,0.5,succ_gain,0,3,644.0305204000324,None,iz8,1,2022-04-21_11h28.55.000,threat_forest,2021.2.3,59.73929775023638,
16,0,16,0,2,0,2,0,,,,,,,,,,left,1.1597821000032127,650.5812385000754,iz8,650.5812385000754,None,642.0309818999376,644.0305204000324,True,3,['r'],True,0.5,0.5,0.0,0.0,2.0,0.6309297535714574,0.0,succ_gain,0,5,649.2473631000612,None,iz8,1,2022-04-21_11h28.55.000,threat_forest,2021.2.3,59.73929775023638,
16,0,16,0,3,0,3,0,,,,,,,,,,right,1.264683699933812,656.5810889001004,iz8,656.5810889001004,None,642.0309818999376,644.0305204000324,False,5,['r'],True,0.5,0.5,0.0,0.0,2.0,0.6309297535714574,0.0,wait_cost,0,4,653.7643110000063,None,iz8,1,2022-04-21_11h28.55.000,threat_forest,2021.2.3,59.73929775023638,
16,0,16,0,4,0,4,0,,,,,,,,,,left,0.7362087999936193,661.5979714998975,iz8,661.5979714998975,None,642.0309818999376,644.0305204000324,True,4,['r'],True,0.5,0.5,0.0,0.0,2.0,0.6309297535714574,0.0,succ_gain,0,6,659.8641717999708,None,iz8,1,2022-04-21_11h28.55.000,threat_forest,2021.2.3,59.73929775023638,
16,0,16,0,5,0,5,0,,,,,,,,,,left,0.8867288001347333,667.8312480999157,iz8,662.3645246999804,664.3642907999456,667.8312480999157,None,False,6,['r'],False,0.36,0.6,0.4,2.0,2.0,0.9801625908629508,0.0,wait_cost,1,5,664.3642907999456,None,iz8,1,2022-04-21_11h28.55.000,threat_forest,2021.2.3,59.73929775023638,
16,0,16,0,6,0,6,0,,,,,,,,,,left,0.5312306000851095,672.2814366999082,iz8,662.3645246999804,664.3642907999456,672.2814366999082,None,False,5,['r'],False,0.36,0.6,0.4,2.0,2.0,0.9801625908629508,0.0,wait_cost,1,4,670.7476917000022,None,iz8,1,2022-04-21_11h28.55.000,threat_forest,2021.2.3,59.73929775023638,
16,0,16,0,7,0,7,0,,,,,,,,,,right,0.8871335999574512,677.2318724000361,iz8,677.2318724000361,None,672.8314960000571,674.8310374000575,False,4,['r'],True,0.5,0.5,0.0,0.0,2.0,0.6309297535714574,0.0,wait_cost,0,3,674.8310374000575,None,iz8,1,2022-04-21_11h28.55.000,threat_forest,2021.2.3,59.73929775023638,
16,0,16,0,,,,,,,,,,,,,,,,,,,,,,,,,,,,,,,,,,,,680.1479348000139,None,iz8,1,2022-04-21_11h28.55.000,threat_forest,2021.2.3,59.73929775023638,
17,0,17,0,0,0,0,0,,,,,,,682.7071553000715,686.2145430999808,None,left,0.9197218997869641,687.1991759000812,iz8,682.7071553000715,686.2145430999808,687.1991759000812,None,False,4,['r'],False,0.345679012345679,0.4444444444444444,0.2222222222222222,2.0,2.0,0.9685033186841367,0.0,wait_cost,1,3,,,iz8,1,2022-04-21_11h28.55.000,threat_forest,2021.2.3,59.73929775023638,
17,0,17,0,1,0,1,0,,,,,,,,,,left,1.1680599001701921,691.8484970000573,iz8,691.8484970000573,None,688.1483448999934,690.1479583000764,True,3,['r'],True,0.4285714285714285,0.4285714285714285,0.0,0.0,2.0,0.6216097450797565,0.0,succ_gain,0,5,690.1479583000764,None,iz8,1,2022-04-21_11h28.55.000,threat_forest,2021.2.3,59.73929775023638,
17,0,17,0,2,0,2,0,,,,,,,,,,right,0.8916653001215309,696.4649849999696,iz8,696.4649849999696,None,688.1483448999934,690.1479583000764,False,5,['r'],True,0.4285714285714285,0.4285714285714285,0.0,0.0,2.0,0.6216097450797565,0.0,wait_cost,0,4,695.0480851999018,None,iz8,1,2022-04-21_11h28.55.000,threat_forest,2021.2.3,59.73929775023638,
17,0,17,0,3,0,3,0,,,,,,,,,,left,0.8610205999575555,700.3150192000903,iz8,700.3150192000903,None,688.1483448999934,690.1479583000764,True,4,['r'],True,0.4285714285714285,0.4285714285714285,0.0,0.0,2.0,0.6216097450797565,0.0,succ_gain,0,6,699.3814395000227,None,iz8,1,2022-04-21_11h28.55.000,threat_forest,2021.2.3,59.73929775023638,
17,0,17,0,4,0,4,0,,,,,,,,,,left,0.6488781999796629,705.7349606000353,iz8,701.1983807000797,703.1981575998943,705.7349606000353,None,False,6,['r'],False,0.345679012345679,0.4444444444444444,0.2222222222222222,2.0,2.0,0.9685033186841367,0.0,wait_cost,1,5,703.1981575998943,None,iz8,1,2022-04-21_11h28.55.000,threat_forest,2021.2.3,59.73929775023638,
17,0,17,0,5,0,5,0,,,,,,,,,,right,0.5670535999815911,711.781930499943,iz8,711.781930499943,None,706.4151772998739,708.4147960999981,False,5,['r'],True,0.4285714285714285,0.4285714285714285,0.0,0.0,2.0,0.6216097450797565,0.0,wait_cost,0,4,708.4147960999981,None,iz8,1,2022-04-21_11h28.55.000,threat_forest,2021.2.3,59.73929775023638,
17,0,17,0,6,0,6,0,,,,,,,,,,right,0.6158863001037389,717.7818913999945,iz8,717.7818913999945,None,706.4151772998739,708.4147960999981,False,4,['r'],True,0.4285714285714285,0.4285714285714285,0.0,0.0,2.0,0.6216097450797565,0.0,wait_cost,0,3,714.3649033999536,None,iz8,1,2022-04-21_11h28.55.000,threat_forest,2021.2.3,59.73929775023638,
17,0,17,0,7,0,7,0,,,,,,,,,,right,0.661105299834162,722.165619000094,iz8,722.165619000094,None,706.4151772998739,708.4147960999981,False,3,['r'],True,0.4285714285714285,0.4285714285714285,0.0,0.0,2.0,0.6216097450797565,0.0,wait_cost,0,2,720.4152214000933,None,iz8,1,2022-04-21_11h28.55.000,threat_forest,2021.2.3,59.73929775023638,
17,0,17,0,,,,,,,,,,,,,,,,,,,,,,,,,,,,,,,,,,,,724.8485028999858,None,iz8,1,2022-04-21_11h28.55.000,threat_forest,2021.2.3,59.73929775023638,
