miniblock.thisRepN,miniblock.thisTrialN,miniblock.thisN,miniblock.thisIndex,day.thisRepN,day.thisTrialN,day.thisN,day.thisIndex,welcoming.started,welcoming.stopped,key_resp_2.keys,key_resp_2.rt,key_resp_2.started,key_resp_2.stopped,forest.started,fixation_forest.started,fixation_forest.stopped,key_resp.keys,key_resp.rt,key_resp.started,Subject_ID,weather_left.started,weather_left.stopped,weather_right.started,weather_right.stopped,foraging T/F,in_LP,p/r heuristic,good_weather.T/F,p_succ_correct,p_succ_uncorrected,r_threat,n_oponents,gain_if_succ,weather_entropy,OP_value_difference,action_outcome,forest_side_L=0_R=1,out_LP,fixation_day.started,fixation_day.stopped,n_day-1.out_LP.,participant,session,date,expName,psychopyVersion,frameRate,
,,,,,,,,10.497663000016473,None,space,67.50357309996616,10.497663000016473,None,,,,,,,,,,,,,,,,,,,,,,,,,,,,,fj4,3,2022-05-05_11h50.31.052,threat_forest,2021.2.3,59.978827508180274,
0,0,0,0,0,0,0,0,,,,,,,78.06087609997485,81.56546299997717,None,left,0.5893680999288335,84.86123999999836,fj4,84.86123999999836,None,78.06087609997485,81.56546299997717,True,5,['p'],True,0.6,0.6,0.0,0.0,1.0,0.6126016192893442,0.0,succ_gain,0,6,,,,fj4,3,2022-05-05_11h50.31.052,threat_forest,2021.2.3,59.978827508180274,
0,0,0,0,1,0,1,0,,,,,,,,,,right,1.7305075000040233,89.42522840003949,fj4,89.42522840003949,None,78.06087609997485,81.56546299997717,False,6,['p'],True,0.6,0.6,0.0,0.0,1.0,0.6126016192893442,0.0,wait_cost,0,5,87.49330360000022,None,6,fj4,3,2022-05-05_11h50.31.052,threat_forest,2021.2.3,59.978827508180274,
0,0,0,0,2,0,2,0,,,,,,,,,,None,,93.74218780000228,fj4,91.17345840006601,93.1878581000492,93.74218780000228,None,None,5,['p'],False,0.46875,0.625,0.25,2.0,1.0,0.9634951148421658,0.0,wait_cost,1,4,93.1878581000492,None,5,fj4,3,2022-05-05_11h50.31.052,threat_forest,2021.2.3,59.978827508180274,
0,0,0,0,3,0,3,0,,,,,,,,,,right,1.3202031999826431,100.71460870001465,fj4,91.17345840006601,93.1878581000492,100.71460870001465,None,True,4,['p'],False,0.46875,0.625,0.25,2.0,1.0,0.9634951148421658,0.0,unsucc_cost,1,2,98.7660915000597,None,4,fj4,3,2022-05-05_11h50.31.052,threat_forest,2021.2.3,59.978827508180274,
0,0,0,0,4,0,4,0,,,,,,,,,,right,1.3517297999933362,107.2751459000865,fj4,107.2751459000865,None,102.0633052000776,104.07770710007753,False,2,['p'],True,0.6,0.6,0.0,0.0,1.0,0.6126016192893442,-0.4,wait_cost,0,1,104.07770710007753,None,2,fj4,3,2022-05-05_11h50.31.052,threat_forest,2021.2.3,59.978827508180274,
0,0,0,0,5,0,5,0,,,,,,,,,,right,0.9313990999944508,111.93889230000786,fj4,108.65722250007093,110.67163080000319,111.93889230000786,None,True,1,['p'],False,0.46875,0.625,0.25,2.0,1.0,0.9634951148421658,0.46875,succ_gain,1,2,110.67163080000319,None,1,fj4,3,2022-05-05_11h50.31.052,threat_forest,2021.2.3,59.978827508180274,
0,0,0,0,6,0,6,0,,,,,,,,,,left,0.999626399949193,118.14836240001023,fj4,108.65722250007093,110.67163080000319,118.14836240001023,None,False,2,['p'],False,0.46875,0.625,0.25,2.0,1.0,0.9634951148421658,-0.53125,wait_cost,1,1,114.91763490007725,None,2,fj4,3,2022-05-05_11h50.31.052,threat_forest,2021.2.3,59.978827508180274,
0,0,0,0,7,0,7,0,,,,,,,,,,left,1.066754899919033,122.01125780004077,fj4,122.01125780004077,None,119.18101340008434,121.19504530006088,True,1,['p'],True,0.6,0.6,0.0,0.0,1.0,0.6126016192893442,0.6,succ_gain,0,2,121.19504530006088,None,1,fj4,3,2022-05-05_11h50.31.052,threat_forest,2021.2.3,59.978827508180274,
0,0,0,0,,,,,,,,,,,,,,,,,,,,,,,,,,,,,,,,,,,,125.12548340007197,None,2,fj4,3,2022-05-05_11h50.31.052,threat_forest,2021.2.3,59.978827508180274,
1,0,1,0,0,0,0,0,,,,,,,126.12152929999866,129.62057799997274,None,right,1.8006483999779448,132.8194111000048,fj4,132.8194111000048,None,126.12152929999866,129.62057799997274,False,4,['r'],True,0.4,0.4,0.0,0.0,1.0,0.6126016192893442,0.0,wait_cost,0,3,,,,fj4,3,2022-05-05_11h50.31.052,threat_forest,2021.2.3,59.978827508180274,
1,0,1,0,1,0,1,0,,,,,,,,,,right,1.4365307999541983,138.62953899998683,fj4,134.64949590002652,136.66401160007808,138.62953899998683,None,True,3,['r'],False,0.3061224489795918,0.4285714285714285,0.2857142857142857,2.0,1.0,0.9885754083994552,-0.2857142857142857,succ_gain,1,4,136.66401160007808,None,3,fj4,3,2022-05-05_11h50.31.052,threat_forest,2021.2.3,59.978827508180274,
1,0,1,0,2,0,2,0,,,,,,,,,,right,2.513384599937126,143.95934000005946,fj4,143.95934000005946,None,140.09443659998942,142.10885249997955,False,4,['r'],True,0.4,0.4,0.0,0.0,1.0,0.6126016192893442,0.0,wait_cost,0,3,142.10885249997955,None,4,fj4,3,2022-05-05_11h50.31.052,threat_forest,2021.2.3,59.978827508180274,
1,0,1,0,3,0,3,0,,,,,,,,,,right,1.7953746999846771,150.50163389998488,fj4,150.50163389998488,None,140.09443659998942,142.10885249997955,False,3,['r'],True,0.4,0.4,0.0,0.0,1.0,0.6126016192893442,0.0,wait_cost,0,2,148.51962480007205,None,3,fj4,3,2022-05-05_11h50.31.052,threat_forest,2021.2.3,59.978827508180274,
1,0,1,0,4,0,4,0,,,,,,,,,,left,2.3760593000333756,157.79453259997535,fj4,152.31628370005637,154.33077790006064,157.79453259997535,None,False,2,['r'],False,0.3061224489795918,0.4285714285714285,0.2857142857142857,2.0,1.0,0.9885754083994552,-0.6938775510204083,wait_cost,1,1,154.33077790006064,None,2,fj4,3,2022-05-05_11h50.31.052,threat_forest,2021.2.3,59.978827508180274,
1,0,1,0,5,0,5,0,,,,,,,,,,left,1.5141275000059977,163.77247820002958,fj4,163.77247820002958,None,160.1923211000394,162.20676099997945,True,1,['r'],True,0.4,0.4,0.0,0.0,1.0,0.6126016192893442,0.4,unsucc_cost,0,0,162.20676099997945,None,1,fj4,3,2022-05-05_11h50.31.052,threat_forest,2021.2.3,59.978827508180274,
1,0,1,0,,,,,,,,,,,,,,,,,,,,,,,,,,,,,,,,,,,,167.31871300004423,None,0,fj4,3,2022-05-05_11h50.31.052,threat_forest,2021.2.3,59.978827508180274,
2,0,2,0,0,0,0,0,,,,,,,167.8424114000518,171.34829240001272,None,right,2.0938672999618575,175.09540190000553,fj4,167.8424114000518,171.34829240001272,175.09540190000553,None,True,4,['p'],False,0.2222222222222222,0.2222222222222222,0.0,0.0,2.0,0.4821593609696809,0.0,unsucc_cost,1,2,,,,fj4,3,2022-05-05_11h50.31.052,threat_forest,2021.2.3,59.978827508180274,
2,0,2,0,1,0,1,0,,,,,,,,,,left,1.6359043000265956,182.1055962999817,fj4,167.8424114000518,171.34829240001272,182.1055962999817,None,False,2,['p'],False,0.2222222222222222,0.2222222222222222,0.0,0.0,2.0,0.4821593609696809,-0.7777777777777778,wait_cost,1,1,179.22417489998043,None,2,fj4,3,2022-05-05_11h50.31.052,threat_forest,2021.2.3,59.978827508180274,
2,0,2,0,2,0,2,0,,,,,,,,,,right,1.1207177001051605,188.0162289000582,fj4,167.8424114000518,171.34829240001272,188.0162289000582,None,True,1,['p'],False,0.2222222222222222,0.2222222222222222,0.0,0.0,2.0,0.4821593609696809,0.2222222222222222,succ_gain,1,3,185.78481930005364,None,1,fj4,3,2022-05-05_11h50.31.052,threat_forest,2021.2.3,59.978827508180274,
2,0,2,0,3,0,3,0,,,,,,,,,,left,2.4453197000548244,193.47786430001725,fj4,167.8424114000518,171.34829240001272,193.47786430001725,None,False,3,['p'],False,0.2222222222222222,0.2222222222222222,0.0,0.0,2.0,0.4821593609696809,0.0,wait_cost,1,2,191.17966849997174,None,3,fj4,3,2022-05-05_11h50.31.052,threat_forest,2021.2.3,59.978827508180274,
2,0,2,0,4,0,4,0,,,,,,,,,,left,1.7938906999770552,201.75342610001098,fj4,167.8424114000518,171.34829240001272,201.75342610001098,None,False,2,['p'],False,0.2222222222222222,0.2222222222222222,0.0,0.0,2.0,0.4821593609696809,-0.7777777777777778,wait_cost,1,1,197.95661880006082,None,2,fj4,3,2022-05-05_11h50.31.052,threat_forest,2021.2.3,59.978827508180274,
2,0,2,0,5,0,5,0,,,,,,,,,,right,0.9730981000466272,208.69756750005763,fj4,167.8424114000518,171.34829240001272,208.69756750005763,None,True,1,['p'],False,0.2222222222222222,0.2222222222222222,0.0,0.0,2.0,0.4821593609696809,0.2222222222222222,unsucc_cost,1,0,205.5828838000307,None,1,fj4,3,2022-05-05_11h50.31.052,threat_forest,2021.2.3,59.978827508180274,
2,0,2,0,,,,,,,,,,,,,,,,,,,,,,,,,,,,,,,,,,,,211.71058880002238,None,0,fj4,3,2022-05-05_11h50.31.052,threat_forest,2021.2.3,59.978827508180274,
3,0,3,0,0,0,0,0,,,,,,,213.96675270004198,217.47178840008564,None,right,0.935751499957405,219.62020050000865,fj4,213.96675270004198,217.47178840008564,219.62020050000865,None,True,5,['p'],False,0.2448979591836734,0.2857142857142857,0.1428571428571428,1.0,2.0,0.8400769154957735,0.0,fight_cost,1,2,,,,fj4,3,2022-05-05_11h50.31.052,threat_forest,2021.2.3,59.978827508180274,
3,0,3,0,1,0,1,0,,,,,,,,,,right,1.1323634999571368,225.88108660001308,fj4,225.88108660001308,None,220.58588020002935,222.60040750005282,False,2,['p'],True,0.375,0.5,0.25,1.0,2.0,0.9850568223215076,-0.625,wait_cost,0,1,222.60040750005282,None,2,fj4,3,2022-05-05_11h50.31.052,threat_forest,2021.2.3,59.978827508180274,
3,0,3,0,2,0,2,0,,,,,,,,,,left,0.8330493000103161,232.45819899998605,fj4,232.45819899998605,None,220.58588020002935,222.60040750005282,True,1,['p'],True,0.375,0.5,0.25,1.0,2.0,0.9850568223215076,0.375,unsucc_cost,0,0,229.0446958000539,None,1,fj4,3,2022-05-05_11h50.31.052,threat_forest,2021.2.3,59.978827508180274,
3,0,3,0,,,,,,,,,,,,,,,,,,,,,,,,,,,,,,,,,,,,235.33861960005015,None,0,fj4,3,2022-05-05_11h50.31.052,threat_forest,2021.2.3,59.978827508180274,
4,0,4,0,0,0,0,0,,,,,,,238.44511089997832,241.9489577000495,None,left,1.7469214000739157,244.06447480001952,fj4,244.06447480001952,None,238.44511089997832,241.9489577000495,True,4,['p'],True,0.375,0.5,0.25,1.0,2.0,0.9850568223215076,0.0,unsucc_cost,0,2,,,,fj4,3,2022-05-05_11h50.31.052,threat_forest,2021.2.3,59.978827508180274,
4,0,4,0,1,0,1,0,,,,,,,,,,right,1.3662524000974372,251.49053329997696,fj4,251.49053329997696,None,238.44511089997832,241.9489577000495,False,2,['p'],True,0.375,0.5,0.25,1.0,2.0,0.9850568223215076,-0.625,wait_cost,0,1,247.8434817000525,None,2,fj4,3,2022-05-05_11h50.31.052,threat_forest,2021.2.3,59.978827508180274,
4,0,4,0,2,0,2,0,,,,,,,,,,left,0.8034351000096649,257.8176999000134,fj4,257.8176999000134,None,238.44511089997832,241.9489577000495,True,1,['p'],True,0.375,0.5,0.25,1.0,2.0,0.9850568223215076,0.375,fight_cost,0,0,254.88724900002126,None,1,fj4,3,2022-05-05_11h50.31.052,threat_forest,2021.2.3,59.978827508180274,
4,0,4,0,,,,,,,,,,,,,,,,,,,,,,,,,,,,,,,,,,,,260.6648658000631,None,0,fj4,3,2022-05-05_11h50.31.052,threat_forest,2021.2.3,59.978827508180274,
5,0,5,0,0,0,0,0,,,,,,,261.80608170002233,265.31038250005804,None,left,1.2309012999758124,267.62677079997957,fj4,261.80608170002233,265.31038250005804,267.62677079997957,None,False,5,['p'],False,0.4081632653061224,0.5714285714285714,0.2857142857142857,2.0,2.0,0.9885754083994552,0.0,wait_cost,1,4,,,,fj4,3,2022-05-05_11h50.31.052,threat_forest,2021.2.3,59.978827508180274,
5,0,5,0,1,0,1,0,,,,,,,,,,left,1.1921824000310153,273.80333660007454,fj4,273.80333660007454,None,268.8742050000001,270.88862600002903,True,4,['p'],True,0.5,0.5,0.0,0.0,2.0,0.6309297535714574,0.0,succ_gain,0,6,270.88862600002903,None,4,fj4,3,2022-05-05_11h50.31.052,threat_forest,2021.2.3,59.978827508180274,
5,0,5,0,2,0,2,0,,,,,,,,,,right,0.9135139998979867,278.99829310004134,fj4,278.99829310004134,None,268.8742050000001,270.88862600002903,False,6,['p'],True,0.5,0.5,0.0,0.0,2.0,0.6309297535714574,0.0,wait_cost,0,5,277.0328538999893,None,6,fj4,3,2022-05-05_11h50.31.052,threat_forest,2021.2.3,59.978827508180274,
5,0,5,0,3,0,3,0,,,,,,,,,,right,1.1197822999674827,283.3941987999715,fj4,283.3941987999715,None,268.8742050000001,270.88862600002903,False,5,['p'],True,0.5,0.5,0.0,0.0,2.0,0.6309297535714574,0.0,wait_cost,0,4,281.94487510004546,None,5,fj4,3,2022-05-05_11h50.31.052,threat_forest,2021.2.3,59.978827508180274,
5,0,5,0,4,0,4,0,,,,,,,,,,left,2.0723699000664055,288.93868999998085,fj4,284.54284210002515,286.55728780000936,288.93868999998085,None,False,4,['p'],False,0.4081632653061224,0.5714285714285714,0.2857142857142857,2.0,2.0,0.9885754083994552,0.0,wait_cost,1,3,286.55728780000936,None,4,fj4,3,2022-05-05_11h50.31.052,threat_forest,2021.2.3,59.978827508180274,
5,0,5,0,5,0,5,0,,,,,,,,,,left,1.5913595999591053,296.0325835000258,fj4,296.0325835000258,None,291.0368246000726,293.0511843999848,True,3,['p'],True,0.5,0.5,0.0,0.0,2.0,0.6309297535714574,0.0,succ_gain,0,5,293.0511843999848,None,3,fj4,3,2022-05-05_11h50.31.052,threat_forest,2021.2.3,59.978827508180274,
5,0,5,0,6,0,6,0,,,,,,,,,,right,0.5655403999844566,301.51021910004783,fj4,301.51021910004783,None,291.0368246000726,293.0511843999848,False,5,['p'],True,0.5,0.5,0.0,0.0,2.0,0.6309297535714574,0.0,wait_cost,0,4,299.66176719998475,None,5,fj4,3,2022-05-05_11h50.31.052,threat_forest,2021.2.3,59.978827508180274,
5,0,5,0,7,0,7,0,,,,,,,,,,right,0.4915016000159085,307.05509719997644,fj4,307.05509719997644,None,291.0368246000726,293.0511843999848,False,4,['p'],True,0.5,0.5,0.0,0.0,2.0,0.6309297535714574,0.0,wait_cost,0,3,304.1075672999723,None,4,fj4,3,2022-05-05_11h50.31.052,threat_forest,2021.2.3,59.978827508180274,
5,0,5,0,,,,,,,,,,,,,,,,,,,,,,,,,,,,,,,,,,,,309.5858325000154,None,3,fj4,3,2022-05-05_11h50.31.052,threat_forest,2021.2.3,59.978827508180274,
6,0,6,0,0,0,0,0,,,,,,,311.01199700008146,314.5049722000258,None,right,1.3219419999513775,317.76218820002396,fj4,317.76218820002396,None,311.01199700008146,314.5049722000258,False,5,['p'],True,0.375,0.5,0.25,1.0,1.0,0.9850568223215076,0.0,wait_cost,0,4,,,,fj4,3,2022-05-05_11h50.31.052,threat_forest,2021.2.3,59.978827508180274,
6,0,6,0,1,0,1,0,,,,,,,,,,right,1.4287257000105456,322.35754930006806,fj4,322.35754930006806,None,311.01199700008146,314.5049722000258,False,4,['p'],True,0.375,0.5,0.25,1.0,1.0,0.9850568223215076,0.0,wait_cost,0,3,321.12499080004636,None,4,fj4,3,2022-05-05_11h50.31.052,threat_forest,2021.2.3,59.978827508180274,
6,0,6,0,2,0,2,0,,,,,,,,,,right,1.6986104999668896,328.40520749997813,fj4,323.8061048000818,325.8208245000569,328.40520749997813,None,True,3,['p'],False,0.24,0.3,0.2,2.0,1.0,0.9003120349047065,-0.2,unsucc_cost,1,1,325.8208245000569,None,3,fj4,3,2022-05-05_11h50.31.052,threat_forest,2021.2.3,59.978827508180274,
6,0,6,0,3,0,3,0,,,,,,,,,,left,0.7220554000232369,334.562646400067,fj4,334.562646400067,None,330.1335528000491,332.1479832000332,True,1,['p'],True,0.375,0.5,0.25,1.0,1.0,0.9850568223215076,0.375,unsucc_cost,0,0,332.1479832000332,None,1,fj4,3,2022-05-05_11h50.31.052,threat_forest,2021.2.3,59.978827508180274,
6,0,6,0,,,,,,,,,,,,,,,,,,,,,,,,,,,,,,,,,,,,337.3265805999981,None,0,fj4,3,2022-05-05_11h50.31.052,threat_forest,2021.2.3,59.978827508180274,
7,0,7,0,0,0,0,0,,,,,,,339.0034488000674,342.49341060000006,None,right,1.0108157000504434,345.303691899986,fj4,339.0034488000674,342.49341060000006,345.303691899986,None,True,5,['r'],False,0.2962962962962963,0.3333333333333333,0.1111111111111111,1.0,2.0,0.8325252476189534,0.0,unsucc_cost,1,3,,,,fj4,3,2022-05-05_11h50.31.052,threat_forest,2021.2.3,59.978827508180274,
7,0,7,0,1,0,1,0,,,,,,,,,,right,1.216581599903293,350.4978642000351,fj4,339.0034488000674,342.49341060000006,350.4978642000351,None,True,3,['r'],False,0.2962962962962963,0.3333333333333333,0.1111111111111111,1.0,2.0,0.8325252476189534,-0.1111111111111111,succ_gain,1,5,348.3494849000126,None,3,fj4,3,2022-05-05_11h50.31.052,threat_forest,2021.2.3,59.978827508180274,
7,0,7,0,2,0,2,0,,,,,,,,,,right,1.4401982999406755,356.0293181000743,fj4,356.0293181000743,None,351.7470489999978,353.7611296999967,False,5,['r'],True,0.4166666666666667,0.5,0.1666666666666666,1.0,2.0,0.9358932809493992,0.0,wait_cost,0,4,353.7611296999967,None,5,fj4,3,2022-05-05_11h50.31.052,threat_forest,2021.2.3,59.978827508180274,
7,0,7,0,3,0,3,0,,,,,,,,,,left,1.5610939998878166,361.2381607000716,fj4,357.4913831000449,359.50583929999266,361.2381607000716,None,False,4,['r'],False,0.2962962962962963,0.3333333333333333,0.1111111111111111,1.0,2.0,0.8325252476189534,0.0,wait_cost,1,3,359.50583929999266,None,4,fj4,3,2022-05-05_11h50.31.052,threat_forest,2021.2.3,59.978827508180274,
7,0,7,0,4,0,4,0,,,,,,,,,,left,2.184764500008896,366.63288220006507,fj4,357.4913831000449,359.50583929999266,366.63288220006507,None,False,3,['r'],False,0.2962962962962963,0.3333333333333333,0.1111111111111111,1.0,2.0,0.8325252476189534,-0.1111111111111111,wait_cost,1,2,364.83415040001273,None,3,fj4,3,2022-05-05_11h50.31.052,threat_forest,2021.2.3,59.978827508180274,
7,0,7,0,5,0,5,0,,,,,,,,,,left,1.664391899947077,372.3940013999818,fj4,357.4913831000449,359.50583929999266,372.3940013999818,None,False,2,['r'],False,0.2962962962962963,0.3333333333333333,0.1111111111111111,1.0,2.0,0.8325252476189534,-0.7037037037037037,wait_cost,1,1,370.86186559998896,None,2,fj4,3,2022-05-05_11h50.31.052,threat_forest,2021.2.3,59.978827508180274,
7,0,7,0,6,0,6,0,,,,,,,,,,left,1.516252200002782,377.089672000031,fj4,377.089672000031,None,374.07594560005236,376.0903239999898,True,1,['r'],True,0.4166666666666667,0.5,0.1666666666666666,1.0,2.0,0.9358932809493992,0.4166666666666667,fight_cost,0,0,376.0903239999898,None,1,fj4,3,2022-05-05_11h50.31.052,threat_forest,2021.2.3,59.978827508180274,
7,0,7,0,,,,,,,,,,,,,,,,,,,,,,,,,,,,,,,,,,,,380.652768000029,None,0,fj4,3,2022-05-05_11h50.31.052,threat_forest,2021.2.3,59.978827508180274,
8,0,8,0,0,0,0,0,,,,,,,381.53738870006055,385.0486293999711,None,left,1.503451899974607,386.03315590007696,fj4,381.53738870006055,385.0486293999711,386.03315590007696,None,False,4,['r'],False,0.21875,0.25,0.125,1.0,1.0,0.7908280489481783,0.0,wait_cost,1,3,,,,fj4,3,2022-05-05_11h50.31.052,threat_forest,2021.2.3,59.978827508180274,
8,0,8,0,1,0,1,0,,,,,,,,,,left,1.3729556000325829,391.3595848000841,fj4,391.3595848000841,None,387.56332600000314,389.5783531999914,True,3,['r'],True,0.32,0.4,0.2,1.0,1.0,0.9455672104350704,-0.2,unsucc_cost,0,1,389.5783531999914,None,3,fj4,3,2022-05-05_11h50.31.052,threat_forest,2021.2.3,59.978827508180274,
8,0,8,0,2,0,2,0,,,,,,,,,,left,1.7809936000267044,395.2897000000812,fj4,395.2897000000812,None,387.56332600000314,389.5783531999914,True,1,['r'],True,0.32,0.4,0.2,1.0,1.0,0.9455672104350704,0.32,fight_cost,0,0,394.77279830002226,None,1,fj4,3,2022-05-05_11h50.31.052,threat_forest,2021.2.3,59.978827508180274,
8,0,8,0,,,,,,,,,,,,,,,,,,,,,,,,,,,,,,,,,,,,399.10220640001353,None,0,fj4,3,2022-05-05_11h50.31.052,threat_forest,2021.2.3,59.978827508180274,
9,0,9,0,0,0,0,0,,,,,,,402.59680669999216,406.09556719998363,None,left,1.9861633999971673,409.35991350002587,fj4,402.59680669999216,406.09556719998363,409.35991350002587,None,False,4,['p'],False,0.2,0.2,0.0,0.0,2.0,0.4554859150035951,0.0,wait_cost,1,3,,,,fj4,3,2022-05-05_11h50.31.052,threat_forest,2021.2.3,59.978827508180274,
9,0,9,0,1,0,1,0,,,,,,,,,,right,0.6778116000350565,416.8861722999718,fj4,402.59680669999216,406.09556719998363,416.8861722999718,None,True,3,['p'],False,0.2,0.2,0.0,0.0,2.0,0.4554859150035951,0.0,unsucc_cost,1,1,413.3887995000696,None,3,fj4,3,2022-05-05_11h50.31.052,threat_forest,2021.2.3,59.978827508180274,
9,0,9,0,2,0,2,0,,,,,,,,,,left,0.8927641999907792,420.4509142000461,fj4,420.4509142000461,None,417.5852129000705,419.5996872000396,True,1,['p'],True,0.375,0.5,0.25,1.0,2.0,0.9850568223215076,0.375,succ_gain,0,3,419.5996872000396,None,1,fj4,3,2022-05-05_11h50.31.052,threat_forest,2021.2.3,59.978827508180274,
9,0,9,0,3,0,3,0,,,,,,,,,,left,1.618786899955012,425.5945971000474,fj4,421.3654057000531,423.3795151000377,425.5945971000474,None,False,3,['p'],False,0.2,0.2,0.0,0.0,2.0,0.4554859150035951,0.0,wait_cost,1,2,423.3795151000377,None,3,fj4,3,2022-05-05_11h50.31.052,threat_forest,2021.2.3,59.978827508180274,
9,0,9,0,4,0,4,0,,,,,,,,,,left,1.3476017999928445,432.4219894000562,fj4,432.4219894000562,None,427.24277700006496,429.257286200067,True,2,['p'],True,0.375,0.5,0.25,1.0,2.0,0.9850568223215076,-0.625,succ_gain,0,4,429.257286200067,None,2,fj4,3,2022-05-05_11h50.31.052,threat_forest,2021.2.3,59.978827508180274,
9,0,9,0,5,0,5,0,,,,,,,,,,right,1.8848910999950022,437.9329027000349,fj4,437.9329027000349,None,427.24277700006496,429.257286200067,False,4,['p'],True,0.375,0.5,0.25,1.0,2.0,0.9850568223215076,0.0,wait_cost,0,3,435.8011850999901,None,4,fj4,3,2022-05-05_11h50.31.052,threat_forest,2021.2.3,59.978827508180274,
9,0,9,0,6,0,6,0,,,,,,,,,,right,0.759533999953419,445.4957427000627,fj4,445.4957427000627,None,427.24277700006496,429.257286200067,False,3,['p'],True,0.375,0.5,0.25,1.0,2.0,0.9850568223215076,-0.25,wait_cost,0,2,441.8622528000269,None,3,fj4,3,2022-05-05_11h50.31.052,threat_forest,2021.2.3,59.978827508180274,
9,0,9,0,7,0,7,0,,,,,,,,,,right,0.9990887000458315,451.90318220003974,fj4,451.90318220003974,None,427.24277700006496,429.257286200067,False,2,['p'],True,0.375,0.5,0.25,1.0,2.0,0.9850568223215076,-0.625,wait_cost,0,1,448.28944429999683,None,2,fj4,3,2022-05-05_11h50.31.052,threat_forest,2021.2.3,59.978827508180274,
9,0,9,0,,,,,,,,,,,,,,,,,,,,,,,,,,,,,,,,,,,,454.9333668000763,None,1,fj4,3,2022-05-05_11h50.31.052,threat_forest,2021.2.3,59.978827508180274,
10,0,10,0,0,0,0,0,,,,,,,458.4394859999884,461.9434133999748,None,right,2.376276000053622,462.7432369000744,fj4,458.4394859999884,461.9434133999748,462.7432369000744,None,True,4,['r'],False,0.4081632653061224,0.5714285714285714,0.2857142857142857,2.0,2.0,0.9885754083994552,0.0,succ_gain,1,6,,,,fj4,3,2022-05-05_11h50.31.052,threat_forest,2021.2.3,59.978827508180274,
10,0,10,0,1,0,1,0,,,,,,,,,,right,1.4086933999788016,470.70671749999747,fj4,470.70671749999747,None,465.1408234999981,467.1552174000535,False,6,['r'],True,0.5,0.5,0.0,0.0,2.0,0.6309297535714574,0.0,wait_cost,0,5,467.1552174000535,None,6,fj4,3,2022-05-05_11h50.31.052,threat_forest,2021.2.3,59.978827508180274,
10,0,10,0,2,0,2,0,,,,,,,,,,left,1.8037905000383034,477.4460013000062,fj4,472.1343259999994,474.1487899000058,477.4460013000062,None,False,5,['r'],False,0.4081632653061224,0.5714285714285714,0.2857142857142857,2.0,2.0,0.9885754083994552,0.0,wait_cost,1,4,474.1487899000058,None,5,fj4,3,2022-05-05_11h50.31.052,threat_forest,2021.2.3,59.978827508180274,
10,0,10,0,3,0,3,0,,,,,,,,,,right,1.2155278000282124,484.79058879998047,fj4,484.79058879998047,None,479.27762800001074,481.29199040005915,False,4,['r'],True,0.5,0.5,0.0,0.0,2.0,0.6309297535714574,0.0,wait_cost,0,3,481.29199040005915,None,4,fj4,3,2022-05-05_11h50.31.052,threat_forest,2021.2.3,59.978827508180274,
10,0,10,0,4,0,4,0,,,,,,,,,,right,1.7943426000420004,489.0684446999803,fj4,489.0684446999803,None,479.27762800001074,481.29199040005915,False,3,['r'],True,0.5,0.5,0.0,0.0,2.0,0.6309297535714574,0.0,wait_cost,0,2,488.05239530000836,None,3,fj4,3,2022-05-05_11h50.31.052,threat_forest,2021.2.3,59.978827508180274,
10,0,10,0,5,0,5,0,,,,,,,,,,None,,493.46429899998475,fj4,490.883383300039,492.8978326000506,493.46429899998475,None,None,2,['r'],False,0.4081632653061224,0.5714285714285714,0.2857142857142857,2.0,2.0,0.9885754083994552,-0.5918367346938775,wait_cost,1,1,492.8978326000506,None,2,fj4,3,2022-05-05_11h50.31.052,threat_forest,2021.2.3,59.978827508180274,
10,0,10,0,6,0,6,0,,,,,,,,,,right,0.910869300016202,499.6751523000421,fj4,490.883383300039,492.8978326000506,499.6751523000421,None,True,1,['r'],False,0.4081632653061224,0.5714285714285714,0.2857142857142857,2.0,2.0,0.9885754083994552,0.4081632653061224,succ_gain,1,3,498.4925903000403,None,1,fj4,3,2022-05-05_11h50.31.052,threat_forest,2021.2.3,59.978827508180274,
10,0,10,0,7,0,7,0,,,,,,,,,,left,1.8250016000820324,503.7384598000208,fj4,490.883383300039,492.8978326000506,503.7384598000208,None,False,3,['r'],False,0.4081632653061224,0.5714285714285714,0.2857142857142857,2.0,2.0,0.9885754083994552,-0.2857142857142857,wait_cost,1,2,502.6221083999844,None,3,fj4,3,2022-05-05_11h50.31.052,threat_forest,2021.2.3,59.978827508180274,
10,0,10,0,,,,,,,,,,,,,,,,,,,,,,,,,,,,,,,,,,,,507.6021633000346,None,2,fj4,3,2022-05-05_11h50.31.052,threat_forest,2021.2.3,59.978827508180274,
11,0,11,0,0,0,0,0,,,,,,,508.16248930001166,511.6651489000069,None,right,1.187056599999778,515.0608803000068,fj4,515.0608803000068,None,508.16248930001166,511.6651489000069,False,5,['r'],True,0.24,0.4,0.4,2.0,2.0,0.9801625908629508,0.0,wait_cost,0,4,,,,fj4,3,2022-05-05_11h50.31.052,threat_forest,2021.2.3,59.978827508180274,
11,0,11,0,1,0,1,0,,,,,,,,,,None,,519.6266847000225,fj4,516.276366300066,518.2907996000722,519.6266847000225,None,None,4,['r'],False,0.16,0.2,0.2,2.0,2.0,0.8198746470064713,0.0,wait_cost,1,3,518.2907996000722,None,4,fj4,3,2022-05-05_11h50.31.052,threat_forest,2021.2.3,59.978827508180274,
11,0,11,0,2,0,2,0,,,,,,,,,,right,2.0887386999092996,528.4149515000172,fj4,528.4149515000172,None,522.6372186000226,524.6514805000043,False,3,['r'],True,0.24,0.4,0.4,2.0,2.0,0.9801625908629508,-0.4,wait_cost,0,2,524.6514805000043,None,3,fj4,3,2022-05-05_11h50.31.052,threat_forest,2021.2.3,59.978827508180274,
11,0,11,0,3,0,3,0,,,,,,,,,,right,0.9487569999182597,536.2410018000519,fj4,536.2410018000519,None,522.6372186000226,524.6514805000043,False,2,['r'],True,0.24,0.4,0.4,2.0,2.0,0.9801625908629508,-0.76,wait_cost,0,1,532.5441480000736,None,2,fj4,3,2022-05-05_11h50.31.052,threat_forest,2021.2.3,59.978827508180274,
11,0,11,0,4,0,4,0,,,,,,,,,,right,0.7984367000171915,541.212824700051,fj4,537.2067620999878,539.2213292000815,541.212824700051,None,True,1,['r'],False,0.16,0.2,0.2,2.0,2.0,0.8198746470064713,0.1599999999999999,fight_cost,1,0,539.2213292000815,None,1,fj4,3,2022-05-05_11h50.31.052,threat_forest,2021.2.3,59.978827508180274,
11,0,11,0,,,,,,,,,,,,,,,,,,,,,,,,,,,,,,,,,,,,544.0501434999751,None,0,fj4,3,2022-05-05_11h50.31.052,threat_forest,2021.2.3,59.978827508180274,
12,0,12,0,0,0,0,0,,,,,,,545.1377819000045,548.6458187000826,None,left,2.510504800011404,551.3437935999827,fj4,545.1377819000045,548.6458187000826,551.3437935999827,None,False,5,['p'],False,0.2222222222222222,0.6666666666666666,0.6666666666666666,2.0,2.0,0.77250688571426,0.0,wait_cost,1,4,,,,fj4,3,2022-05-05_11h50.31.052,threat_forest,2021.2.3,59.978827508180274,
12,0,12,0,1,0,1,0,,,,,,,,,,right,1.2625636999728158,559.0530393000226,fj4,559.0530393000226,None,553.8745304000331,555.8890448000748,False,4,['p'],True,0.3333333333333333,0.3333333333333333,0.0,0.0,2.0,0.5793801642856949,0.0,wait_cost,0,3,555.8890448000748,None,4,fj4,3,2022-05-05_11h50.31.052,threat_forest,2021.2.3,59.978827508180274,
12,0,12,0,2,0,2,0,,,,,,,,,,right,0.7167615001089871,563.0491737000411,fj4,560.3351495000534,562.3496633999748,563.0491737000411,None,True,3,['p'],False,0.2222222222222222,0.6666666666666666,0.6666666666666666,2.0,2.0,0.77250688571426,-0.6666666666666666,succ_gain,1,5,562.3496633999748,None,3,fj4,3,2022-05-05_11h50.31.052,threat_forest,2021.2.3,59.978827508180274,
12,0,12,0,3,0,3,0,,,,,,,,,,left,1.2507800000021234,567.7956509999931,fj4,560.3351495000534,562.3496633999748,567.7956509999931,None,False,5,['p'],False,0.2222222222222222,0.6666666666666666,0.6666666666666666,2.0,2.0,0.77250688571426,0.0,wait_cost,1,4,565.8134644000093,None,5,fj4,3,2022-05-05_11h50.31.052,threat_forest,2021.2.3,59.978827508180274,
12,0,12,0,4,0,4,0,,,,,,,,,,right,0.9679179999511689,574.7054317999864,fj4,574.7054317999864,None,569.0769526000367,571.0914573000045,False,4,['p'],True,0.3333333333333333,0.3333333333333333,0.0,0.0,2.0,0.5793801642856949,0.0,wait_cost,0,3,571.0914573000045,None,4,fj4,3,2022-05-05_11h50.31.052,threat_forest,2021.2.3,59.978827508180274,
12,0,12,0,5,0,5,0,,,,,,,,,,right,2.181994399987161,578.6182166000362,fj4,578.6182166000362,None,569.0769526000367,571.0914573000045,False,3,['p'],True,0.3333333333333333,0.3333333333333333,0.0,0.0,2.0,0.5793801642856949,0.0,wait_cost,0,2,577.7186095999787,None,3,fj4,3,2022-05-05_11h50.31.052,threat_forest,2021.2.3,59.978827508180274,
12,0,12,0,6,0,6,0,,,,,,,,,,right,2.191197199979797,583.4801404000027,fj4,580.8326249000384,582.8470675999997,583.4801404000027,None,True,2,['p'],False,0.2222222222222222,0.6666666666666666,0.6666666666666666,2.0,2.0,0.77250688571426,-0.7777777777777778,unsucc_cost,1,0,582.8470675999997,None,2,fj4,3,2022-05-05_11h50.31.052,threat_forest,2021.2.3,59.978827508180274,
12,0,12,0,,,,,,,,,,,,,,,,,,,,,,,,,,,,,,,,,,,,587.709384100046,None,0,fj4,3,2022-05-05_11h50.31.052,threat_forest,2021.2.3,59.978827508180274,
13,0,13,0,0,0,0,0,,,,,,,589.6104306000052,593.1208625000436,None,left,2.4597999999532476,595.1030389000662,fj4,589.6104306000052,593.1208625000436,595.1030389000662,None,False,4,['p'],False,0.2222222222222222,0.6666666666666666,0.6666666666666666,2.0,1.0,0.77250688571426,0.0,wait_cost,1,3,,,,fj4,3,2022-05-05_11h50.31.052,threat_forest,2021.2.3,59.978827508180274,
13,0,13,0,1,0,1,0,,,,,,,,,,None,,600.2811327000381,fj4,589.6104306000052,593.1208625000436,600.2811327000381,None,None,3,['p'],False,0.2222222222222222,0.6666666666666666,0.6666666666666666,2.0,1.0,0.77250688571426,-0.6666666666666666,wait_cost,1,2,599.5981459000614,None,3,fj4,3,2022-05-05_11h50.31.052,threat_forest,2021.2.3,59.978827508180274,
13,0,13,0,2,0,2,0,,,,,,,,,,left,1.328341200016439,605.9427062000614,fj4,589.6104306000052,593.1208625000436,605.9427062000614,None,False,2,['p'],False,0.2222222222222222,0.6666666666666666,0.6666666666666666,2.0,1.0,0.77250688571426,-0.7777777777777778,wait_cost,1,1,605.3094114999985,None,2,fj4,3,2022-05-05_11h50.31.052,threat_forest,2021.2.3,59.978827508180274,
13,0,13,0,3,0,3,0,,,,,,,,,,right,0.5708713999483734,611.0880849000532,fj4,589.6104306000052,593.1208625000436,611.0880849000532,None,True,1,['p'],False,0.2222222222222222,0.6666666666666666,0.6666666666666666,2.0,1.0,0.77250688571426,0.2222222222222222,unsucc_cost,1,0,609.3057017000392,None,1,fj4,3,2022-05-05_11h50.31.052,threat_forest,2021.2.3,59.978827508180274,
13,0,13,0,,,,,,,,,,,,,,,,,,,,,,,,,,,,,,,,,,,,613.7017297000857,None,0,fj4,3,2022-05-05_11h50.31.052,threat_forest,2021.2.3,59.978827508180274,
14,0,14,0,0,0,0,0,,,,,,,615.0236069000093,618.5304937000619,None,right,2.212748600053601,619.4137195000658,fj4,619.4137195000658,None,615.0236069000093,618.5304937000619,False,4,['r'],True,0.4444444444444445,0.6666666666666666,0.3333333333333333,1.0,2.0,0.9656336071428248,0.0,wait_cost,0,3,,,,fj4,3,2022-05-05_11h50.31.052,threat_forest,2021.2.3,59.978827508180274,
14,0,14,0,1,0,1,0,,,,,,,,,,right,1.531002499978058,626.2235505999997,fj4,626.2235505999997,None,615.0236069000093,618.5304937000619,False,3,['r'],True,0.4444444444444445,0.6666666666666666,0.3333333333333333,1.0,2.0,0.9656336071428248,-0.3333333333333333,wait_cost,0,2,623.6592827000422,None,3,fj4,3,2022-05-05_11h50.31.052,threat_forest,2021.2.3,59.978827508180274,
14,0,14,0,2,0,2,0,,,,,,,,,,left,2.1885278000263497,631.604378500022,fj4,627.7722189000342,629.7866625000024,631.604378500022,None,False,2,['r'],False,0.2040816326530612,0.2857142857142857,0.2857142857142857,2.0,2.0,0.9335459102197724,-0.7959183673469388,wait_cost,1,1,629.7866625000024,None,2,fj4,3,2022-05-05_11h50.31.052,threat_forest,2021.2.3,59.978827508180274,
14,0,14,0,3,0,3,0,,,,,,,,,,right,1.303643700084649,637.6300449999981,fj4,627.7722189000342,629.7866625000024,637.6300449999981,None,True,1,['r'],False,0.2040816326530612,0.2857142857142857,0.2857142857142857,2.0,2.0,0.9335459102197724,0.2040816326530612,fight_cost,1,0,635.8314598000143,None,1,fj4,3,2022-05-05_11h50.31.052,threat_forest,2021.2.3,59.978827508180274,
14,0,14,0,,,,,,,,,,,,,,,,,,,,,,,,,,,,,,,,,,,,640.9762300000293,None,0,fj4,3,2022-05-05_11h50.31.052,threat_forest,2021.2.3,59.978827508180274,
15,0,15,0,0,0,0,0,,,,,,,643.5827255999902,647.0870831999928,None,left,1.162645100033842,647.6540161999874,fj4,647.6540161999874,None,643.5827255999902,647.0870831999928,True,4,['p'],True,0.5,0.5,0.0,0.0,1.0,0.6309297535714574,0.0,succ_gain,0,5,,,,fj4,3,2022-05-05_11h50.31.052,threat_forest,2021.2.3,59.978827508180274,
15,0,15,0,1,0,1,0,,,,,,,,,,left,1.9985970999114215,653.5194985000417,fj4,648.8357773000607,650.8503414000152,653.5194985000417,None,False,5,['p'],False,0.4081632653061224,0.5714285714285714,0.2857142857142857,2.0,1.0,0.9885754083994552,0.0,wait_cost,1,4,650.8503414000152,None,5,fj4,3,2022-05-05_11h50.31.052,threat_forest,2021.2.3,59.978827508180274,
15,0,15,0,2,0,2,0,,,,,,,,,,None,,660.2920290000038,fj4,660.2920290000038,None,655.5462724000681,657.5607452000258,None,4,['p'],True,0.5,0.5,0.0,0.0,1.0,0.6309297535714574,0.0,wait_cost,0,3,657.5607452000258,None,4,fj4,3,2022-05-05_11h50.31.052,threat_forest,2021.2.3,59.978827508180274,
15,0,15,0,3,0,3,0,,,,,,,,,,left,1.27477799996268,666.519250900019,fj4,666.519250900019,None,655.5462724000681,657.5607452000258,True,3,['p'],True,0.5,0.5,0.0,0.0,1.0,0.6309297535714574,0.0,succ_gain,0,4,665.320048200083,None,3,fj4,3,2022-05-05_11h50.31.052,threat_forest,2021.2.3,59.978827508180274,
15,0,15,0,4,0,4,0,,,,,,,,,,left,1.2079075999790803,670.8498610000825,fj4,667.8181640000548,669.832534300047,670.8498610000825,None,False,4,['p'],False,0.4081632653061224,0.5714285714285714,0.2857142857142857,2.0,1.0,0.9885754083994552,0.0,wait_cost,1,3,669.832534300047,None,4,fj4,3,2022-05-05_11h50.31.052,threat_forest,2021.2.3,59.978827508180274,
15,0,15,0,5,0,5,0,,,,,,,,,,right,2.154500199947506,676.2601541000186,fj4,676.2601541000186,None,672.0807435000315,674.095218500006,False,3,['p'],True,0.5,0.5,0.0,0.0,1.0,0.6309297535714574,0.0,wait_cost,0,2,674.095218500006,None,3,fj4,3,2022-05-05_11h50.31.052,threat_forest,2021.2.3,59.978827508180274,
15,0,15,0,6,0,6,0,,,,,,,,,,right,2.151716700056568,681.1892504000571,fj4,681.1892504000571,None,672.0807435000315,674.095218500006,False,2,['p'],True,0.5,0.5,0.0,0.0,1.0,0.6309297535714574,-0.5,wait_cost,0,1,680.4559193999739,None,2,fj4,3,2022-05-05_11h50.31.052,threat_forest,2021.2.3,59.978827508180274,
15,0,15,0,7,0,7,0,,,,,,,,,,left,1.1238695998908952,689.0981441000476,fj4,689.0981441000476,None,672.0807435000315,674.095218500006,True,1,['p'],True,0.5,0.5,0.0,0.0,1.0,0.6309297535714574,0.5,succ_gain,0,2,685.3847310000565,None,1,fj4,3,2022-05-05_11h50.31.052,threat_forest,2021.2.3,59.978827508180274,
15,0,15,0,,,,,,,,,,,,,,,,,,,,,,,,,,,,,,,,,,,,692.2615683000768,None,2,fj4,3,2022-05-05_11h50.31.052,threat_forest,2021.2.3,59.978827508180274,
16,0,16,0,0,0,0,0,,,,,,,695.4011735999957,698.9053531000391,None,None,,701.1373802999733,fj4,695.4011735999957,698.9053531000391,701.1373802999733,None,None,4,['r'],False,0.18,0.2,0.1,1.0,1.0,0.7058405977926203,0.0,wait_cost,1,3,,,,fj4,3,2022-05-05_11h50.31.052,threat_forest,2021.2.3,59.978827508180274,
16,0,16,0,1,0,1,0,,,,,,,,,,right,1.7190774000482634,709.5493589000544,fj4,709.5493589000544,None,704.1506440000376,706.1652321000583,False,3,['r'],True,0.375,0.5,0.25,1.0,1.0,0.9850568223215076,-0.25,wait_cost,0,2,706.1652321000583,None,3,fj4,3,2022-05-05_11h50.31.052,threat_forest,2021.2.3,59.978827508180274,
16,0,16,0,2,0,2,0,,,,,,,,,,right,1.4215544000035152,714.957720000064,fj4,714.957720000064,None,704.1506440000376,706.1652321000583,False,2,['r'],True,0.375,0.5,0.25,1.0,1.0,0.9850568223215076,-0.625,wait_cost,0,1,713.3116093000863,None,2,fj4,3,2022-05-05_11h50.31.052,threat_forest,2021.2.3,59.978827508180274,
16,0,16,0,3,0,3,0,,,,,,,,,,left,1.0544763000216335,718.95472290006,fj4,718.95472290006,None,704.1506440000376,706.1652321000583,True,1,['r'],True,0.375,0.5,0.25,1.0,1.0,0.9850568223215076,0.375,succ_gain,0,2,718.4204544000095,None,1,fj4,3,2022-05-05_11h50.31.052,threat_forest,2021.2.3,59.978827508180274,
16,0,16,0,4,0,4,0,,,,,,,,,,left,1.1813981001032516,724.6815753000556,fj4,720.0360522000119,722.0504145000596,724.6815753000556,None,False,2,['r'],False,0.18,0.2,0.1,1.0,1.0,0.7058405977926203,-0.8200000000000001,wait_cost,1,1,722.0504145000596,None,2,fj4,3,2022-05-05_11h50.31.052,threat_forest,2021.2.3,59.978827508180274,
16,0,16,0,5,0,5,0,,,,,,,,,,left,1.2472936999984086,730.4954493000405,fj4,730.4954493000405,None,725.8803544000257,727.8949710000306,True,1,['r'],True,0.375,0.5,0.25,1.0,1.0,0.9850568223215076,0.375,succ_gain,0,2,727.8949710000306,None,1,fj4,3,2022-05-05_11h50.31.052,threat_forest,2021.2.3,59.978827508180274,
16,0,16,0,6,0,6,0,,,,,,,,,,right,1.849022899987176,735.6714558000676,fj4,735.6714558000676,None,725.8803544000257,727.8949710000306,False,2,['r'],True,0.375,0.5,0.25,1.0,1.0,0.9850568223215076,-0.625,wait_cost,0,1,733.7894264999777,None,2,fj4,3,2022-05-05_11h50.31.052,threat_forest,2021.2.3,59.978827508180274,
16,0,16,0,7,0,7,0,,,,,,,,,,right,1.283183400053531,743.347578600049,fj4,737.553036199999,739.5674185000826,743.347578600049,None,True,1,['r'],False,0.18,0.2,0.1,1.0,1.0,0.7058405977926203,0.1799999999999999,succ_gain,1,2,739.5674185000826,None,1,fj4,3,2022-05-05_11h50.31.052,threat_forest,2021.2.3,59.978827508180274,
16,0,16,0,,,,,,,,,,,,,,,,,,,,,,,,,,,,,,,,,,,,746.6775450999849,None,2,fj4,3,2022-05-05_11h50.31.052,threat_forest,2021.2.3,59.978827508180274,
17,0,17,0,0,0,0,0,,,,,,,748.2995032999897,751.8060223000357,None,left,1.5833141000475734,752.5561523999786,fj4,748.2995032999897,751.8060223000357,752.5561523999786,None,False,5,['r'],False,0.2448979591836734,0.2857142857142857,0.1428571428571428,1.0,1.0,0.8400769154957735,0.0,wait_cost,1,4,,,,fj4,3,2022-05-05_11h50.31.052,threat_forest,2021.2.3,59.978827508180274,
17,0,17,0,1,0,1,0,,,,,,,,,,left,1.070524699985981,756.9682082000654,fj4,748.2995032999897,751.8060223000357,756.9682082000654,None,False,4,['r'],False,0.2448979591836734,0.2857142857142857,0.1428571428571428,1.0,1.0,0.8400769154957735,0.0,wait_cost,1,3,756.1851784000173,None,4,fj4,3,2022-05-05_11h50.31.052,threat_forest,2021.2.3,59.978827508180274,
17,0,17,0,2,0,2,0,,,,,,,,,,right,2.9001000999705866,761.8301433000015,fj4,761.8301433000015,None,758.0671960000182,760.0817026000004,False,3,['r'],True,0.4444444444444445,0.6666666666666666,0.3333333333333333,1.0,1.0,0.9656336071428248,-0.3333333333333333,wait_cost,0,2,760.0817026000004,None,3,fj4,3,2022-05-05_11h50.31.052,threat_forest,2021.2.3,59.978827508180274,
17,0,17,0,3,0,3,0,,,,,,,,,,right,0.8084501000121236,770.2890273000812,fj4,770.2890273000812,None,758.0671960000182,760.0817026000004,False,2,['r'],True,0.4444444444444445,0.6666666666666666,0.3333333333333333,1.0,1.0,0.9656336071428248,-0.5555555555555556,wait_cost,0,1,766.7753700000467,None,2,fj4,3,2022-05-05_11h50.31.052,threat_forest,2021.2.3,59.978827508180274,
17,0,17,0,4,0,4,0,,,,,,,,,,right,0.6005708000157028,774.8347869999707,fj4,771.1214630000759,773.1360530999955,774.8347869999707,None,True,1,['r'],False,0.2448979591836734,0.2857142857142857,0.1428571428571428,1.0,1.0,0.8400769154957735,0.2448979591836735,succ_gain,1,2,773.1360530999955,None,1,fj4,3,2022-05-05_11h50.31.052,threat_forest,2021.2.3,59.978827508180274,
17,0,17,0,5,0,5,0,,,,,,,,,,right,0.8109322999371216,778.74796529999,fj4,778.74796529999,None,775.4675732000032,777.482015900081,False,2,['r'],True,0.4444444444444445,0.6666666666666666,0.3333333333333333,1.0,1.0,0.9656336071428248,-0.5555555555555556,wait_cost,0,1,777.482015900081,None,2,fj4,3,2022-05-05_11h50.31.052,threat_forest,2021.2.3,59.978827508180274,
17,0,17,0,6,0,6,0,,,,,,,,,,right,0.7854080999968573,784.6422033000272,fj4,779.580316400039,781.5948266000487,784.6422033000272,None,True,1,['r'],False,0.2448979591836734,0.2857142857142857,0.1428571428571428,1.0,1.0,0.8400769154957735,0.2448979591836735,unsucc_cost,1,0,781.5948266000487,None,1,fj4,3,2022-05-05_11h50.31.052,threat_forest,2021.2.3,59.978827508180274,
17,0,17,0,,,,,,,,,,,,,,,,,,,,,,,,,,,,,,,,,,,,787.4727998999879,None,0,fj4,3,2022-05-05_11h50.31.052,threat_forest,2021.2.3,59.978827508180274,
