miniblock.thisRepN,miniblock.thisTrialN,miniblock.thisN,miniblock.thisIndex,day.thisRepN,day.thisTrialN,day.thisN,day.thisIndex,welcoming.started,welcoming.stopped,key_resp_2.keys,key_resp_2.rt,key_resp_2.started,key_resp_2.stopped,forest.started,fixation_forest.started,fixation_forest.stopped,key_resp.keys,key_resp.rt,key_resp.started,Subject_ID,weather_left.started,weather_left.stopped,weather_right.started,weather_right.stopped,foraging T/F,in_LP,p/r heuristic,good_weather.T/F,p_succ_correct,p_succ_uncorrected,r_threat,n_oponents,gain_if_succ,weather_entropy,OP_value_difference,action_outcome,forest_side_L=0_R=1,out_LP,fixation_day.started,fixation_day.stopped,n_day-1.out_LP.,participant,session,date,expName,psychopyVersion,frameRate,
,,,,,,,,15.03148040000815,None,space,1.2240556000033394,15.03148040000815,None,,,,,,,,,,,,,,,,,,,,,,,,,,,,,uk5,3,2022-04-08_15h42.15.949,threat_forest,2021.2.3,60.22721317572015,
0,0,0,0,0,0,0,0,,,,,,,16.334175000083633,19.8459774000803,None,right,1.525117399985902,21.06826130009722,uk5,21.06826130009722,None,16.334175000083633,19.8459774000803,False,5,['p'],True,0.5,0.5,0.0,0.0,1.0,0.6309297535714574,0.0,wait_cost,0,4,,,,uk5,3,2022-04-08_15h42.15.949,threat_forest,2021.2.3,60.22721317572015,
0,0,0,0,1,0,1,0,,,,,,,,,,None,,27.891622600029223,uk5,27.891622600029223,None,16.334175000083633,19.8459774000803,None,4,['p'],True,0.5,0.5,0.0,0.0,1.0,0.6309297535714574,0.0,wait_cost,0,3,24.62481700000353,None,4,uk5,3,2022-04-08_15h42.15.949,threat_forest,2021.2.3,60.22721317572015,
0,0,0,0,2,0,2,0,,,,,,,,,,right,1.8908614000538364,35.7545637000585,uk5,35.7545637000585,None,16.334175000083633,19.8459774000803,False,3,['p'],True,0.5,0.5,0.0,0.0,1.0,0.6309297535714574,0.0,wait_cost,0,2,32.916969800018705,None,3,uk5,3,2022-04-08_15h42.15.949,threat_forest,2021.2.3,60.22721317572015,
0,0,0,0,3,0,3,0,,,,,,,,,,None,,40.55418040009681,uk5,37.66244640003424,39.6773494000081,40.55418040009681,None,None,2,['p'],False,0.36,0.6,0.4,2.0,1.0,0.9801625908629508,-0.64,wait_cost,1,1,39.6773494000081,None,2,uk5,3,2022-04-08_15h42.15.949,threat_forest,2021.2.3,60.22721317572015,
0,0,0,0,4,0,4,0,,,,,,,,,,right,1.1002262000693008,48.137846800033,uk5,37.66244640003424,39.6773494000081,48.137846800033,None,True,1,['p'],False,0.36,0.6,0.4,2.0,1.0,0.9801625908629508,0.36,succ_gain,1,2,45.57186080003157,None,1,uk5,3,2022-04-08_15h42.15.949,threat_forest,2021.2.3,60.22721317572015,
0,0,0,0,5,0,5,0,,,,,,,,,,left,2.0435702999820933,53.851186600048095,uk5,37.66244640003424,39.6773494000081,53.851186600048095,None,False,2,['p'],False,0.36,0.6,0.4,2.0,1.0,0.9801625908629508,-0.64,wait_cost,1,1,51.283070700010285,None,2,uk5,3,2022-04-08_15h42.15.949,threat_forest,2021.2.3,60.22721317572015,
0,0,0,0,6,0,6,0,,,,,,,,,,right,1.028488100040704,59.708628600114025,uk5,37.66244640003424,39.6773494000081,59.708628600114025,None,True,1,['p'],False,0.36,0.6,0.4,2.0,1.0,0.9801625908629508,0.36,succ_gain,1,2,57.926852800068446,None,1,uk5,3,2022-04-08_15h42.15.949,threat_forest,2021.2.3,60.22721317572015,
0,0,0,0,7,0,7,0,,,,,,,,,,left,1.498218399938196,66.16885810007807,uk5,37.66244640003424,39.6773494000081,66.16885810007807,None,False,2,['p'],False,0.36,0.6,0.4,2.0,1.0,0.9801625908629508,-0.64,wait_cost,1,1,62.77235110010952,None,2,uk5,3,2022-04-08_15h42.15.949,threat_forest,2021.2.3,60.22721317572015,
0,0,0,0,,,,,,,,,,,,,,,,,,,,,,,,,,,,,,,,,,,,69.704841400031,None,1,uk5,3,2022-04-08_15h42.15.949,threat_forest,2021.2.3,60.22721317572015,
1,0,1,0,0,0,0,0,,,,,,,72.70234200009145,76.19628380006179,None,right,1.9748749999562278,78.46753240004182,uk5,78.46753240004182,None,72.70234200009145,76.19628380006179,False,4,['p'],True,0.5,0.5,0.0,0.0,2.0,0.6309297535714574,0.0,wait_cost,0,3,,,,uk5,3,2022-04-08_15h42.15.949,threat_forest,2021.2.3,60.22721317572015,
1,0,1,0,1,0,1,0,,,,,,,,,,right,1.5032313999254256,85.72962160001043,uk5,80.48058300011326,82.48706240009051,85.72962160001043,None,True,3,['p'],False,0.4081632653061224,0.5714285714285714,0.2857142857142857,2.0,2.0,0.9885754083994552,-0.2857142857142857,succ_gain,1,5,82.48706240009051,None,3,uk5,3,2022-04-08_15h42.15.949,threat_forest,2021.2.3,60.22721317572015,
1,0,1,0,2,0,2,0,,,,,,,,,,right,2.80959270009771,90.36694030009676,uk5,80.48058300011326,82.48706240009051,90.36694030009676,None,True,5,['p'],False,0.4081632653061224,0.5714285714285714,0.2857142857142857,2.0,2.0,0.9885754083994552,0.0,unsucc_cost,1,3,89.26388390001375,None,5,uk5,3,2022-04-08_15h42.15.949,threat_forest,2021.2.3,60.22721317572015,
1,0,1,0,3,0,3,0,,,,,,,,,,right,1.7566027001012117,97.08408900001086,uk5,97.08408900001086,None,93.1943076000316,95.2089650001144,False,3,['p'],True,0.5,0.5,0.0,0.0,2.0,0.6309297535714574,0.0,wait_cost,0,2,95.2089650001144,None,3,uk5,3,2022-04-08_15h42.15.949,threat_forest,2021.2.3,60.22721317572015,
1,0,1,0,4,0,4,0,,,,,,,,,,left,1.747471599956043,104.35808000003453,uk5,98.87338260002434,100.88687820010819,104.35808000003453,None,False,2,['p'],False,0.4081632653061224,0.5714285714285714,0.2857142857142857,2.0,2.0,0.9885754083994552,-0.5918367346938775,wait_cost,1,1,100.88687820010819,None,2,uk5,3,2022-04-08_15h42.15.949,threat_forest,2021.2.3,60.22721317572015,
1,0,1,0,5,0,5,0,,,,,,,,,,right,0.9364621000131592,109.6119222000707,uk5,98.87338260002434,100.88687820010819,109.6119222000707,None,True,1,['p'],False,0.4081632653061224,0.5714285714285714,0.2857142857142857,2.0,2.0,0.9885754083994552,0.4081632653061224,succ_gain,1,3,108.14656030002516,None,1,uk5,3,2022-04-08_15h42.15.949,threat_forest,2021.2.3,60.22721317572015,
1,0,1,0,6,0,6,0,,,,,,,,,,right,1.3207776000490412,114.51821680006105,uk5,114.51821680006105,None,110.57772110006772,112.59259530005511,False,3,['p'],True,0.5,0.5,0.0,0.0,2.0,0.6309297535714574,0.0,wait_cost,0,2,112.59259530005511,None,3,uk5,3,2022-04-08_15h42.15.949,threat_forest,2021.2.3,60.22721317572015,
1,0,1,0,7,0,7,0,,,,,,,,,,right,1.3816213000100106,120.52518020011485,uk5,120.52518020011485,None,110.57772110006772,112.59259530005511,False,2,['p'],True,0.5,0.5,0.0,0.0,2.0,0.6309297535714574,-0.5,wait_cost,0,1,117.87086050002836,None,2,uk5,3,2022-04-08_15h42.15.949,threat_forest,2021.2.3,60.22721317572015,
1,0,1,0,,,,,,,,,,,,,,,,,,,,,,,,,,,,,,,,,,,,123.94860590004828,None,1,uk5,3,2022-04-08_15h42.15.949,threat_forest,2021.2.3,60.22721317572015,
2,0,2,0,0,0,0,0,,,,,,,127.05685770011041,130.55280650011264,None,left,1.4403554999735206,131.19213930005208,uk5,127.05685770011041,130.55280650011264,131.19213930005208,None,False,5,['p'],False,0.2448979591836734,0.2857142857142857,0.1428571428571428,1.0,2.0,0.8400769154957735,0.0,wait_cost,1,4,,,,uk5,3,2022-04-08_15h42.15.949,threat_forest,2021.2.3,60.22721317572015,
2,0,2,0,1,0,1,0,,,,,,,,,,left,1.0312877000542358,137.22654690011404,uk5,127.05685770011041,130.55280650011264,137.22654690011404,None,False,4,['p'],False,0.2448979591836734,0.2857142857142857,0.1428571428571428,1.0,2.0,0.8400769154957735,0.0,wait_cost,1,3,134.6719164000824,None,4,uk5,3,2022-04-08_15h42.15.949,threat_forest,2021.2.3,60.22721317572015,
2,0,2,0,2,0,2,0,,,,,,,,,,left,0.9661126000573859,142.08776600006968,uk5,127.05685770011041,130.55280650011264,142.08776600006968,None,False,3,['p'],False,0.2448979591836734,0.2857142857142857,0.1428571428571428,1.0,2.0,0.8400769154957735,-0.1428571428571428,wait_cost,1,2,140.29993540002033,None,3,uk5,3,2022-04-08_15h42.15.949,threat_forest,2021.2.3,60.22721317572015,
2,0,2,0,3,0,3,0,,,,,,,,,,right,2.1308346000732854,146.5525704000611,uk5,146.5525704000611,None,143.0811547000194,145.09564900002442,False,2,['p'],True,0.375,0.5,0.25,1.0,2.0,0.9850568223215076,-0.625,wait_cost,0,1,145.09564900002442,None,2,uk5,3,2022-04-08_15h42.15.949,threat_forest,2021.2.3,60.22721317572015,
2,0,2,0,4,0,4,0,,,,,,,,,,right,1.4604007999878377,151.71562530007213,uk5,148.7091642000014,150.7235970000038,151.71562530007213,None,True,1,['p'],False,0.2448979591836734,0.2857142857142857,0.1428571428571428,1.0,2.0,0.8400769154957735,0.2448979591836735,succ_gain,1,3,150.7235970000038,None,1,uk5,3,2022-04-08_15h42.15.949,threat_forest,2021.2.3,60.22721317572015,
2,0,2,0,5,0,5,0,,,,,,,,,,left,1.6889447000576183,155.74127740005497,uk5,148.7091642000014,150.7235970000038,155.74127740005497,None,False,3,['p'],False,0.2448979591836734,0.2857142857142857,0.1428571428571428,1.0,2.0,0.8400769154957735,-0.1428571428571428,wait_cost,1,2,155.21937080007046,None,3,uk5,3,2022-04-08_15h42.15.949,threat_forest,2021.2.3,60.22721317572015,
2,0,2,0,6,0,6,0,,,,,,,,,,right,1.8628748999908566,163.1702748000389,uk5,163.1702748000389,None,157.4511227000039,159.4655361000914,False,2,['p'],True,0.375,0.5,0.25,1.0,2.0,0.9850568223215076,-0.625,wait_cost,0,1,159.4655361000914,None,2,uk5,3,2022-04-08_15h42.15.949,threat_forest,2021.2.3,60.22721317572015,
2,0,2,0,7,0,7,0,,,,,,,,,,left,0.767670200089924,167.64116150001064,uk5,167.64116150001064,None,157.4511227000039,159.4655361000914,True,1,['p'],True,0.375,0.5,0.25,1.0,2.0,0.9850568223215076,0.375,succ_gain,0,3,167.0751297000097,None,1,uk5,3,2022-04-08_15h42.15.949,threat_forest,2021.2.3,60.22721317572015,
2,0,2,0,,,,,,,,,,,,,,,,,,,,,,,,,,,,,,,,,,,,170.45519720006268,None,3,uk5,3,2022-04-08_15h42.15.949,threat_forest,2021.2.3,60.22721317572015,
3,0,3,0,0,0,0,0,,,,,,,171.11073500011116,174.619404300116,None,right,1.0279975000303239,176.5853321000468,uk5,176.5853321000468,None,171.11073500011116,174.619404300116,False,4,['p'],True,0.375,0.5,0.25,1.0,2.0,0.9850568223215076,0.0,wait_cost,0,3,,,,uk5,3,2022-04-08_15h42.15.949,threat_forest,2021.2.3,60.22721317572015,
3,0,3,0,1,0,1,0,,,,,,,,,,right,1.7181242998922244,181.9533235001145,uk5,181.9533235001145,None,171.11073500011116,174.619404300116,False,3,['p'],True,0.375,0.5,0.25,1.0,2.0,0.9850568223215076,-0.25,wait_cost,0,2,179.6466668000212,None,3,uk5,3,2022-04-08_15h42.15.949,threat_forest,2021.2.3,60.22721317572015,
3,0,3,0,2,0,2,0,,,,,,,,,,left,1.3812264000298455,187.9795066000661,uk5,183.6928864000365,185.70713170000818,187.9795066000661,None,False,2,['p'],False,0.2592592592592592,0.3333333333333333,0.2222222222222222,2.0,2.0,0.9327883776363324,-0.7407407407407408,wait_cost,1,1,185.70713170000818,None,2,uk5,3,2022-04-08_15h42.15.949,threat_forest,2021.2.3,60.22721317572015,
3,0,3,0,3,0,3,0,,,,,,,,,,right,0.8769453000277281,193.65031880000606,uk5,183.6928864000365,185.70713170000818,193.65031880000606,None,True,1,['p'],False,0.2592592592592592,0.3333333333333333,0.2222222222222222,2.0,2.0,0.9327883776363324,0.2592592592592592,unsucc_cost,1,0,191.40231910010334,None,1,uk5,3,2022-04-08_15h42.15.949,threat_forest,2021.2.3,60.22721317572015,
3,0,3,0,,,,,,,,,,,,,,,,,,,,,,,,,,,,,,,,,,,,196.56394440005533,None,0,uk5,3,2022-04-08_15h42.15.949,threat_forest,2021.2.3,60.22721317572015,
4,0,4,0,0,0,0,0,,,,,,,199.71594300004654,203.2093927001115,None,right,1.8193389000371099,205.22353250009473,uk5,205.22353250009473,None,199.71594300004654,203.2093927001115,False,5,['p'],True,0.25,0.25,0.0,0.0,1.0,0.5118595071429148,0.0,wait_cost,0,4,,,,uk5,3,2022-04-08_15h42.15.949,threat_forest,2021.2.3,60.22721317572015,
4,0,4,0,1,0,1,0,,,,,,,,,,right,1.1382503000786528,210.39602690003812,uk5,210.39602690003812,None,199.71594300004654,203.2093927001115,False,4,['p'],True,0.25,0.25,0.0,0.0,1.0,0.5118595071429148,0.0,wait_cost,0,3,209.06903990008868,None,4,uk5,3,2022-04-08_15h42.15.949,threat_forest,2021.2.3,60.22721317572015,
4,0,4,0,2,0,2,0,,,,,,,,,,right,1.3112266000825912,214.45629740005825,uk5,214.45629740005825,None,199.71594300004654,203.2093927001115,False,3,['p'],True,0.25,0.25,0.0,0.0,1.0,0.5118595071429148,0.0,wait_cost,0,2,213.56471520010382,None,3,uk5,3,2022-04-08_15h42.15.949,threat_forest,2021.2.3,60.22721317572015,
4,0,4,0,3,0,3,0,,,,,,,,,,left,2.5760980000486597,219.10021360008977,uk5,215.79644390009344,217.81099670007825,219.10021360008977,None,False,2,['p'],False,0.2040816326530612,0.2857142857142857,0.2857142857142857,2.0,1.0,0.9335459102197724,-0.7959183673469388,wait_cost,1,1,217.81099670007825,None,2,uk5,3,2022-04-08_15h42.15.949,threat_forest,2021.2.3,60.22721317572015,
4,0,4,0,4,0,4,0,,,,,,,,,,right,1.0043520999606699,226.1718274001032,uk5,215.79644390009344,217.81099670007825,226.1718274001032,None,True,1,['p'],False,0.2040816326530612,0.2857142857142857,0.2857142857142857,2.0,1.0,0.9335459102197724,0.2040816326530612,unsucc_cost,1,0,223.72215980000328,None,1,uk5,3,2022-04-08_15h42.15.949,threat_forest,2021.2.3,60.22721317572015,
4,0,4,0,,,,,,,,,,,,,,,,,,,,,,,,,,,,,,,,,,,,229.2168719000183,None,0,uk5,3,2022-04-08_15h42.15.949,threat_forest,2021.2.3,60.22721317572015,
5,0,5,0,0,0,0,0,,,,,,,229.91097560001072,233.4127634000033,None,left,2.7586717000231147,235.67109130008612,uk5,229.91097560001072,233.4127634000033,235.67109130008612,None,False,5,['p'],False,0.24,0.4,0.4,2.0,1.0,0.9801625908629508,0.0,wait_cost,1,4,,,,uk5,3,2022-04-08_15h42.15.949,threat_forest,2021.2.3,60.22721317572015,
5,0,5,0,1,0,1,0,,,,,,,,,,right,2.22286060010083,242.78463770006783,uk5,242.78463770006783,None,238.4587544000242,240.47325530007947,False,4,['p'],True,0.3333333333333333,0.3333333333333333,0.0,0.0,1.0,0.5793801642856949,0.0,wait_cost,0,3,240.47325530007947,None,4,uk5,3,2022-04-08_15h42.15.949,threat_forest,2021.2.3,60.22721317572015,
5,0,5,0,2,0,2,0,,,,,,,,,,right,2.000176499946974,248.50132220005617,uk5,248.50132220005617,None,238.4587544000242,240.47325530007947,False,3,['p'],True,0.3333333333333333,0.3333333333333333,0.0,0.0,1.0,0.5793801642856949,0.0,wait_cost,0,2,247.04997020005248,None,3,uk5,3,2022-04-08_15h42.15.949,threat_forest,2021.2.3,60.22721317572015,
5,0,5,0,3,0,3,0,,,,,,,,,,right,1.4871331999311224,253.13368140009698,uk5,250.53063000005204,252.54490540002007,253.13368140009698,None,True,2,['p'],False,0.24,0.4,0.4,2.0,1.0,0.9801625908629508,-0.76,unsucc_cost,1,0,252.54490540002007,None,2,uk5,3,2022-04-08_15h42.15.949,threat_forest,2021.2.3,60.22721317572015,
5,0,5,0,,,,,,,,,,,,,,,,,,,,,,,,,,,,,,,,,,,,256.6580223001074,None,0,uk5,3,2022-04-08_15h42.15.949,threat_forest,2021.2.3,60.22721317572015,
6,0,6,0,0,0,0,0,,,,,,,259.43853320006747,262.93768640002236,None,left,2.6906478001037613,266.0306405000156,uk5,259.43853320006747,262.93768640002236,266.0306405000156,None,False,5,['p'],False,0.2040816326530612,0.2857142857142857,0.2857142857142857,2.0,2.0,0.9335459102197724,0.0,wait_cost,1,4,,,,uk5,3,2022-04-08_15h42.15.949,threat_forest,2021.2.3,60.22721317572015,
6,0,6,0,1,0,1,0,,,,,,,,,,left,2.022540000034496,271.9647718000924,uk5,259.43853320006747,262.93768640002236,271.9647718000924,None,False,4,['p'],False,0.2040816326530612,0.2857142857142857,0.2857142857142857,2.0,2.0,0.9335459102197724,0.0,wait_cost,1,3,270.7613400000846,None,4,uk5,3,2022-04-08_15h42.15.949,threat_forest,2021.2.3,60.22721317572015,
6,0,6,0,2,0,2,0,,,,,,,,,,right,1.4268962000496686,276.7243626000127,uk5,259.43853320006747,262.93768640002236,276.7243626000127,None,True,3,['p'],False,0.2040816326530612,0.2857142857142857,0.2857142857142857,2.0,2.0,0.9335459102197724,-0.2857142857142857,succ_gain,1,5,276.0231100000674,None,3,uk5,3,2022-04-08_15h42.15.949,threat_forest,2021.2.3,60.22721317572015,
6,0,6,0,3,0,3,0,,,,,,,,,,right,1.1342711000470445,282.5309043000452,uk5,282.5309043000452,None,278.1716967000393,280.18596200004686,False,5,['p'],True,0.4444444444444445,0.6666666666666666,0.3333333333333333,1.0,2.0,0.9656336071428248,0.0,wait_cost,0,4,280.18596200004686,None,5,uk5,3,2022-04-08_15h42.15.949,threat_forest,2021.2.3,60.22721317572015,
6,0,6,0,4,0,4,0,,,,,,,,,,right,0.9070435999892652,288.2184108000947,uk5,288.2184108000947,None,278.1716967000393,280.18596200004686,False,4,['p'],True,0.4444444444444445,0.6666666666666666,0.3333333333333333,1.0,2.0,0.9656336071428248,0.0,wait_cost,0,3,285.69731600000523,None,4,uk5,3,2022-04-08_15h42.15.949,threat_forest,2021.2.3,60.22721317572015,
6,0,6,0,5,0,5,0,,,,,,,,,,right,0.9471636000089347,292.82962290011346,uk5,292.82962290011346,None,278.1716967000393,280.18596200004686,False,3,['p'],True,0.4444444444444445,0.6666666666666666,0.3333333333333333,1.0,2.0,0.9656336071428248,-0.3333333333333333,wait_cost,0,2,291.15893260005396,None,3,uk5,3,2022-04-08_15h42.15.949,threat_forest,2021.2.3,60.22721317572015,
6,0,6,0,6,0,6,0,,,,,,,,,,right,1.430298799998127,298.574285000097,uk5,293.8068543000845,295.82134940009564,298.574285000097,None,True,2,['p'],False,0.2040816326530612,0.2857142857142857,0.2857142857142857,2.0,2.0,0.9335459102197724,-0.7959183673469388,unsucc_cost,1,0,295.82134940009564,None,2,uk5,3,2022-04-08_15h42.15.949,threat_forest,2021.2.3,60.22721317572015,
6,0,6,0,,,,,,,,,,,,,,,,,,,,,,,,,,,,,,,,,,,,302.0489591000369,None,0,uk5,3,2022-04-08_15h42.15.949,threat_forest,2021.2.3,60.22721317572015,
7,0,7,0,0,0,0,0,,,,,,,305.54338980000466,309.05146240000613,None,left,1.3651785999536514,309.5899582001148,uk5,305.54338980000466,309.05146240000613,309.5899582001148,None,False,5,['p'],False,0.4081632653061224,0.5714285714285714,0.2857142857142857,2.0,1.0,0.9885754083994552,0.0,wait_cost,1,4,,,,uk5,3,2022-04-08_15h42.15.949,threat_forest,2021.2.3,60.22721317572015,
7,0,7,0,1,0,1,0,,,,,,,,,,right,1.8123391999397427,314.4224647000665,uk5,305.54338980000466,309.05146240000613,314.4224647000665,None,True,4,['p'],False,0.4081632653061224,0.5714285714285714,0.2857142857142857,2.0,1.0,0.9885754083994552,0.0,unsucc_cost,1,2,312.98860710009467,None,4,uk5,3,2022-04-08_15h42.15.949,threat_forest,2021.2.3,60.22721317572015,
7,0,7,0,2,0,2,0,,,,,,,,,,left,1.6167568999808282,319.26049200003035,uk5,319.26049200003035,None,316.2521746000275,318.2669836001005,True,2,['p'],True,0.5,0.5,0.0,0.0,1.0,0.6309297535714574,-0.5,succ_gain,0,3,318.2669836001005,None,2,uk5,3,2022-04-08_15h42.15.949,threat_forest,2021.2.3,60.22721317572015,
7,0,7,0,3,0,3,0,,,,,,,,,,left,1.9188378000399098,324.98627890006173,uk5,320.898096500081,322.9123834000202,324.98627890006173,None,False,3,['p'],False,0.4081632653061224,0.5714285714285714,0.2857142857142857,2.0,1.0,0.9885754083994552,-0.2857142857142857,wait_cost,1,2,322.9123834000202,None,3,uk5,3,2022-04-08_15h42.15.949,threat_forest,2021.2.3,60.22721317572015,
7,0,7,0,4,0,4,0,,,,,,,,,,left,2.2558168000541627,332.459181800019,uk5,320.898096500081,322.9123834000202,332.459181800019,None,False,2,['p'],False,0.4081632653061224,0.5714285714285714,0.2857142857142857,2.0,1.0,0.9885754083994552,-0.5918367346938775,wait_cost,1,1,328.9404153000796,None,2,uk5,3,2022-04-08_15h42.15.949,threat_forest,2021.2.3,60.22721317572015,
7,0,7,0,5,0,5,0,,,,,,,,,,right,1.0613403000170365,339.9312720000744,uk5,320.898096500081,322.9123834000202,339.9312720000744,None,True,1,['p'],False,0.4081632653061224,0.5714285714285714,0.2857142857142857,2.0,1.0,0.9885754083994552,0.4081632653061224,succ_gain,1,2,336.7497659000801,None,1,uk5,3,2022-04-08_15h42.15.949,threat_forest,2021.2.3,60.22721317572015,
7,0,7,0,6,0,6,0,,,,,,,,,,left,2.0949526999611408,343.5448453000281,uk5,320.898096500081,322.9123834000202,343.5448453000281,None,False,2,['p'],False,0.4081632653061224,0.5714285714285714,0.2857142857142857,2.0,1.0,0.9885754083994552,-0.5918367346938775,wait_cost,1,1,343.01065990002826,None,2,uk5,3,2022-04-08_15h42.15.949,threat_forest,2021.2.3,60.22721317572015,
7,0,7,0,7,0,7,0,,,,,,,,,,left,0.7512363001005724,348.8827491000993,uk5,348.8827491000993,None,345.6583190000383,347.67279130010866,True,1,['p'],True,0.5,0.5,0.0,0.0,1.0,0.6309297535714574,0.5,succ_gain,0,2,347.67279130010866,None,1,uk5,3,2022-04-08_15h42.15.949,threat_forest,2021.2.3,60.22721317572015,
7,0,7,0,,,,,,,,,,,,,,,,,,,,,,,,,,,,,,,,,,,,351.66932490002364,None,2,uk5,3,2022-04-08_15h42.15.949,threat_forest,2021.2.3,60.22721317572015,
8,0,8,0,0,0,0,0,,,,,,,352.8222633000696,356.3252037001075,None,left,1.8948885999852791,359.1271353000775,uk5,359.1271353000775,None,352.8222633000696,356.3252037001075,True,4,['p'],True,0.4444444444444445,0.6666666666666666,0.3333333333333333,1.0,1.0,0.9656336071428248,0.0,unsucc_cost,0,2,,,,uk5,3,2022-04-08_15h42.15.949,threat_forest,2021.2.3,60.22721317572015,
8,0,8,0,1,0,1,0,,,,,,,,,,right,2.0710900999838486,365.7421405001078,uk5,365.7421405001078,None,352.8222633000696,356.3252037001075,False,2,['p'],True,0.4444444444444445,0.6666666666666666,0.3333333333333333,1.0,1.0,0.9656336071428248,-0.5555555555555556,wait_cost,0,1,363.058426600066,None,2,uk5,3,2022-04-08_15h42.15.949,threat_forest,2021.2.3,60.22721317572015,
8,0,8,0,2,0,2,0,,,,,,,,,,right,0.5403014000039548,372.7969384000171,uk5,367.8374531000154,369.8521408000961,372.7969384000171,None,True,1,['p'],False,0.27,0.3,0.1,1.0,1.0,0.7963326591781347,0.27,unsucc_cost,1,0,369.8521408000961,None,1,uk5,3,2022-04-08_15h42.15.949,threat_forest,2021.2.3,60.22721317572015,
8,0,8,0,,,,,,,,,,,,,,,,,,,,,,,,,,,,,,,,,,,,375.3801914000651,None,0,uk5,3,2022-04-08_15h42.15.949,threat_forest,2021.2.3,60.22721317572015,
9,0,9,0,0,0,0,0,,,,,,,377.7446545000421,381.2584078001091,None,right,1.54621339996811,382.5411950000562,uk5,382.5411950000562,None,377.7446545000421,381.2584078001091,False,4,['r'],True,0.3333333333333333,0.3333333333333333,0.0,0.0,2.0,0.5793801642856949,0.0,wait_cost,0,3,,,,uk5,3,2022-04-08_15h42.15.949,threat_forest,2021.2.3,60.22721317572015,
9,0,9,0,1,0,1,0,,,,,,,,,,right,1.8383549000136554,388.7727235000348,uk5,388.7727235000348,None,377.7446545000421,381.2584078001091,False,3,['r'],True,0.3333333333333333,0.3333333333333333,0.0,0.0,2.0,0.5793801642856949,0.0,wait_cost,0,2,386.1202958000358,None,3,uk5,3,2022-04-08_15h42.15.949,threat_forest,2021.2.3,60.22721317572015,
9,0,9,0,2,0,2,0,,,,,,,,,,None,,395.70388660009485,uk5,390.63285400008317,392.6473930000793,395.70388660009485,None,None,2,['r'],False,0.24,0.4,0.4,2.0,2.0,0.9801625908629508,-0.76,wait_cost,1,1,392.6473930000793,None,2,uk5,3,2022-04-08_15h42.15.949,threat_forest,2021.2.3,60.22721317572015,
9,0,9,0,3,0,3,0,,,,,,,,,,right,0.9658130999887362,401.4559175000759,uk5,390.63285400008317,392.6473930000793,401.4559175000759,None,True,1,['r'],False,0.24,0.4,0.4,2.0,2.0,0.9801625908629508,0.24,unsucc_cost,1,0,400.7231771000661,None,1,uk5,3,2022-04-08_15h42.15.949,threat_forest,2021.2.3,60.22721317572015,
9,0,9,0,,,,,,,,,,,,,,,,,,,,,,,,,,,,,,,,,,,,404.45321230008267,None,0,uk5,3,2022-04-08_15h42.15.949,threat_forest,2021.2.3,60.22721317572015,
10,0,10,0,0,0,0,0,,,,,,,408.035634900094,411.53514370007906,None,right,1.7245445000007749,414.424118700088,uk5,408.035634900094,411.53514370007906,414.424118700088,None,True,5,['p'],False,0.46875,0.625,0.25,2.0,2.0,0.9634951148421658,0.0,unsucc_cost,1,3,,,,uk5,3,2022-04-08_15h42.15.949,threat_forest,2021.2.3,60.22721317572015,
10,0,10,0,1,0,1,0,,,,,,,,,,left,1.0694333999417722,421.64707420009654,uk5,421.64707420009654,None,416.1758676000172,418.1900946000824,True,3,['p'],True,0.6,0.6,0.0,0.0,2.0,0.6126016192893442,0.0,succ_gain,0,5,418.1900946000824,None,3,uk5,3,2022-04-08_15h42.15.949,threat_forest,2021.2.3,60.22721317572015,
10,0,10,0,2,0,2,0,,,,,,,,,,right,1.9101136000826955,427.9907283000648,uk5,422.7360154000344,424.75082140008453,427.9907283000648,None,True,5,['p'],False,0.46875,0.625,0.25,2.0,2.0,0.9634951148421658,0.0,succ_gain,1,6,424.75082140008453,None,5,uk5,3,2022-04-08_15h42.15.949,threat_forest,2021.2.3,60.22721317572015,
10,0,10,0,3,0,3,0,,,,,,,,,,right,1.5001954999752343,435.1033045001095,uk5,435.1033045001095,None,429.9297238000436,431.9274183000671,False,6,['p'],True,0.6,0.6,0.0,0.0,2.0,0.6126016192893442,0.0,wait_cost,0,5,431.9274183000671,None,6,uk5,3,2022-04-08_15h42.15.949,threat_forest,2021.2.3,60.22721317572015,
10,0,10,0,4,0,4,0,,,,,,,,,,right,1.022073799977079,440.31241040001623,uk5,440.31241040001623,None,429.9297238000436,431.9274183000671,False,5,['p'],True,0.6,0.6,0.0,0.0,2.0,0.6126016192893442,0.0,wait_cost,0,4,438.6380941000534,None,5,uk5,3,2022-04-08_15h42.15.949,threat_forest,2021.2.3,60.22721317572015,
10,0,10,0,5,0,5,0,,,,,,,,,,right,0.5681244999868795,445.0894437000388,uk5,445.0894437000388,None,429.9297238000436,431.9274183000671,False,4,['p'],True,0.6,0.6,0.0,0.0,2.0,0.6126016192893442,0.0,wait_cost,0,3,443.36665960005485,None,4,uk5,3,2022-04-08_15h42.15.949,threat_forest,2021.2.3,60.22721317572015,
10,0,10,0,6,0,6,0,,,,,,,,,,left,1.2847356999991462,449.5040018000873,uk5,445.68841450009495,447.69592560001183,449.5040018000873,None,False,3,['p'],False,0.46875,0.625,0.25,2.0,2.0,0.9634951148421658,-0.25,wait_cost,1,2,447.69592560001183,None,3,uk5,3,2022-04-08_15h42.15.949,threat_forest,2021.2.3,60.22721317572015,
10,0,10,0,7,0,7,0,,,,,,,,,,right,1.232520299963653,454.4836056000786,uk5,454.4836056000786,None,450.81016980006825,452.82463290006854,False,2,['p'],True,0.6,0.6,0.0,0.0,2.0,0.6126016192893442,-0.4,wait_cost,0,1,452.82463290006854,None,2,uk5,3,2022-04-08_15h42.15.949,threat_forest,2021.2.3,60.22721317572015,
10,0,10,0,,,,,,,,,,,,,,,,,,,,,,,,,,,,,,,,,,,,457.75364970008377,None,1,uk5,3,2022-04-08_15h42.15.949,threat_forest,2021.2.3,60.22721317572015,
11,0,11,0,0,0,0,0,,,,,,,461.0465262000216,464.54927850002423,None,right,2.0209587999852374,465.8609905000776,uk5,465.8609905000776,None,461.0465262000216,464.54927850002423,False,4,['r'],True,0.4444444444444445,0.6666666666666666,0.3333333333333333,1.0,1.0,0.9656336071428248,0.0,wait_cost,0,3,,,,uk5,3,2022-04-08_15h42.15.949,threat_forest,2021.2.3,60.22721317572015,
11,0,11,0,1,0,1,0,,,,,,,,,,right,1.6234067999757826,470.9160328001017,uk5,470.9160328001017,None,461.0465262000216,464.54927850002423,False,3,['r'],True,0.4444444444444445,0.6666666666666666,0.3333333333333333,1.0,1.0,0.9656336071428248,-0.3333333333333333,wait_cost,0,2,469.92511130007915,None,3,uk5,3,2022-04-08_15h42.15.949,threat_forest,2021.2.3,60.22721317572015,
11,0,11,0,2,0,2,0,,,,,,,,,,right,1.702659699949436,475.3148335000733,uk5,475.3148335000733,None,461.0465262000216,464.54927850002423,False,2,['r'],True,0.4444444444444445,0.6666666666666666,0.3333333333333333,1.0,1.0,0.9656336071428248,-0.5555555555555556,wait_cost,0,1,474.57049840001855,None,2,uk5,3,2022-04-08_15h42.15.949,threat_forest,2021.2.3,60.22721317572015,
11,0,11,0,3,0,3,0,,,,,,,,,,right,1.0291343999560922,479.8725823001005,uk5,477.03570880007464,479.0497704000445,479.8725823001005,None,True,1,['r'],False,0.1875,0.25,0.25,2.0,1.0,0.895754137500101,0.1875,unsucc_cost,1,0,479.0497704000445,None,1,uk5,3,2022-04-08_15h42.15.949,threat_forest,2021.2.3,60.22721317572015,
11,0,11,0,,,,,,,,,,,,,,,,,,,,,,,,,,,,,,,,,,,,482.94640860008076,None,0,uk5,3,2022-04-08_15h42.15.949,threat_forest,2021.2.3,60.22721317572015,
12,0,12,0,0,0,0,0,,,,,,,484.18447130010463,487.6890943000326,None,right,2.240286099957302,488.45450420002453,uk5,488.45450420002453,None,484.18447130010463,487.6890943000326,False,5,['p'],True,0.2857142857142857,0.2857142857142857,0.0,0.0,2.0,0.5445684476282007,0.0,wait_cost,0,4,,,,uk5,3,2022-04-08_15h42.15.949,threat_forest,2021.2.3,60.22721317572015,
12,0,12,0,1,0,1,0,,,,,,,,,,left,2.3617786000249907,496.0119364000857,uk5,490.71827870002016,492.72049630002584,496.0119364000857,None,False,4,['p'],False,0.24,0.3,0.2,2.0,2.0,0.9003120349047065,0.0,wait_cost,1,3,492.72049630002584,None,4,uk5,3,2022-04-08_15h42.15.949,threat_forest,2021.2.3,60.22721317572015,
12,0,12,0,2,0,2,0,,,,,,,,,,right,1.6482254998991266,501.30297690001316,uk5,490.71827870002016,492.72049630002584,501.30297690001316,None,True,3,['p'],False,0.24,0.3,0.2,2.0,2.0,0.9003120349047065,-0.2,unsucc_cost,1,1,500.41346700000577,None,3,uk5,3,2022-04-08_15h42.15.949,threat_forest,2021.2.3,60.22721317572015,
12,0,12,0,3,0,3,0,,,,,,,,,,left,0.6352894000010565,506.8535531000234,uk5,506.8535531000234,None,502.9781860000221,504.99248260003515,True,1,['p'],True,0.2857142857142857,0.2857142857142857,0.0,0.0,2.0,0.5445684476282007,0.2857142857142857,fight_cost,0,0,504.99248260003515,None,1,uk5,3,2022-04-08_15h42.15.949,threat_forest,2021.2.3,60.22721317572015,
12,0,12,0,,,,,,,,,,,,,,,,,,,,,,,,,,,,,,,,,,,,509.5214875000529,None,0,uk5,3,2022-04-08_15h42.15.949,threat_forest,2021.2.3,60.22721317572015,
13,0,13,0,0,0,0,0,,,,,,,510.4114497000119,513.916550300084,None,right,2.6714891999727115,514.5317307000514,uk5,514.5317307000514,None,510.4114497000119,513.916550300084,False,4,['r'],True,0.2777777777777778,0.3333333333333333,0.1666666666666666,1.0,2.0,0.8929352898779304,0.0,wait_cost,0,3,,,,uk5,3,2022-04-08_15h42.15.949,threat_forest,2021.2.3,60.22721317572015,
13,0,13,0,1,0,1,0,,,,,,,,,,left,1.869138199952431,520.8482884000987,uk5,520.8482884000987,None,510.4114497000119,513.916550300084,True,3,['r'],True,0.2777777777777778,0.3333333333333333,0.1666666666666666,1.0,2.0,0.8929352898779304,-0.1666666666666666,fight_cost,0,0,519.2457908000797,None,3,uk5,3,2022-04-08_15h42.15.949,threat_forest,2021.2.3,60.22721317572015,
13,0,13,0,,,,,,,,,,,,,,,,,,,,,,,,,,,,,,,,,,,,524.7573693000013,None,0,uk5,3,2022-04-08_15h42.15.949,threat_forest,2021.2.3,60.22721317572015,
14,0,14,0,0,0,0,0,,,,,,,526.8895448000403,530.3896807000274,None,right,1.3513264000648633,533.7577099000337,uk5,533.7577099000337,None,526.8895448000403,530.3896807000274,False,4,['p'],True,0.4,0.4,0.0,0.0,2.0,0.6126016192893442,0.0,wait_cost,0,3,,,,uk5,3,2022-04-08_15h42.15.949,threat_forest,2021.2.3,60.22721317572015,
14,0,14,0,1,0,1,0,,,,,,,,,,right,1.6256422000005841,539.321937700035,uk5,535.1313632000238,537.145850900095,539.321937700035,None,True,3,['p'],False,0.3333333333333333,0.5,0.3333333333333333,2.0,2.0,1.0,-0.3333333333333333,succ_gain,1,5,537.145850900095,None,3,uk5,3,2022-04-08_15h42.15.949,threat_forest,2021.2.3,60.22721317572015,
14,0,14,0,2,0,2,0,,,,,,,,,,right,0.9881274000508711,544.3673475000542,uk5,544.3673475000542,None,540.9758089000825,542.9898587000789,False,5,['p'],True,0.4,0.4,0.0,0.0,2.0,0.6126016192893442,0.0,wait_cost,0,4,542.9898587000789,None,5,uk5,3,2022-04-08_15h42.15.949,threat_forest,2021.2.3,60.22721317572015,
14,0,14,0,3,0,3,0,,,,,,,,,,right,1.6402368999551982,548.6269972000737,uk5,545.3888887000503,547.3860445000464,548.6269972000737,None,True,4,['p'],False,0.3333333333333333,0.5,0.3333333333333333,2.0,2.0,1.0,0.0,unsucc_cost,1,2,547.3860445000464,None,4,uk5,3,2022-04-08_15h42.15.949,threat_forest,2021.2.3,60.22721317572015,
14,0,14,0,4,0,4,0,,,,,,,,,,right,0.8537540000397712,553.074057900114,uk5,553.074057900114,None,550.2858793000923,552.2982473000884,False,2,['p'],True,0.4,0.4,0.0,0.0,2.0,0.6126016192893442,-0.6,wait_cost,0,1,552.2982473000884,None,2,uk5,3,2022-04-08_15h42.15.949,threat_forest,2021.2.3,60.22721317572015,
14,0,14,0,5,0,5,0,,,,,,,,,,right,2.0156769999302924,559.5654542000266,uk5,553.946808500099,555.9613641001051,559.5654542000266,None,True,1,['p'],False,0.3333333333333333,0.5,0.3333333333333333,2.0,2.0,1.0,0.3333333333333332,succ_gain,1,3,555.9613641001051,None,1,uk5,3,2022-04-08_15h42.15.949,threat_forest,2021.2.3,60.22721317572015,
14,0,14,0,6,0,6,0,,,,,,,,,,right,1.2447180999442935,566.6439476000378,uk5,566.6439476000378,None,561.6065951000201,563.6211038000183,False,3,['p'],True,0.4,0.4,0.0,0.0,2.0,0.6126016192893442,0.0,wait_cost,0,2,563.6211038000183,None,3,uk5,3,2022-04-08_15h42.15.949,threat_forest,2021.2.3,60.22721317572015,
14,0,14,0,7,0,7,0,,,,,,,,,,right,0.8864644999848679,572.3676348000299,uk5,572.3676348000299,None,561.6065951000201,563.6211038000183,False,2,['p'],True,0.4,0.4,0.0,0.0,2.0,0.6126016192893442,-0.6,wait_cost,0,1,569.9316484000301,None,2,uk5,3,2022-04-08_15h42.15.949,threat_forest,2021.2.3,60.22721317572015,
14,0,14,0,,,,,,,,,,,,,,,,,,,,,,,,,,,,,,,,,,,,575.2935217000777,None,1,uk5,3,2022-04-08_15h42.15.949,threat_forest,2021.2.3,60.22721317572015,
15,0,15,0,0,0,0,0,,,,,,,578.0426181000657,581.5359240000835,None,left,1.6034024000400677,584.6697784001008,uk5,584.6697784001008,None,578.0426181000657,581.5359240000835,True,4,['r'],True,0.625,0.625,0.0,0.0,2.0,0.6021808102656677,0.0,unsucc_cost,0,2,,,,uk5,3,2022-04-08_15h42.15.949,threat_forest,2021.2.3,60.22721317572015,
15,0,15,0,1,0,1,0,,,,,,,,,,left,2.0256469999440014,590.290914400015,uk5,586.3002402000129,588.3146125000203,590.290914400015,None,False,2,['r'],False,0.5185185185185185,0.6666666666666666,0.2222222222222222,2.0,2.0,0.9327883776363328,-0.4814814814814815,wait_cost,1,1,588.3146125000203,None,2,uk5,3,2022-04-08_15h42.15.949,threat_forest,2021.2.3,60.22721317572015,
15,0,15,0,2,0,2,0,,,,,,,,,,left,1.0599161999998614,594.9522698000073,uk5,594.9522698000073,None,592.3444193000905,594.3420405000215,True,1,['r'],True,0.625,0.625,0.0,0.0,2.0,0.6021808102656677,0.625,fight_cost,0,0,594.3420405000215,None,1,uk5,3,2022-04-08_15h42.15.949,threat_forest,2021.2.3,60.22721317572015,
15,0,15,0,,,,,,,,,,,,,,,,,,,,,,,,,,,,,,,,,,,,598.0555857000872,None,0,uk5,3,2022-04-08_15h42.15.949,threat_forest,2021.2.3,60.22721317572015,
16,0,16,0,0,0,0,0,,,,,,,598.9256964001106,602.4348192000762,None,right,0.8558793000411242,603.5775854000822,uk5,598.9256964001106,602.4348192000762,603.5775854000822,None,True,4,['r'],False,0.36,0.6,0.4,2.0,2.0,0.9801625908629508,0.0,succ_gain,1,6,,,,uk5,3,2022-04-08_15h42.15.949,threat_forest,2021.2.3,60.22721317572015,
16,0,16,0,1,0,1,0,,,,,,,,,,right,0.8582913998980075,607.6739121000282,uk5,607.6739121000282,None,604.462046300061,606.4643231000518,False,6,['r'],True,0.5,0.5,0.0,0.0,2.0,0.6309297535714574,0.0,wait_cost,0,5,606.4643231000518,None,6,uk5,3,2022-04-08_15h42.15.949,threat_forest,2021.2.3,60.22721317572015,
16,0,16,0,2,0,2,0,,,,,,,,,,right,0.7797909000655636,611.5969312000088,uk5,611.5969312000088,None,604.462046300061,606.4643231000518,False,5,['r'],True,0.5,0.5,0.0,0.0,2.0,0.6309297535714574,0.0,wait_cost,0,4,610.5770157000516,None,5,uk5,3,2022-04-08_15h42.15.949,threat_forest,2021.2.3,60.22721317572015,
16,0,16,0,3,0,3,0,,,,,,,,,,left,1.711724599939771,616.6139147001086,uk5,612.4090962000191,614.4236545000458,616.6139147001086,None,False,4,['r'],False,0.36,0.6,0.4,2.0,2.0,0.9801625908629508,0.0,wait_cost,1,3,614.4236545000458,None,4,uk5,3,2022-04-08_15h42.15.949,threat_forest,2021.2.3,60.22721317572015,
16,0,16,0,4,0,4,0,,,,,,,,,,right,1.0670494999503717,621.606636300101,uk5,621.606636300101,None,618.353349900106,620.3677953000879,False,3,['r'],True,0.5,0.5,0.0,0.0,2.0,0.6309297535714574,0.0,wait_cost,0,2,620.3677953000879,None,3,uk5,3,2022-04-08_15h42.15.949,threat_forest,2021.2.3,60.22721317572015,
16,0,16,0,5,0,5,0,,,,,,,,,,left,0.7663524000672624,627.0832243000623,uk5,622.6994634000584,624.7137335001025,627.0832243000623,None,False,2,['r'],False,0.36,0.6,0.4,2.0,2.0,0.9801625908629508,-0.64,wait_cost,1,1,624.7137335001025,None,2,uk5,3,2022-04-08_15h42.15.949,threat_forest,2021.2.3,60.22721317572015,
16,0,16,0,6,0,6,0,,,,,,,,,,left,2.0124549999600276,632.3992946000071,uk5,632.3992946000071,None,627.8778826000635,629.8920432000887,True,1,['r'],True,0.5,0.5,0.0,0.0,2.0,0.6309297535714574,0.5,succ_gain,0,3,629.8920432000887,None,1,uk5,3,2022-04-08_15h42.15.949,threat_forest,2021.2.3,60.22721317572015,
16,0,16,0,7,0,7,0,,,,,,,,,,right,1.2227379000978544,637.308972400031,uk5,637.308972400031,None,627.8778826000635,629.8920432000887,False,3,['r'],True,0.5,0.5,0.0,0.0,2.0,0.6309297535714574,0.0,wait_cost,0,2,636.4531120000174,None,3,uk5,3,2022-04-08_15h42.15.949,threat_forest,2021.2.3,60.22721317572015,
16,0,16,0,,,,,,,,,,,,,,,,,,,,,,,,,,,,,,,,,,,,640.5658114000689,None,2,uk5,3,2022-04-08_15h42.15.949,threat_forest,2021.2.3,60.22721317572015,
17,0,17,0,0,0,0,0,,,,,,,642.6289038000396,646.1291866000975,None,right,2.1852585000451654,649.6148297000909,uk5,649.6148297000909,None,642.6289038000396,646.1291866000975,False,4,['r'],True,0.5,0.5,0.0,0.0,1.0,0.6309297535714574,0.0,wait_cost,0,3,,,,uk5,3,2022-04-08_15h42.15.949,threat_forest,2021.2.3,60.22721317572015,
17,0,17,0,1,0,1,0,,,,,,,,,,left,2.7773541000206023,657.1849683000473,uk5,657.1849683000473,None,642.6289038000396,646.1291866000975,True,3,['r'],True,0.5,0.5,0.0,0.0,1.0,0.6309297535714574,0.0,succ_gain,0,4,653.8367787000025,None,3,uk5,3,2022-04-08_15h42.15.949,threat_forest,2021.2.3,60.22721317572015,
17,0,17,0,2,0,2,0,,,,,,,,,,left,2.226355600054376,663.8586921000388,uk5,659.9814682001015,661.9959774001036,663.8586921000388,None,False,4,['r'],False,0.4081632653061224,0.5714285714285714,0.2857142857142857,2.0,1.0,0.9885754083994552,0.0,wait_cost,1,3,661.9959774001036,None,4,uk5,3,2022-04-08_15h42.15.949,threat_forest,2021.2.3,60.22721317572015,
17,0,17,0,3,0,3,0,,,,,,,,,,left,1.3914284999482334,671.6942954000551,uk5,659.9814682001015,661.9959774001036,671.6942954000551,None,False,3,['r'],False,0.4081632653061224,0.5714285714285714,0.2857142857142857,2.0,1.0,0.9885754083994552,-0.2857142857142857,wait_cost,1,2,668.1233155000955,None,3,uk5,3,2022-04-08_15h42.15.949,threat_forest,2021.2.3,60.22721317572015,
17,0,17,0,4,0,4,0,,,,,,,,,,left,2.6630562000209466,677.0390960000223,uk5,659.9814682001015,661.9959774001036,677.0390960000223,None,False,2,['r'],False,0.4081632653061224,0.5714285714285714,0.2857142857142857,2.0,1.0,0.9885754083994552,-0.5918367346938775,wait_cost,1,1,675.1170598000754,None,2,uk5,3,2022-04-08_15h42.15.949,threat_forest,2021.2.3,60.22721317572015,
17,0,17,0,5,0,5,0,,,,,,,,,,right,2.3974846999626607,684.5947100000922,uk5,659.9814682001015,661.9959774001036,684.5947100000922,None,True,1,['r'],False,0.4081632653061224,0.5714285714285714,0.2857142857142857,2.0,1.0,0.9885754083994552,0.4081632653061224,succ_gain,1,2,681.743935400038,None,1,uk5,3,2022-04-08_15h42.15.949,threat_forest,2021.2.3,60.22721317572015,
17,0,17,0,6,0,6,0,,,,,,,,,,None,,690.5737132000504,uk5,659.9814682001015,661.9959774001036,690.5737132000504,None,None,2,['r'],False,0.4081632653061224,0.5714285714285714,0.2857142857142857,2.0,1.0,0.9885754083994552,-0.5918367346938775,wait_cost,1,1,689.0201356000034,None,2,uk5,3,2022-04-08_15h42.15.949,threat_forest,2021.2.3,60.22721317572015,
17,0,17,0,7,0,7,0,,,,,,,,,,right,2.036229299963452,698.9831642000936,uk5,659.9814682001015,661.9959774001036,698.9831642000936,None,True,1,['r'],False,0.4081632653061224,0.5714285714285714,0.2857142857142857,2.0,1.0,0.9885754083994552,0.4081632653061224,succ_gain,1,2,695.5974901000736,None,1,uk5,3,2022-04-08_15h42.15.949,threat_forest,2021.2.3,60.22721317572015,
17,0,17,0,,,,,,,,,,,,,,,,,,,,,,,,,,,,,,,,,,,,703.0573695000494,None,2,uk5,3,2022-04-08_15h42.15.949,threat_forest,2021.2.3,60.22721317572015,
