miniblock.thisRepN,miniblock.thisTrialN,miniblock.thisN,miniblock.thisIndex,day.thisRepN,day.thisTrialN,day.thisN,day.thisIndex,welcoming.started,welcoming.stopped,key_resp_2.keys,key_resp_2.rt,key_resp_2.started,key_resp_2.stopped,forest.started,fixation_forest.started,fixation_forest.stopped,key_resp.keys,key_resp.rt,key_resp.started,Subject_ID,weather_left.started,weather_left.stopped,weather_right.started,weather_right.stopped,foraging T/F,in_LP,p/r heuristic,good_weather.T/F,p_succ_correct,p_succ_uncorrected,r_threat,n_oponents,gain_if_succ,weather_entropy,OP_value_difference,action_outcome,forest_side_L=0_R=1,out_LP,fixation_day.started,fixation_day.stopped,n_day-1.out_LP.,participant,session,date,expName,psychopyVersion,frameRate,
,,,,,,,,10.161111800000072,None,space,34.14581190003082,10.161111800000072,None,,,,,,,,,,,,,,,,,,,,,,,,,,,,,fj4,4,2022-05-05_12h04.06.322,threat_forest,2021.2.3,60.07474500739382,
0,0,0,0,0,0,0,0,,,,,,,44.36917319998611,47.87747930001933,None,left,0.9276677999878302,48.44234949990641,fj4,44.36917319998611,47.87747930001933,48.44234949990641,None,False,5,['r'],False,0.24,0.4,0.4,2.0,2.0,0.9801625908629508,0.0,wait_cost,1,4,,,,fj4,4,2022-05-05_12h04.06.322,threat_forest,2021.2.3,60.07474500739382,
0,0,0,0,1,0,1,0,,,,,,,,,,right,1.1027146000415087,52.12390839995351,fj4,52.12390839995351,None,49.39327499992214,51.407640199991874,False,4,['r'],True,0.3333333333333333,0.3333333333333333,0.0,0.0,2.0,0.5793801642856949,0.0,wait_cost,0,3,51.407640199991874,None,4,fj4,4,2022-05-05_12h04.06.322,threat_forest,2021.2.3,60.07474500739382,
0,0,0,0,2,0,2,0,,,,,,,,,,left,2.3779840000206605,59.01742960000411,fj4,59.01742960000411,None,49.39327499992214,51.407640199991874,True,3,['r'],True,0.3333333333333333,0.3333333333333333,0.0,0.0,2.0,0.5793801642856949,0.0,unsucc_cost,0,1,55.270680099958554,None,3,fj4,4,2022-05-05_12h04.06.322,threat_forest,2021.2.3,60.07474500739382,
0,0,0,0,3,0,3,0,,,,,,,,,,right,0.968834700062871,65.61140259995591,fj4,61.41524879995268,63.4297188000055,65.61140259995591,None,True,1,['r'],False,0.24,0.4,0.4,2.0,2.0,0.9801625908629508,0.24,fight_cost,1,0,63.4297188000055,None,1,fj4,4,2022-05-05_12h04.06.322,threat_forest,2021.2.3,60.07474500739382,
0,0,0,0,,,,,,,,,,,,,,,,,,,,,,,,,,,,,,,,,,,,68.6277724999236,None,0,fj4,4,2022-05-05_12h04.06.322,threat_forest,2021.2.3,60.07474500739382,
1,0,1,0,0,0,0,0,,,,,,,70.17244979995303,73.68677489995025,None,right,1.8213532000081614,75.76881799998228,fj4,70.17244979995303,73.68677489995025,75.76881799998228,None,True,4,['p'],False,0.2592592592592592,0.3333333333333333,0.2222222222222222,2.0,2.0,0.9327883776363324,0.0,fight_cost,1,1,,,,fj4,4,2022-05-05_12h04.06.322,threat_forest,2021.2.3,60.07474500739382,
1,0,1,0,1,0,1,0,,,,,,,,,,left,0.808395600062795,83.313407599926,fj4,83.313407599926,None,77.61667169991415,79.63121839996893,True,1,['p'],True,0.4444444444444445,0.6666666666666666,0.3333333333333333,1.0,2.0,0.9656336071428248,0.4444444444444444,fight_cost,0,0,79.63121839996893,None,1,fj4,4,2022-05-05_12h04.06.322,threat_forest,2021.2.3,60.07474500739382,
1,0,1,0,,,,,,,,,,,,,,,,,,,,,,,,,,,,,,,,,,,,86.15854350000154,None,0,fj4,4,2022-05-05_12h04.06.322,threat_forest,2021.2.3,60.07474500739382,
2,0,2,0,0,0,0,0,,,,,,,89.14380139997229,92.6523615999613,None,right,0.8730791000416502,96.45306369999889,fj4,96.45306369999889,None,89.14380139997229,92.6523615999613,False,5,['r'],True,0.5,0.5,0.0,0.0,2.0,0.6309297535714574,0.0,wait_cost,0,4,,,,fj4,4,2022-05-05_12h04.06.322,threat_forest,2021.2.3,60.07474500739382,
2,0,2,0,1,0,1,0,,,,,,,,,,right,1.8928530999692157,102.39407229993958,fj4,102.39407229993958,None,89.14380139997229,92.6523615999613,False,4,['r'],True,0.5,0.5,0.0,0.0,2.0,0.6309297535714574,0.0,wait_cost,0,3,99.36278039996978,None,4,fj4,4,2022-05-05_12h04.06.322,threat_forest,2021.2.3,60.07474500739382,
2,0,2,0,2,0,2,0,,,,,,,,,,right,1.7957929000258446,109.77016189997084,fj4,109.77016189997084,None,89.14380139997229,92.6523615999613,False,3,['r'],True,0.5,0.5,0.0,0.0,2.0,0.6309297535714574,0.0,wait_cost,0,2,106.32292179996148,None,3,fj4,4,2022-05-05_12h04.06.322,threat_forest,2021.2.3,60.07474500739382,
2,0,2,0,3,0,3,0,,,,,,,,,,right,1.2681357999099419,116.53040589997545,fj4,116.53040589997545,None,89.14380139997229,92.6523615999613,False,2,['r'],True,0.5,0.5,0.0,0.0,2.0,0.6309297535714574,-0.5,wait_cost,0,1,113.5994544000132,None,2,fj4,4,2022-05-05_12h04.06.322,threat_forest,2021.2.3,60.07474500739382,
2,0,2,0,4,0,4,0,,,,,,,,,,right,0.7751657000044361,121.67554610001389,fj4,117.82920849998482,119.84361629991326,121.67554610001389,None,True,1,['r'],False,0.36,0.6,0.4,2.0,2.0,0.9801625908629508,0.36,succ_gain,1,3,119.84361629991326,None,1,fj4,4,2022-05-05_12h04.06.322,threat_forest,2021.2.3,60.07474500739382,
2,0,2,0,5,0,5,0,,,,,,,,,,None,,127.65395049995277,fj4,117.82920849998482,119.84361629991326,127.65395049995277,None,None,3,['r'],False,0.36,0.6,0.4,2.0,2.0,0.9801625908629508,-0.4,wait_cost,1,2,124.48935739998706,None,3,fj4,4,2022-05-05_12h04.06.322,threat_forest,2021.2.3,60.07474500739382,
2,0,2,0,6,0,6,0,,,,,,,,,,right,1.4612021999200806,135.6801620000042,fj4,135.6801620000042,None,130.66713079996407,132.68161839991808,False,2,['r'],True,0.5,0.5,0.0,0.0,2.0,0.6309297535714574,-0.5,wait_cost,0,1,132.68161839991808,None,2,fj4,4,2022-05-05_12h04.06.322,threat_forest,2021.2.3,60.07474500739382,
2,0,2,0,7,0,7,0,,,,,,,,,,left,1.414976799977012,139.85889179992955,fj4,139.85889179992955,None,130.66713079996407,132.68161839991808,True,1,['r'],True,0.5,0.5,0.0,0.0,2.0,0.6309297535714574,0.5,unsucc_cost,0,0,139.17564739997033,None,1,fj4,4,2022-05-05_12h04.06.322,threat_forest,2021.2.3,60.07474500739382,
2,0,2,0,,,,,,,,,,,,,,,,,,,,,,,,,,,,,,,,,,,,143.3052157999482,None,0,fj4,4,2022-05-05_12h04.06.322,threat_forest,2021.2.3,60.07474500739382,
3,0,3,0,0,0,0,0,,,,,,,144.85723399999551,148.3670919999713,None,right,1.8843999000964686,151.1317437000107,fj4,151.1317437000107,None,144.85723399999551,148.3670919999713,False,4,['p'],True,0.25,0.25,0.0,0.0,1.0,0.5118595071429148,0.0,wait_cost,0,3,,,,fj4,4,2022-05-05_12h04.06.322,threat_forest,2021.2.3,60.07474500739382,
3,0,3,0,1,0,1,0,,,,,,,,,,right,2.274444599985145,157.59276819997467,fj4,157.59276819997467,None,144.85723399999551,148.3670919999713,False,3,['p'],True,0.25,0.25,0.0,0.0,1.0,0.5118595071429148,0.0,wait_cost,0,2,155.06117599993013,None,3,fj4,4,2022-05-05_12h04.06.322,threat_forest,2021.2.3,60.07474500739382,
3,0,3,0,2,0,2,0,,,,,,,,,,left,2.027625299990177,163.90276769991033,fj4,159.89017669996247,161.90430829999968,163.90276769991033,None,False,2,['p'],False,0.2222222222222222,0.6666666666666666,0.6666666666666666,2.0,1.0,0.77250688571426,-0.7777777777777778,wait_cost,1,1,161.90430829999968,None,2,fj4,4,2022-05-05_12h04.06.322,threat_forest,2021.2.3,60.07474500739382,
3,0,3,0,3,0,3,0,,,,,,,,,,right,0.682331099989824,170.76330879994202,fj4,159.89017669996247,161.90430829999968,170.76330879994202,None,True,1,['p'],False,0.2222222222222222,0.6666666666666666,0.6666666666666666,2.0,1.0,0.77250688571426,0.2222222222222222,fight_cost,1,0,167.96572759991977,None,1,fj4,4,2022-05-05_12h04.06.322,threat_forest,2021.2.3,60.07474500739382,
3,0,3,0,,,,,,,,,,,,,,,,,,,,,,,,,,,,,,,,,,,,173.47703089995775,None,0,fj4,4,2022-05-05_12h04.06.322,threat_forest,2021.2.3,60.07474500739382,
4,0,4,0,0,0,0,0,,,,,,,175.96309639990795,179.47134359995835,None,right,2.7488655999768525,181.3373763000127,fj4,175.96309639990795,179.47134359995835,181.3373763000127,None,True,4,['p'],False,0.4081632653061224,0.5714285714285714,0.2857142857142857,2.0,1.0,0.9885754083994552,0.0,unsucc_cost,1,2,,,,fj4,4,2022-05-05_12h04.06.322,threat_forest,2021.2.3,60.07474500739382,
4,0,4,0,1,0,1,0,,,,,,,,,,left,2.069898799993098,187.23109060002025,fj4,175.96309639990795,179.47134359995835,187.23109060002025,None,False,2,['p'],False,0.4081632653061224,0.5714285714285714,0.2857142857142857,2.0,1.0,0.9885754083994552,-0.5918367346938775,wait_cost,1,1,186.13178529997822,None,2,fj4,4,2022-05-05_12h04.06.322,threat_forest,2021.2.3,60.07474500739382,
4,0,4,0,2,0,2,0,,,,,,,,,,right,1.1173831999767572,193.70847249997314,fj4,175.96309639990795,179.47134359995835,193.70847249997314,None,True,1,['p'],False,0.4081632653061224,0.5714285714285714,0.2857142857142857,2.0,1.0,0.9885754083994552,0.4081632653061224,unsucc_cost,1,0,191.34354029991664,None,1,fj4,4,2022-05-05_12h04.06.322,threat_forest,2021.2.3,60.07474500739382,
4,0,4,0,,,,,,,,,,,,,,,,,,,,,,,,,,,,,,,,,,,,196.87193549994845,None,0,fj4,4,2022-05-05_12h04.06.322,threat_forest,2021.2.3,60.07474500739382,
5,0,5,0,0,0,0,0,,,,,,,198.296342000016,201.80045260000043,None,right,1.7234692999627441,205.29955879994668,fj4,205.29955879994668,None,198.296342000016,201.80045260000043,False,5,['r'],True,0.4444444444444445,0.6666666666666666,0.3333333333333333,1.0,1.0,0.9656336071428248,0.0,wait_cost,0,4,,,,fj4,4,2022-05-05_12h04.06.322,threat_forest,2021.2.3,60.07474500739382,
5,0,5,0,1,0,1,0,,,,,,,,,,right,2.151930100051686,211.29234249994624,fj4,211.29234249994624,None,198.296342000016,201.80045260000043,False,4,['r'],True,0.4444444444444445,0.6666666666666666,0.3333333333333333,1.0,1.0,0.9656336071428248,0.0,wait_cost,0,3,209.06041469995398,None,4,fj4,4,2022-05-05_12h04.06.322,threat_forest,2021.2.3,60.07474500739382,
5,0,5,0,2,0,2,0,,,,,,,,,,left,2.1589810999576002,218.78530200000387,fj4,213.47328419995029,215.48770459997468,218.78530200000387,None,False,3,['r'],False,0.27,0.3,0.1,1.0,1.0,0.7963326591781347,-0.1,wait_cost,1,2,215.48770459997468,None,3,fj4,4,2022-05-05_12h04.06.322,threat_forest,2021.2.3,60.07474500739382,
5,0,5,0,3,0,3,0,,,,,,,,,,right,1.6284209000878036,223.84738990000915,fj4,223.84738990000915,None,220.96610419999342,222.9806034999201,False,2,['r'],True,0.4444444444444445,0.6666666666666666,0.3333333333333333,1.0,1.0,0.9656336071428248,-0.5555555555555556,wait_cost,0,1,222.9806034999201,None,2,fj4,4,2022-05-05_12h04.06.322,threat_forest,2021.2.3,60.07474500739382,
5,0,5,0,4,0,4,0,,,,,,,,,,right,0.47645570000167936,229.74144539993722,fj4,225.49532139999792,227.50970279995818,229.74144539993722,None,True,1,['r'],False,0.27,0.3,0.1,1.0,1.0,0.7963326591781347,0.27,succ_gain,1,2,227.50970279995818,None,1,fj4,4,2022-05-05_12h04.06.322,threat_forest,2021.2.3,60.07474500739382,
5,0,5,0,5,0,5,0,,,,,,,,,,right,1.4442979000741616,234.4886299999198,fj4,234.4886299999198,None,230.2409050000133,232.25531829998363,False,2,['r'],True,0.4444444444444445,0.6666666666666666,0.3333333333333333,1.0,1.0,0.9656336071428248,-0.5555555555555556,wait_cost,0,1,232.25531829998363,None,2,fj4,4,2022-05-05_12h04.06.322,threat_forest,2021.2.3,60.07474500739382,
5,0,5,0,6,0,6,0,,,,,,,,,,right,0.8844098999397829,238.53307719994336,fj4,235.95224419992883,237.96661579993088,238.53307719994336,None,True,1,['r'],False,0.27,0.3,0.1,1.0,1.0,0.7963326591781347,0.27,unsucc_cost,1,0,237.96661579993088,None,1,fj4,4,2022-05-05_12h04.06.322,threat_forest,2021.2.3,60.07474500739382,
5,0,5,0,,,,,,,,,,,,,,,,,,,,,,,,,,,,,,,,,,,,241.46365549997427,None,0,fj4,4,2022-05-05_12h04.06.322,threat_forest,2021.2.3,60.07474500739382,
6,0,6,0,0,0,0,0,,,,,,,243.0881521999836,246.59190280002076,None,right,1.780862099956721,249.22488829994109,fj4,249.22488829994109,None,243.0881521999836,246.59190280002076,False,4,['r'],True,0.2,0.2,0.0,0.0,2.0,0.4554859150035951,0.0,wait_cost,0,3,,,,fj4,4,2022-05-05_12h04.06.322,threat_forest,2021.2.3,60.07474500739382,
6,0,6,0,1,0,1,0,,,,,,,,,,right,2.1464084000326693,256.63305629999377,fj4,256.63305629999377,None,243.0881521999836,246.59190280002076,False,3,['r'],True,0.2,0.2,0.0,0.0,2.0,0.4554859150035951,0.0,wait_cost,0,2,253.0525653999066,None,3,fj4,4,2022-05-05_12h04.06.322,threat_forest,2021.2.3,60.07474500739382,
6,0,6,0,2,0,2,0,,,,,,,,,,left,2.440944099915214,262.96023159998003,fj4,258.7976187999593,260.8120554999914,262.96023159998003,None,False,2,['r'],False,0.1728395061728395,0.2222222222222222,0.2222222222222222,2.0,2.0,0.8571721972794328,-0.8271604938271605,wait_cost,1,1,260.8120554999914,None,2,fj4,4,2022-05-05_12h04.06.322,threat_forest,2021.2.3,60.07474500739382,
6,0,6,0,3,0,3,0,,,,,,,,,,left,0.9470460000447929,270.10358609992545,fj4,270.10358609992545,None,265.4246528999647,267.43915779993404,True,1,['r'],True,0.2,0.2,0.0,0.0,2.0,0.4554859150035951,0.1999999999999999,succ_gain,0,3,267.43915779993404,None,1,fj4,4,2022-05-05_12h04.06.322,threat_forest,2021.2.3,60.07474500739382,
6,0,6,0,4,0,4,0,,,,,,,,,,right,1.230886199977249,274.8658953999402,fj4,274.8658953999402,None,265.4246528999647,267.43915779993404,False,3,['r'],True,0.2,0.2,0.0,0.0,2.0,0.4554859150035951,0.0,wait_cost,0,2,273.0838091999758,None,3,fj4,4,2022-05-05_12h04.06.322,threat_forest,2021.2.3,60.07474500739382,
6,0,6,0,5,0,5,0,,,,,,,,,,left,1.1483334000222385,281.27643829991575,fj4,276.1147288000211,278.12908799992874,281.27643829991575,None,False,2,['r'],False,0.1728395061728395,0.2222222222222222,0.2222222222222222,2.0,2.0,0.8571721972794328,-0.8271604938271605,wait_cost,1,1,278.12908799992874,None,2,fj4,4,2022-05-05_12h04.06.322,threat_forest,2021.2.3,60.07474500739382,
6,0,6,0,6,0,6,0,,,,,,,,,,left,0.8861547000706196,287.4222164999228,fj4,287.4222164999228,None,282.4421096999431,284.456573799951,True,1,['r'],True,0.2,0.2,0.0,0.0,2.0,0.4554859150035951,0.1999999999999999,succ_gain,0,3,284.456573799951,None,1,fj4,4,2022-05-05_12h04.06.322,threat_forest,2021.2.3,60.07474500739382,
6,0,6,0,7,0,7,0,,,,,,,,,,left,0.6685687999706715,291.83328099991195,fj4,288.3366433000192,290.35098669992294,291.83328099991195,None,False,3,['r'],False,0.1728395061728395,0.2222222222222222,0.2222222222222222,2.0,2.0,0.8571721972794328,-0.2222222222222222,wait_cost,1,2,290.35098669992294,None,3,fj4,4,2022-05-05_12h04.06.322,threat_forest,2021.2.3,60.07474500739382,
6,0,6,0,,,,,,,,,,,,,,,,,,,,,,,,,,,,,,,,,,,,294.54717779997736,None,2,fj4,4,2022-05-05_12h04.06.322,threat_forest,2021.2.3,60.07474500739382,
7,0,7,0,0,0,0,0,,,,,,,296.4412299999967,299.9419251999352,None,right,1.5004121999954805,301.9115686999867,fj4,301.9115686999867,None,296.4412299999967,299.9419251999352,False,5,['p'],True,0.2857142857142857,0.2857142857142857,0.0,0.0,2.0,0.5445684476282007,0.0,wait_cost,0,4,,,,fj4,4,2022-05-05_12h04.06.322,threat_forest,2021.2.3,60.07474500739382,
7,0,7,0,1,0,1,0,,,,,,,,,,right,2.257040499942377,308.53449709992856,fj4,308.53449709992856,None,296.4412299999967,299.9419251999352,False,4,['p'],True,0.2857142857142857,0.2857142857142857,0.0,0.0,2.0,0.5445684476282007,0.0,wait_cost,0,3,305.45365419995505,None,4,fj4,4,2022-05-05_12h04.06.322,threat_forest,2021.2.3,60.07474500739382,
7,0,7,0,2,0,2,0,,,,,,,,,,left,2.4222042999463156,313.67967749992386,fj4,310.81722450000234,312.83008139999583,313.67967749992386,None,False,3,['p'],False,0.24,0.3,0.2,2.0,2.0,0.9003120349047065,-0.2,wait_cost,1,2,312.83008139999583,None,3,fj4,4,2022-05-05_12h04.06.322,threat_forest,2021.2.3,60.07474500739382,
7,0,7,0,3,0,3,0,,,,,,,,,,left,1.3324156000744551,318.85819449997507,fj4,310.81722450000234,312.83008139999583,318.85819449997507,None,False,2,['p'],False,0.24,0.3,0.2,2.0,2.0,0.9003120349047065,-0.76,wait_cost,1,1,318.14180209999904,None,2,fj4,4,2022-05-05_12h04.06.322,threat_forest,2021.2.3,60.07474500739382,
7,0,7,0,4,0,4,0,,,,,,,,,,left,1.1473572999238968,325.5701999999583,fj4,325.5701999999583,None,320.22350600000937,322.23792330001015,True,1,['p'],True,0.2857142857142857,0.2857142857142857,0.0,0.0,2.0,0.5445684476282007,0.2857142857142857,unsucc_cost,0,0,322.23792330001015,None,1,fj4,4,2022-05-05_12h04.06.322,threat_forest,2021.2.3,60.07474500739382,
7,0,7,0,,,,,,,,,,,,,,,,,,,,,,,,,,,,,,,,,,,,328.74868780002,None,0,fj4,4,2022-05-05_12h04.06.322,threat_forest,2021.2.3,60.07474500739382,
8,0,8,0,0,0,0,0,,,,,,,332.1045274999924,335.6087505000178,None,left,1.9364833000581712,336.6082465000218,fj4,336.6082465000218,None,332.1045274999924,335.6087505000178,True,4,['r'],True,0.4,0.4,0.0,0.0,2.0,0.6126016192893442,0.0,succ_gain,0,6,,,,fj4,4,2022-05-05_12h04.06.322,threat_forest,2021.2.3,60.07474500739382,
8,0,8,0,1,0,1,0,,,,,,,,,,right,1.4099257999332622,341.78705389995594,fj4,341.78705389995594,None,332.1045274999924,335.6087505000178,False,6,['r'],True,0.4,0.4,0.0,0.0,2.0,0.6126016192893442,0.0,wait_cost,0,5,340.58743119996507,None,6,fj4,4,2022-05-05_12h04.06.322,threat_forest,2021.2.3,60.07474500739382,
8,0,8,0,2,0,2,0,,,,,,,,,,right,0.7804117000196129,347.29820339998696,fj4,347.29820339998696,None,332.1045274999924,335.6087505000178,False,5,['r'],True,0.4,0.4,0.0,0.0,2.0,0.6126016192893442,0.0,wait_cost,0,4,345.2331520000007,None,5,fj4,4,2022-05-05_12h04.06.322,threat_forest,2021.2.3,60.07474500739382,
8,0,8,0,3,0,3,0,,,,,,,,,,left,1.794904499896802,350.7971589999506,fj4,348.09743819991127,350.1118667999981,350.7971589999506,None,False,4,['r'],False,0.3061224489795918,0.4285714285714285,0.2857142857142857,2.0,2.0,0.9885754083994552,0.0,wait_cost,1,3,350.1118667999981,None,4,fj4,4,2022-05-05_12h04.06.322,threat_forest,2021.2.3,60.07474500739382,
8,0,8,0,4,0,4,0,,,,,,,,,,None,,355.39079490001313,fj4,355.39079490001313,None,352.6099192999536,354.62433049990796,None,3,['r'],True,0.4,0.4,0.0,0.0,2.0,0.6126016192893442,0.0,wait_cost,0,2,354.62433049990796,None,3,fj4,4,2022-05-05_12h04.06.322,threat_forest,2021.2.3,60.07474500739382,
8,0,8,0,5,0,5,0,,,,,,,,,,right,1.6232154000317678,361.0852613999741,fj4,361.0852613999741,None,352.6099192999536,354.62433049990796,False,2,['r'],True,0.4,0.4,0.0,0.0,2.0,0.6126016192893442,-0.6,wait_cost,0,1,360.41896079992875,None,2,fj4,4,2022-05-05_12h04.06.322,threat_forest,2021.2.3,60.07474500739382,
8,0,8,0,6,0,6,0,,,,,,,,,,left,0.8054833000060171,368.1958156999899,fj4,368.1958156999899,None,352.6099192999536,354.62433049990796,True,1,['r'],True,0.4,0.4,0.0,0.0,2.0,0.6126016192893442,0.4,succ_gain,0,3,364.74827649991494,None,1,fj4,4,2022-05-05_12h04.06.322,threat_forest,2021.2.3,60.07474500739382,
8,0,8,0,7,0,7,0,,,,,,,,,,left,0.7411391999339685,374.32358759990893,fj4,369.0278929999331,371.04237399995327,374.32358759990893,None,False,3,['r'],False,0.3061224489795918,0.4285714285714285,0.2857142857142857,2.0,2.0,0.9885754083994552,-0.2857142857142857,wait_cost,1,2,371.04237399995327,None,3,fj4,4,2022-05-05_12h04.06.322,threat_forest,2021.2.3,60.07474500739382,
8,0,8,0,,,,,,,,,,,,,,,,,,,,,,,,,,,,,,,,,,,,377.1033104999224,None,2,fj4,4,2022-05-05_12h04.06.322,threat_forest,2021.2.3,60.07474500739382,
9,0,9,0,0,0,0,0,,,,,,,379.2433205000125,382.74808059993666,None,right,1.982577099930495,385.14883169997483,fj4,385.14883169997483,None,379.2433205000125,382.74808059993666,False,5,['r'],True,0.4444444444444445,0.6666666666666666,0.3333333333333333,1.0,2.0,0.9656336071428248,0.0,wait_cost,0,4,,,,fj4,4,2022-05-05_12h04.06.322,threat_forest,2021.2.3,60.07474500739382,
9,0,9,0,1,0,1,0,,,,,,,,,,left,2.0786618000129238,390.4580073999241,fj4,390.4580073999241,None,379.2433205000125,382.74808059993666,True,4,['r'],True,0.4444444444444445,0.6666666666666666,0.3333333333333333,1.0,2.0,0.9656336071428248,0.0,unsucc_cost,0,2,389.1753313000081,None,4,fj4,4,2022-05-05_12h04.06.322,threat_forest,2021.2.3,60.07474500739382,
9,0,9,0,2,0,2,0,,,,,,,,,,right,1.8765831999480724,395.28738479991443,fj4,395.28738479991443,None,379.2433205000125,382.74808059993666,False,2,['r'],True,0.4444444444444445,0.6666666666666666,0.3333333333333333,1.0,2.0,0.9656336071428248,-0.5555555555555556,wait_cost,0,1,394.57033519994,None,2,fj4,4,2022-05-05_12h04.06.322,threat_forest,2021.2.3,60.07474500739382,
9,0,9,0,3,0,3,0,,,,,,,,,,right,0.7925630001118407,402.6800364999799,fj4,397.18949179991614,399.1993788999971,402.6800364999799,None,True,1,['r'],False,0.27,0.3,0.1,1.0,2.0,0.7963326591781347,0.27,succ_gain,1,3,399.1993788999971,None,1,fj4,4,2022-05-05_12h04.06.322,threat_forest,2021.2.3,60.07474500739382,
9,0,9,0,4,0,4,0,,,,,,,,,,left,1.634990599937737,406.94276749994606,fj4,397.18949179991614,399.1993788999971,406.94276749994606,None,False,3,['r'],False,0.27,0.3,0.1,1.0,2.0,0.7963326591781347,-0.1,wait_cost,1,2,405.5100779000204,None,3,fj4,4,2022-05-05_12h04.06.322,threat_forest,2021.2.3,60.07474500739382,
9,0,9,0,5,0,5,0,,,,,,,,,,right,1.0611091000027955,414.3039190999698,fj4,414.3039190999698,None,408.60750189993996,410.6220165999839,False,2,['r'],True,0.4444444444444445,0.6666666666666666,0.3333333333333333,1.0,2.0,0.9656336071428248,-0.5555555555555556,wait_cost,0,1,410.6220165999839,None,2,fj4,4,2022-05-05_12h04.06.322,threat_forest,2021.2.3,60.07474500739382,
9,0,9,0,6,0,6,0,,,,,,,,,,left,0.8992918999865651,421.0467073000036,fj4,421.0467073000036,None,408.60750189993996,410.6220165999839,True,1,['r'],True,0.4444444444444445,0.6666666666666666,0.3333333333333333,1.0,2.0,0.9656336071428248,0.4444444444444444,fight_cost,0,0,417.3990339000011,None,1,fj4,4,2022-05-05_12h04.06.322,threat_forest,2021.2.3,60.07474500739382,
9,0,9,0,,,,,,,,,,,,,,,,,,,,,,,,,,,,,,,,,,,,423.99297729996033,None,0,fj4,4,2022-05-05_12h04.06.322,threat_forest,2021.2.3,60.07474500739382,
10,0,10,0,0,0,0,0,,,,,,,426.1481980999233,429.6542069999268,None,right,1.0268108000745997,433.3847503999714,fj4,433.3847503999714,None,426.1481980999233,429.6542069999268,False,4,['r'],True,0.5,0.5,0.0,0.0,2.0,0.6309297535714574,0.0,wait_cost,0,3,,,,fj4,4,2022-05-05_12h04.06.322,threat_forest,2021.2.3,60.07474500739382,
10,0,10,0,1,0,1,0,,,,,,,,,,right,1.1137950000120327,439.39578539994545,fj4,439.39578539994545,None,426.1481980999233,429.6542069999268,False,3,['r'],True,0.5,0.5,0.0,0.0,2.0,0.6309297535714574,0.0,wait_cost,0,2,436.4478637999855,None,3,fj4,4,2022-05-05_12h04.06.322,threat_forest,2021.2.3,60.07474500739382,
10,0,10,0,2,0,2,0,,,,,,,,,,right,0.8755301999626681,445.3232745999703,fj4,445.3232745999703,None,426.1481980999233,429.6542069999268,False,2,['r'],True,0.5,0.5,0.0,0.0,2.0,0.6309297535714574,-0.5,wait_cost,0,1,442.5421438999474,None,2,fj4,4,2022-05-05_12h04.06.322,threat_forest,2021.2.3,60.07474500739382,
10,0,10,0,3,0,3,0,,,,,,,,,,left,0.9411752999294549,450.21897879999597,fj4,450.21897879999597,None,426.1481980999233,429.6542069999268,True,1,['r'],True,0.5,0.5,0.0,0.0,2.0,0.6309297535714574,0.5,succ_gain,0,3,448.2371352999471,None,1,fj4,4,2022-05-05_12h04.06.322,threat_forest,2021.2.3,60.07474500739382,
10,0,10,0,4,0,4,0,,,,,,,,,,right,1.0254975999705493,456.94570119993296,fj4,451.1846940999385,453.19886749994475,456.94570119993296,None,True,3,['r'],False,0.2222222222222222,0.6666666666666666,0.6666666666666666,2.0,2.0,0.77250688571426,-0.6666666666666666,succ_gain,1,5,453.19886749994475,None,3,fj4,4,2022-05-05_12h04.06.322,threat_forest,2021.2.3,60.07474500739382,
10,0,10,0,5,0,5,0,,,,,,,,,,left,1.0908386000664905,463.55701609991957,fj4,451.1846940999385,453.19886749994475,463.55701609991957,None,False,5,['r'],False,0.2222222222222222,0.6666666666666666,0.6666666666666666,2.0,2.0,0.77250688571426,0.0,wait_cost,1,4,460.0092421999434,None,5,fj4,4,2022-05-05_12h04.06.322,threat_forest,2021.2.3,60.07474500739382,
10,0,10,0,6,0,6,0,,,,,,,,,,right,0.46981769998092204,469.0344182999106,fj4,469.0344182999106,None,464.67188029992394,466.68952569994144,False,4,['r'],True,0.5,0.5,0.0,0.0,2.0,0.6309297535714574,0.0,wait_cost,0,3,466.68952569994144,None,4,fj4,4,2022-05-05_12h04.06.322,threat_forest,2021.2.3,60.07474500739382,
10,0,10,0,7,0,7,0,,,,,,,,,,right,0.6017730999737978,472.14861119992565,fj4,472.14861119992565,None,464.67188029992394,466.68952569994144,False,3,['r'],True,0.5,0.5,0.0,0.0,2.0,0.6309297535714574,0.0,wait_cost,0,2,471.5485185999423,None,3,fj4,4,2022-05-05_12h04.06.322,threat_forest,2021.2.3,60.07474500739382,
10,0,10,0,,,,,,,,,,,,,,,,,,,,,,,,,,,,,,,,,,,,474.79548400000203,None,2,fj4,4,2022-05-05_12h04.06.322,threat_forest,2021.2.3,60.07474500739382,
11,0,11,0,0,0,0,0,,,,,,,477.3005028999178,480.8017977999989,None,left,1.0383295000065118,483.86346709995996,fj4,477.3005028999178,480.8017977999989,483.86346709995996,None,False,5,['r'],False,0.4081632653061224,0.5714285714285714,0.2857142857142857,2.0,2.0,0.9885754083994552,0.0,wait_cost,1,4,,,,fj4,4,2022-05-05_12h04.06.322,threat_forest,2021.2.3,60.07474500739382,
11,0,11,0,1,0,1,0,,,,,,,,,,left,1.055492499959655,487.9001440999564,fj4,487.9001440999564,None,484.9197680999059,486.93402079993393,True,4,['r'],True,0.5,0.5,0.0,0.0,2.0,0.6309297535714574,0.0,succ_gain,0,6,486.93402079993393,None,4,fj4,4,2022-05-05_12h04.06.322,threat_forest,2021.2.3,60.07474500739382,
11,0,11,0,2,0,2,0,,,,,,,,,,left,1.4385110000148416,492.9969179999316,fj4,488.98249439999927,490.99692999990657,492.9969179999316,None,False,6,['r'],False,0.4081632653061224,0.5714285714285714,0.2857142857142857,2.0,2.0,0.9885754083994552,0.0,wait_cost,1,5,490.99692999990657,None,6,fj4,4,2022-05-05_12h04.06.322,threat_forest,2021.2.3,60.07474500739382,
11,0,11,0,3,0,3,0,,,,,,,,,,left,1.0489898000378162,499.15637219999917,fj4,488.98249439999927,490.99692999990657,499.15637219999917,None,False,5,['r'],False,0.4081632653061224,0.5714285714285714,0.2857142857142857,2.0,2.0,0.9885754083994552,0.0,wait_cost,1,4,496.47513539996,None,5,fj4,4,2022-05-05_12h04.06.322,threat_forest,2021.2.3,60.07474500739382,
11,0,11,0,4,0,4,0,,,,,,,,,,left,1.5234167999587953,504.5346560999751,fj4,488.98249439999927,490.99692999990657,504.5346560999751,None,False,4,['r'],False,0.4081632653061224,0.5714285714285714,0.2857142857142857,2.0,2.0,0.9885754083994552,0.0,wait_cost,1,3,502.2364833999891,None,4,fj4,4,2022-05-05_12h04.06.322,threat_forest,2021.2.3,60.07474500739382,
11,0,11,0,5,0,5,0,,,,,,,,,,left,0.6770583000034094,509.18045109999366,fj4,509.18045109999366,None,506.0832001999952,508.0976661000168,True,3,['r'],True,0.5,0.5,0.0,0.0,2.0,0.6309297535714574,0.0,succ_gain,0,5,508.0976661000168,None,3,fj4,4,2022-05-05_12h04.06.322,threat_forest,2021.2.3,60.07474500739382,
11,0,11,0,6,0,6,0,,,,,,,,,,left,0.4245229000225663,514.4438945999136,fj4,509.8795641999459,511.8941068999702,514.4438945999136,None,False,5,['r'],False,0.4081632653061224,0.5714285714285714,0.2857142857142857,2.0,2.0,0.9885754083994552,0.0,wait_cost,1,4,511.8941068999702,None,5,fj4,4,2022-05-05_12h04.06.322,threat_forest,2021.2.3,60.07474500739382,
11,0,11,0,7,0,7,0,,,,,,,,,,left,0.6657240999629721,517.4397108999547,fj4,509.8795641999459,511.8941068999702,517.4397108999547,None,False,4,['r'],False,0.4081632653061224,0.5714285714285714,0.2857142857142857,2.0,2.0,0.9885754083994552,0.0,wait_cost,1,3,516.9064951000037,None,4,fj4,4,2022-05-05_12h04.06.322,threat_forest,2021.2.3,60.07474500739382,
11,0,11,0,,,,,,,,,,,,,,,,,,,,,,,,,,,,,,,,,,,,520.1363978999434,None,3,fj4,4,2022-05-05_12h04.06.322,threat_forest,2021.2.3,60.07474500739382,
12,0,12,0,0,0,0,0,,,,,,,521.8005639999174,525.2914777999977,None,right,1.0864045000635087,527.4139729000162,fj4,527.4139729000162,None,521.8005639999174,525.2914777999977,False,5,['p'],True,0.2222222222222222,0.3333333333333333,0.3333333333333333,2.0,2.0,0.9656336071428248,0.0,wait_cost,0,4,,,,fj4,4,2022-05-05_12h04.06.322,threat_forest,2021.2.3,60.07474500739382,
12,0,12,0,1,0,1,0,,,,,,,,,,left,1.599087500013411,533.0291510999668,fj4,528.5289036999457,530.5434885999421,533.0291510999668,None,False,4,['p'],False,0.16,0.2,0.2,2.0,2.0,0.8198746470064713,0.0,wait_cost,1,3,530.5434885999421,None,4,fj4,4,2022-05-05_12h04.06.322,threat_forest,2021.2.3,60.07474500739382,
12,0,12,0,2,0,2,0,,,,,,,,,,right,1.4068686000537127,539.9526118999347,fj4,539.9526118999347,None,534.6566041000187,536.6709381999681,False,3,['p'],True,0.2222222222222222,0.3333333333333333,0.3333333333333333,2.0,2.0,0.9656336071428248,-0.3333333333333333,wait_cost,0,2,536.6709381999681,None,3,fj4,4,2022-05-05_12h04.06.322,threat_forest,2021.2.3,60.07474500739382,
12,0,12,0,3,0,3,0,,,,,,,,,,right,1.824897599988617,544.5806202999083,fj4,544.5806202999083,None,534.6566041000187,536.6709381999681,False,2,['p'],True,0.2222222222222222,0.3333333333333333,0.3333333333333333,2.0,2.0,0.9656336071428248,-0.7777777777777779,wait_cost,0,1,543.3979504000163,None,2,fj4,4,2022-05-05_12h04.06.322,threat_forest,2021.2.3,60.07474500739382,
12,0,12,0,4,0,4,0,,,,,,,,,,right,0.6594628000166267,551.1759616999188,fj4,546.4288327000104,548.4432424999541,551.1759616999188,None,True,1,['p'],False,0.16,0.2,0.2,2.0,2.0,0.8198746470064713,0.1599999999999999,fight_cost,1,0,548.4432424999541,None,1,fj4,4,2022-05-05_12h04.06.322,threat_forest,2021.2.3,60.07474500739382,
12,0,12,0,,,,,,,,,,,,,,,,,,,,,,,,,,,,,,,,,,,,553.8716892999364,None,0,fj4,4,2022-05-05_12h04.06.322,threat_forest,2021.2.3,60.07474500739382,
13,0,13,0,0,0,0,0,,,,,,,555.0931454999372,558.6004676999291,None,None,,560.7325351999607,fj4,560.7325351999607,None,555.0931454999372,558.6004676999291,None,5,['p'],True,0.3333333333333333,0.3333333333333333,0.0,0.0,2.0,0.5793801642856949,0.0,wait_cost,0,4,,,,fj4,4,2022-05-05_12h04.06.322,threat_forest,2021.2.3,60.07474500739382,
13,0,13,0,1,0,1,0,,,,,,,,,,left,1.519821499940008,567.8426549999276,fj4,567.8426549999276,None,555.0931454999372,558.6004676999291,True,4,['p'],True,0.3333333333333333,0.3333333333333333,0.0,0.0,2.0,0.5793801642856949,0.0,succ_gain,0,6,565.7604476999259,None,4,fj4,4,2022-05-05_12h04.06.322,threat_forest,2021.2.3,60.07474500739382,
13,0,13,0,2,0,2,0,,,,,,,,,,left,0.8405768999364227,574.7690858999267,fj4,569.3906868000049,571.4051786999917,574.7690858999267,None,False,6,['p'],False,0.25,0.5,0.5,2.0,2.0,0.9463946303571862,0.0,wait_cost,1,5,571.4051786999917,None,6,fj4,4,2022-05-05_12h04.06.322,threat_forest,2021.2.3,60.07474500739382,
13,0,13,0,3,0,3,0,,,,,,,,,,right,1.3726184000261128,580.5802330999868,fj4,580.5802330999868,None,575.6349275999237,577.6493821999757,False,5,['p'],True,0.3333333333333333,0.3333333333333333,0.0,0.0,2.0,0.5793801642856949,0.0,wait_cost,0,4,577.6493821999757,None,5,fj4,4,2022-05-05_12h04.06.322,threat_forest,2021.2.3,60.07474500739382,
13,0,13,0,4,0,4,0,,,,,,,,,,left,1.7375573000172153,587.524053299916,fj4,587.524053299916,None,575.6349275999237,577.6493821999757,True,4,['p'],True,0.3333333333333333,0.3333333333333333,0.0,0.0,2.0,0.5793801642856949,0.0,unsucc_cost,0,2,583.993430799921,None,4,fj4,4,2022-05-05_12h04.06.322,threat_forest,2021.2.3,60.07474500739382,
13,0,13,0,5,0,5,0,,,,,,,,,,left,1.3521173000335693,594.9001279999502,fj4,589.2886999999173,591.303243399947,594.9001279999502,None,False,2,['p'],False,0.25,0.5,0.5,2.0,2.0,0.9463946303571862,-0.75,wait_cost,1,1,591.303243399947,None,2,fj4,4,2022-05-05_12h04.06.322,threat_forest,2021.2.3,60.07474500739382,
13,0,13,0,6,0,6,0,,,,,,,,,,right,0.8927823000121862,599.6626473999349,fj4,589.2886999999173,591.303243399947,599.6626473999349,None,True,1,['p'],False,0.25,0.5,0.5,2.0,2.0,0.9463946303571862,0.25,unsucc_cost,1,0,598.2967318999581,None,1,fj4,4,2022-05-05_12h04.06.322,threat_forest,2021.2.3,60.07474500739382,
13,0,13,0,,,,,,,,,,,,,,,,,,,,,,,,,,,,,,,,,,,,602.592797899968,None,0,fj4,4,2022-05-05_12h04.06.322,threat_forest,2021.2.3,60.07474500739382,
14,0,14,0,0,0,0,0,,,,,,,606.2153562000021,609.7193846999435,None,left,1.6300764000043273,611.4848949000007,fj4,611.4848949000007,None,606.2153562000021,609.7193846999435,True,5,['p'],True,0.375,0.5,0.25,1.0,1.0,0.9850568223215076,0.0,fight_cost,0,2,,,,fj4,4,2022-05-05_12h04.06.322,threat_forest,2021.2.3,60.07474500739382,
14,0,14,0,1,0,1,0,,,,,,,,,,left,1.6493304000468925,618.1118438999401,fj4,613.1332546999911,615.148212299915,618.1118438999401,None,False,2,['p'],False,0.2448979591836734,0.2857142857142857,0.1428571428571428,1.0,1.0,0.8400769154957735,-0.7551020408163265,wait_cost,1,1,615.148212299915,None,2,fj4,4,2022-05-05_12h04.06.322,threat_forest,2021.2.3,60.07474500739382,
14,0,14,0,2,0,2,0,,,,,,,,,,left,1.4728459999896586,622.7909692999674,fj4,622.7909692999674,None,619.7936542999232,621.80809950002,True,1,['p'],True,0.375,0.5,0.25,1.0,1.0,0.9850568223215076,0.375,succ_gain,0,2,621.80809950002,None,1,fj4,4,2022-05-05_12h04.06.322,threat_forest,2021.2.3,60.07474500739382,
14,0,14,0,3,0,3,0,,,,,,,,,,right,0.9594535999931395,627.9862093999982,fj4,627.9862093999982,None,619.7936542999232,621.80809950002,False,2,['p'],True,0.375,0.5,0.25,1.0,1.0,0.9850568223215076,-0.625,wait_cost,0,1,626.3038142999867,None,2,fj4,4,2022-05-05_12h04.06.322,threat_forest,2021.2.3,60.07474500739382,
14,0,14,0,4,0,4,0,,,,,,,,,,right,0.8596849000314251,632.5984037999297,fj4,628.9683144999435,630.9827723000199,632.5984037999297,None,True,1,['p'],False,0.2448979591836734,0.2857142857142857,0.1428571428571428,1.0,1.0,0.8400769154957735,0.2448979591836735,succ_gain,1,2,630.9827723000199,None,1,fj4,4,2022-05-05_12h04.06.322,threat_forest,2021.2.3,60.07474500739382,
14,0,14,0,5,0,5,0,,,,,,,,,,left,1.1452638999326155,636.3115431999322,fj4,628.9683144999435,630.9827723000199,636.3115431999322,None,False,2,['p'],False,0.2448979591836734,0.2857142857142857,0.1428571428571428,1.0,1.0,0.8400769154957735,-0.7551020408163265,wait_cost,1,1,635.4952876999741,None,2,fj4,4,2022-05-05_12h04.06.322,threat_forest,2021.2.3,60.07474500739382,
14,0,14,0,6,0,6,0,,,,,,,,,,left,0.7145057000452653,640.2078406999353,fj4,640.2078406999353,None,637.4772555999225,639.4915741999866,True,1,['p'],True,0.375,0.5,0.25,1.0,1.0,0.9850568223215076,0.375,fight_cost,0,0,639.4915741999866,None,1,fj4,4,2022-05-05_12h04.06.322,threat_forest,2021.2.3,60.07474500739382,
14,0,14,0,,,,,,,,,,,,,,,,,,,,,,,,,,,,,,,,,,,,642.9550805999897,None,0,fj4,4,2022-05-05_12h04.06.322,threat_forest,2021.2.3,60.07474500739382,
15,0,15,0,0,0,0,0,,,,,,,644.1655106999679,647.6541504999623,None,left,2.627349500078708,650.550226100022,fj4,650.550226100022,None,644.1655106999679,647.6541504999623,True,4,['r'],True,0.2777777777777778,0.3333333333333333,0.1666666666666666,1.0,2.0,0.8929352898779304,0.0,unsucc_cost,0,2,,,,fj4,4,2022-05-05_12h04.06.322,threat_forest,2021.2.3,60.07474500739382,
15,0,15,0,1,0,1,0,,,,,,,,,,right,1.7084212000481784,658.325121599948,fj4,658.325121599948,None,644.1655106999679,647.6541504999623,False,2,['r'],True,0.2777777777777778,0.3333333333333333,0.1666666666666666,1.0,2.0,0.8929352898779304,-0.7222222222222223,wait_cost,0,1,655.21016649995,None,2,fj4,4,2022-05-05_12h04.06.322,threat_forest,2021.2.3,60.07474500739382,
15,0,15,0,2,0,2,0,,,,,,,,,,right,1.2600637000286952,665.5842045999598,fj4,660.0560797000071,662.0705726000015,665.5842045999598,None,True,1,['r'],False,0.2,0.2,0.0,0.0,2.0,0.4554859150035951,0.1999999999999999,fight_cost,1,0,662.0705726000015,None,1,fj4,4,2022-05-05_12h04.06.322,threat_forest,2021.2.3,60.07474500739382,
15,0,15,0,,,,,,,,,,,,,,,,,,,,,,,,,,,,,,,,,,,,668.8808807999594,None,0,fj4,4,2022-05-05_12h04.06.322,threat_forest,2021.2.3,60.07474500739382,
16,0,16,0,0,0,0,0,,,,,,,672.1036080999766,675.6078737999778,None,right,0.925891200080514,678.6074994999217,fj4,678.6074994999217,None,672.1036080999766,675.6078737999778,False,4,['p'],True,0.32,0.4,0.2,1.0,2.0,0.9455672104350704,0.0,wait_cost,0,3,,,,fj4,4,2022-05-05_12h04.06.322,threat_forest,2021.2.3,60.07474500739382,
16,0,16,0,1,0,1,0,,,,,,,,,,right,0.6893577000591904,684.0004190999316,fj4,684.0004190999316,None,672.1036080999766,675.6078737999778,False,3,['p'],True,0.32,0.4,0.2,1.0,2.0,0.9455672104350704,-0.2,wait_cost,0,2,681.568908700021,None,3,fj4,4,2022-05-05_12h04.06.322,threat_forest,2021.2.3,60.07474500739382,
16,0,16,0,2,0,2,0,,,,,,,,,,right,0.9894574999343604,687.5137955999235,fj4,687.5137955999235,None,672.1036080999766,675.6078737999778,False,2,['p'],True,0.32,0.4,0.2,1.0,2.0,0.9455672104350704,-0.6799999999999999,wait_cost,0,1,686.730780199985,None,2,fj4,4,2022-05-05_12h04.06.322,threat_forest,2021.2.3,60.07474500739382,
16,0,16,0,3,0,3,0,,,,,,,,,,right,0.6835474000545219,691.1105723999208,fj4,688.5295298999408,690.5441556000151,691.1105723999208,None,True,1,['p'],False,0.1975308641975308,0.2222222222222222,0.1111111111111111,1.0,2.0,0.7461067557824965,0.1975308641975308,fight_cost,1,0,690.5441556000151,None,1,fj4,4,2022-05-05_12h04.06.322,threat_forest,2021.2.3,60.07474500739382,
16,0,16,0,,,,,,,,,,,,,,,,,,,,,,,,,,,,,,,,,,,,693.8409673999995,None,0,fj4,4,2022-05-05_12h04.06.322,threat_forest,2021.2.3,60.07474500739382,
17,0,17,0,0,0,0,0,,,,,,,694.6490774999838,698.153357299976,None,right,1.345707800006494,699.6527010999853,fj4,699.6527010999853,None,694.6490774999838,698.153357299976,False,5,['p'],True,0.375,0.5,0.25,1.0,2.0,0.9850568223215076,0.0,wait_cost,0,4,,,,fj4,4,2022-05-05_12h04.06.322,threat_forest,2021.2.3,60.07474500739382,
17,0,17,0,1,0,1,0,,,,,,,,,,left,0.8258333000121638,703.9819503999315,fj4,703.9819503999315,None,694.6490774999838,698.153357299976,True,4,['p'],True,0.375,0.5,0.25,1.0,2.0,0.9850568223215076,0.0,unsucc_cost,0,2,703.0321688000113,None,4,fj4,4,2022-05-05_12h04.06.322,threat_forest,2021.2.3,60.07474500739382,
17,0,17,0,2,0,2,0,,,,,,,,,,right,1.1855089000891894,709.4269973000046,fj4,709.4269973000046,None,694.6490774999838,698.153357299976,False,2,['p'],True,0.375,0.5,0.25,1.0,2.0,0.9850568223215076,-0.625,wait_cost,0,1,706.8453256000066,None,2,fj4,4,2022-05-05_12h04.06.322,threat_forest,2021.2.3,60.07474500739382,
17,0,17,0,3,0,3,0,,,,,,,,,,right,0.8210285999812186,715.7400170000037,fj4,710.6421815999784,712.6584247999126,715.7400170000037,None,True,1,['p'],False,0.2592592592592592,0.3333333333333333,0.2222222222222222,2.0,2.0,0.9327883776363324,0.2592592592592592,unsucc_cost,1,0,712.6584247999126,None,1,fj4,4,2022-05-05_12h04.06.322,threat_forest,2021.2.3,60.07474500739382,
17,0,17,0,,,,,,,,,,,,,,,,,,,,,,,,,,,,,,,,,,,,718.6010964999441,None,0,fj4,4,2022-05-05_12h04.06.322,threat_forest,2021.2.3,60.07474500739382,
