miniblock.thisRepN,miniblock.thisTrialN,miniblock.thisN,miniblock.thisIndex,day.thisRepN,day.thisTrialN,day.thisN,day.thisIndex,welcoming.started,welcoming.stopped,key_resp_2.keys,key_resp_2.rt,key_resp_2.started,key_resp_2.stopped,forest.started,fixation_forest.started,fixation_forest.stopped,key_resp.keys,key_resp.rt,key_resp.started,Subject_ID,weather_left.started,weather_left.stopped,weather_right.started,weather_right.stopped,foraging T/F,in_LP,p/r heuristic,good_weather.T/F,p_succ_correct,p_succ_uncorrected,r_threat,n_oponents,gain_if_succ,weather_entropy,OP_value_difference,action_outcome,forest_side_L=0_R=1,out_LP,fixation_day.started,fixation_day.stopped,n_day-1.out_LP.,participant,session,date,expName,psychopyVersion,frameRate,
,,,,,,,,10.893356699991273,None,space,1.517439999995986,10.893356699991273,None,,,,,,,,,,,,,,,,,,,,,,,,,,,,,pz19,4,2023-04-20_12h26.17.604,threat_forest,2021.2.3,60.06940419010756,
0,0,0,0,0,0,0,0,,,,,,,12.481701899989275,15.986156300001312,None,right,1.5166790999937803,17.686243300006026,pz19,17.686243300006026,None,12.481701899989275,15.986156300001312,False,4,['r'],True,0.4,0.4,0.0,0.0,1.0,0.6126016192893442,0.0,wait_cost,0,3,,,,pz19,4,2023-04-20_12h26.17.604,threat_forest,2021.2.3,60.06940419010756,
0,0,0,0,1,0,1,0,,,,,,,,,,right,0.8535908999911044,23.49627239999245,pz19,23.49627239999245,None,12.481701899989275,15.986156300001312,False,3,['r'],True,0.4,0.4,0.0,0.0,1.0,0.6126016192893442,0.0,wait_cost,0,2,21.247858299990185,None,3,pz19,4,2023-04-20_12h26.17.604,threat_forest,2021.2.3,60.06940419010756,
0,0,0,0,2,0,2,0,,,,,,,,,,right,1.272231799986912,27.875646100001177,pz19,27.875646100001177,None,12.481701899989275,15.986156300001312,False,2,['r'],True,0.4,0.4,0.0,0.0,1.0,0.6126016192893442,-0.6,wait_cost,0,1,26.393151299998863,None,2,pz19,4,2023-04-20_12h26.17.604,threat_forest,2021.2.3,60.06940419010756,
0,0,0,0,3,0,3,0,,,,,,,,,,right,1.7260081999993417,32.12144899999839,pz19,29.17407280000043,31.188597400003346,32.12144899999839,None,True,1,['r'],False,0.3061224489795918,0.4285714285714285,0.2857142857142857,2.0,1.0,0.9885754083994552,0.3061224489795917,unsucc_cost,1,0,31.188597400003346,None,1,pz19,4,2023-04-20_12h26.17.604,threat_forest,2021.2.3,60.06940419010756,
0,0,0,0,,,,,,,,,,,,,,,,,,,,,,,,,,,,,,,,,,,,35.88819200001308,None,0,pz19,4,2023-04-20_12h26.17.604,threat_forest,2021.2.3,60.06940419010756,
1,0,1,0,0,0,0,0,,,,,,,38.759921699995175,42.26148210000247,None,right,1.076870000018971,45.74199830001453,pz19,38.759921699995175,42.26148210000247,45.74199830001453,None,True,4,['r'],False,0.4081632653061224,0.5714285714285714,0.2857142857142857,2.0,1.0,0.9885754083994552,0.0,succ_gain,1,5,,,,pz19,4,2023-04-20_12h26.17.604,threat_forest,2021.2.3,60.06940419010756,
1,0,1,0,1,0,1,0,,,,,,,,,,left,2.8764748999965377,52.102555999998,pz19,38.759921699995175,42.26148210000247,52.102555999998,None,False,5,['r'],False,0.4081632653061224,0.5714285714285714,0.2857142857142857,2.0,1.0,0.9885754083994552,0.0,wait_cost,1,4,48.855347500008065,None,5,pz19,4,2023-04-20_12h26.17.604,threat_forest,2021.2.3,60.06940419010756,
1,0,1,0,2,0,2,0,,,,,,,,,,right,1.2384884000057355,58.26348829999915,pz19,38.759921699995175,42.26148210000247,58.26348829999915,None,True,4,['r'],False,0.4081632653061224,0.5714285714285714,0.2857142857142857,2.0,1.0,0.9885754083994552,0.0,unsucc_cost,1,2,57.014458799996646,None,4,pz19,4,2023-04-20_12h26.17.604,threat_forest,2021.2.3,60.06940419010756,
1,0,1,0,3,0,3,0,,,,,,,,,,right,1.2901302000100259,63.10962999999174,pz19,38.759921699995175,42.26148210000247,63.10962999999174,None,True,2,['r'],False,0.4081632653061224,0.5714285714285714,0.2857142857142857,2.0,1.0,0.9885754083994552,-0.5918367346938775,succ_gain,1,3,61.543458300002385,None,2,pz19,4,2023-04-20_12h26.17.604,threat_forest,2021.2.3,60.06940419010756,
1,0,1,0,4,0,4,0,,,,,,,,,,right,1.2543819000129588,69.55936380001367,pz19,69.55936380001367,None,64.42436430000816,66.43925530000706,False,3,['r'],True,0.5,0.5,0.0,0.0,1.0,0.6309297535714574,0.0,wait_cost,0,2,66.43925530000706,None,3,pz19,4,2023-04-20_12h26.17.604,threat_forest,2021.2.3,60.06940419010756,
1,0,1,0,5,0,5,0,,,,,,,,,,right,2.647315100010019,74.76479020001716,pz19,70.83525790000567,72.84972980001476,74.76479020001716,None,True,2,['r'],False,0.4081632653061224,0.5714285714285714,0.2857142857142857,2.0,1.0,0.9885754083994552,-0.5918367346938775,unsucc_cost,1,0,72.84972980001476,None,2,pz19,4,2023-04-20_12h26.17.604,threat_forest,2021.2.3,60.06940419010756,
1,0,1,0,,,,,,,,,,,,,,,,,,,,,,,,,,,,,,,,,,,,79.44357440000749,None,0,pz19,4,2023-04-20_12h26.17.604,threat_forest,2021.2.3,60.06940419010756,
2,0,2,0,0,0,0,0,,,,,,,83.09379040001659,86.60344649999752,None,right,1.22797140001785,88.95194990001619,pz19,88.95194990001619,None,83.09379040001659,86.60344649999752,False,5,['p'],True,0.25,0.25,0.0,0.0,1.0,0.5118595071429148,0.0,wait_cost,0,4,,,,pz19,4,2023-04-20_12h26.17.604,threat_forest,2021.2.3,60.06940419010756,
2,0,2,0,1,0,1,0,,,,,,,,,,right,1.0028924999933224,95.79539569999906,pz19,95.79539569999906,None,83.09379040001659,86.60344649999752,False,4,['p'],True,0.25,0.25,0.0,0.0,1.0,0.5118595071429148,0.0,wait_cost,0,3,92.21483310000622,None,4,pz19,4,2023-04-20_12h26.17.604,threat_forest,2021.2.3,60.06940419010756,
2,0,2,0,2,0,2,0,,,,,,,,,,right,0.6977403000055347,102.00594180001644,pz19,102.00594180001644,None,83.09379040001659,86.60344649999752,False,3,['p'],True,0.25,0.25,0.0,0.0,1.0,0.5118595071429148,0.0,wait_cost,0,2,98.8420105999976,None,3,pz19,4,2023-04-20_12h26.17.604,threat_forest,2021.2.3,60.06940419010756,
2,0,2,0,3,0,3,0,,,,,,,,,,left,2.846484599984251,107.40099819999887,pz19,102.72192450001603,104.73649800001294,107.40099819999887,None,False,2,['p'],False,0.2222222222222222,0.6666666666666666,0.6666666666666666,2.0,1.0,0.77250688571426,-0.7777777777777778,wait_cost,1,1,104.73649800001294,None,2,pz19,4,2023-04-20_12h26.17.604,threat_forest,2021.2.3,60.06940419010756,
2,0,2,0,4,0,4,0,,,,,,,,,,left,1.7884963999968022,114.4112323000154,pz19,114.4112323000154,None,110.26487000001362,112.27937850001035,True,1,['p'],True,0.25,0.25,0.0,0.0,1.0,0.5118595071429148,0.25,fight_cost,0,0,112.27937850001035,None,1,pz19,4,2023-04-20_12h26.17.604,threat_forest,2021.2.3,60.06940419010756,
2,0,2,0,,,,,,,,,,,,,,,,,,,,,,,,,,,,,,,,,,,,118.24065180000616,None,0,pz19,4,2023-04-20_12h26.17.604,threat_forest,2021.2.3,60.06940419010756,
3,0,3,0,0,0,0,0,,,,,,,122.03057649999391,125.5337211000151,None,left,1.8697539000131655,127.03268199999002,pz19,127.03268199999002,None,122.03057649999391,125.5337211000151,True,4,['r'],True,0.4444444444444445,0.6666666666666666,0.3333333333333333,1.0,2.0,0.9656336071428248,0.0,succ_gain,0,6,,,,pz19,4,2023-04-20_12h26.17.604,threat_forest,2021.2.3,60.06940419010756,
3,0,3,0,1,0,1,0,,,,,,,,,,right,1.4854030999995302,132.54415299999528,pz19,132.54415299999528,None,122.03057649999391,125.5337211000151,False,6,['r'],True,0.4444444444444445,0.6666666666666666,0.3333333333333333,1.0,2.0,0.9656336071428248,0.0,wait_cost,0,5,130.94537430000491,None,6,pz19,4,2023-04-20_12h26.17.604,threat_forest,2021.2.3,60.06940419010756,
3,0,3,0,2,0,2,0,,,,,,,,,,left,2.80775619999622,138.2889864000026,pz19,138.2889864000026,None,122.03057649999391,125.5337211000151,True,5,['r'],True,0.4444444444444445,0.6666666666666666,0.3333333333333333,1.0,2.0,0.9656336071428248,0.0,succ_gain,0,6,136.0737599999993,None,5,pz19,4,2023-04-20_12h26.17.604,threat_forest,2021.2.3,60.06940419010756,
3,0,3,0,3,0,3,0,,,,,,,,,,left,1.134983399999328,145.5527255999914,pz19,141.11939480001456,143.1338473999931,145.5527255999914,None,False,6,['r'],False,0.27,0.3,0.1,1.0,2.0,0.7963326591781347,0.0,wait_cost,1,5,143.1338473999931,None,6,pz19,4,2023-04-20_12h26.17.604,threat_forest,2021.2.3,60.06940419010756,
3,0,3,0,4,0,4,0,,,,,,,,,,right,0.6287396000116132,151.9592726000119,pz19,151.9592726000119,None,146.71428730001207,148.72866449999856,False,5,['r'],True,0.4444444444444445,0.6666666666666666,0.3333333333333333,1.0,2.0,0.9656336071428248,0.0,wait_cost,0,4,148.72866449999856,None,5,pz19,4,2023-04-20_12h26.17.604,threat_forest,2021.2.3,60.06940419010756,
3,0,3,0,5,0,5,0,,,,,,,,,,right,0.7728311000100803,158.40359840000747,pz19,158.40359840000747,None,146.71428730001207,148.72866449999856,False,4,['r'],True,0.4444444444444445,0.6666666666666666,0.3333333333333333,1.0,2.0,0.9656336071428248,0.0,wait_cost,0,3,154.6231562999892,None,4,pz19,4,2023-04-20_12h26.17.604,threat_forest,2021.2.3,60.06940419010756,
3,0,3,0,6,0,6,0,,,,,,,,,,right,1.4738129999896046,162.06652590000886,pz19,162.06652590000886,None,146.71428730001207,148.72866449999856,False,3,['r'],True,0.4444444444444445,0.6666666666666666,0.3333333333333333,1.0,2.0,0.9656336071428248,-0.3333333333333333,wait_cost,0,2,161.21707919999608,None,3,pz19,4,2023-04-20_12h26.17.604,threat_forest,2021.2.3,60.06940419010756,
3,0,3,0,7,0,7,0,,,,,,,,,,right,0.6206589999783318,167.22874729998875,pz19,167.22874729998875,None,146.71428730001207,148.72866449999856,False,2,['r'],True,0.4444444444444445,0.6666666666666666,0.3333333333333333,1.0,2.0,0.9656336071428248,-0.5555555555555556,wait_cost,0,1,165.5795691999956,None,2,pz19,4,2023-04-20_12h26.17.604,threat_forest,2021.2.3,60.06940419010756,
3,0,3,0,,,,,,,,,,,,,,,,,,,,,,,,,,,,,,,,,,,,169.8922516000166,None,1,pz19,4,2023-04-20_12h26.17.604,threat_forest,2021.2.3,60.06940419010756,
4,0,4,0,0,0,0,0,,,,,,,171.7954100999923,175.30368800001452,None,right,1.8003794999967795,176.6030815000122,pz19,176.6030815000122,None,171.7954100999923,175.30368800001452,False,4,['p'],True,0.5,0.5,0.0,0.0,1.0,0.6309297535714574,0.0,wait_cost,0,3,,,,pz19,4,2023-04-20_12h26.17.604,threat_forest,2021.2.3,60.06940419010756,
4,0,4,0,1,0,1,0,,,,,,,,,,left,1.1997739999787882,181.7512634000159,pz19,181.7512634000159,None,171.7954100999923,175.30368800001452,True,3,['p'],True,0.5,0.5,0.0,0.0,1.0,0.6309297535714574,0.0,succ_gain,0,4,180.44893859999138,None,3,pz19,4,2023-04-20_12h26.17.604,threat_forest,2021.2.3,60.06940419010756,
4,0,4,0,2,0,2,0,,,,,,,,,,right,2.60367739998037,188.7770553000155,pz19,182.98019420000492,184.99478989999625,188.7770553000155,None,True,4,['p'],False,0.36,0.6,0.4,2.0,1.0,0.9801625908629508,0.0,succ_gain,1,5,184.99478989999625,None,4,pz19,4,2023-04-20_12h26.17.604,threat_forest,2021.2.3,60.06940419010756,
4,0,4,0,3,0,3,0,,,,,,,,,,right,2.5648270999954548,195.16893499999424,pz19,182.98019420000492,184.99478989999625,195.16893499999424,None,True,5,['p'],False,0.36,0.6,0.4,2.0,1.0,0.9801625908629508,0.0,succ_gain,1,6,193.42011189999175,None,5,pz19,4,2023-04-20_12h26.17.604,threat_forest,2021.2.3,60.06940419010756,
4,0,4,0,4,0,4,0,,,,,,,,,,left,2.219115599989891,201.22991550000734,pz19,182.98019420000492,184.99478989999625,201.22991550000734,None,False,6,['p'],False,0.36,0.6,0.4,2.0,1.0,0.9801625908629508,0.0,wait_cost,1,5,199.78088110001408,None,6,pz19,4,2023-04-20_12h26.17.604,threat_forest,2021.2.3,60.06940419010756,
4,0,4,0,5,0,5,0,,,,,,,,,,right,0.9311102999781724,207.3408166000154,pz19,207.3408166000154,None,203.4777510999993,205.49234590001288,False,5,['p'],True,0.5,0.5,0.0,0.0,1.0,0.6309297535714574,0.0,wait_cost,0,4,205.49234590001288,None,5,pz19,4,2023-04-20_12h26.17.604,threat_forest,2021.2.3,60.06940419010756,
4,0,4,0,6,0,6,0,,,,,,,,,,right,0.8076505000062753,211.40411339999991,pz19,211.40411339999991,None,203.4777510999993,205.49234590001288,False,4,['p'],True,0.5,0.5,0.0,0.0,1.0,0.6309297535714574,0.0,wait_cost,0,3,210.30431020000833,None,4,pz19,4,2023-04-20_12h26.17.604,threat_forest,2021.2.3,60.06940419010756,
4,0,4,0,7,0,7,0,,,,,,,,,,left,0.948588600003859,214.9337829000142,pz19,212.23621080000885,214.2507493000012,214.9337829000142,None,False,3,['p'],False,0.36,0.6,0.4,2.0,1.0,0.9801625908629508,-0.4,wait_cost,1,2,214.2507493000012,None,3,pz19,4,2023-04-20_12h26.17.604,threat_forest,2021.2.3,60.06940419010756,
4,0,4,0,,,,,,,,,,,,,,,,,,,,,,,,,,,,,,,,,,,,217.91405789999408,None,2,pz19,4,2023-04-20_12h26.17.604,threat_forest,2021.2.3,60.06940419010756,
5,0,5,0,0,0,0,0,,,,,,,218.89913750000414,222.40968660000362,None,right,1.3167728999978863,225.45769380001002,pz19,225.45769380001002,None,218.89913750000414,222.40968660000362,False,5,['r'],True,0.3333333333333333,0.3333333333333333,0.0,0.0,2.0,0.5793801642856949,0.0,wait_cost,0,4,,,,pz19,4,2023-04-20_12h26.17.604,threat_forest,2021.2.3,60.06940419010756,
5,0,5,0,1,0,1,0,,,,,,,,,,left,1.55837609997252,232.61722260000533,pz19,226.80589220000547,228.82044750000932,232.61722260000533,None,False,4,['r'],False,0.2222222222222222,0.6666666666666666,0.6666666666666666,2.0,2.0,0.77250688571426,0.0,wait_cost,1,3,228.82044750000932,None,4,pz19,4,2023-04-20_12h26.17.604,threat_forest,2021.2.3,60.06940419010756,
5,0,5,0,2,0,2,0,,,,,,,,,,right,2.307686799991643,237.02972190000582,pz19,226.80589220000547,228.82044750000932,237.02972190000582,None,True,3,['r'],False,0.2222222222222222,0.6666666666666666,0.6666666666666666,2.0,2.0,0.77250688571426,-0.6666666666666666,unsucc_cost,1,1,236.21344719998888,None,3,pz19,4,2023-04-20_12h26.17.604,threat_forest,2021.2.3,60.06940419010756,
5,0,5,0,3,0,3,0,,,,,,,,,,left,2.397798199992394,244.0064745999989,pz19,244.0064745999989,None,239.36076119999052,241.3752628999937,True,1,['r'],True,0.3333333333333333,0.3333333333333333,0.0,0.0,2.0,0.5793801642856949,0.3333333333333332,succ_gain,0,3,241.3752628999937,None,1,pz19,4,2023-04-20_12h26.17.604,threat_forest,2021.2.3,60.06940419010756,
5,0,5,0,4,0,4,0,,,,,,,,,,left,1.6254312000237405,250.7834440000006,pz19,246.420812700002,248.4353409000032,250.7834440000006,None,False,3,['r'],False,0.2222222222222222,0.6666666666666666,0.6666666666666666,2.0,2.0,0.77250688571426,-0.6666666666666666,wait_cost,1,2,248.4353409000032,None,3,pz19,4,2023-04-20_12h26.17.604,threat_forest,2021.2.3,60.06940419010756,
5,0,5,0,5,0,5,0,,,,,,,,,,None,,255.82865300000412,pz19,246.420812700002,248.4353409000032,255.82865300000412,None,None,2,['r'],False,0.2222222222222222,0.6666666666666666,0.6666666666666666,2.0,2.0,0.77250688571426,-0.7777777777777778,wait_cost,1,1,254.44639050000114,None,2,pz19,4,2023-04-20_12h26.17.604,threat_forest,2021.2.3,60.06940419010756,
5,0,5,0,6,0,6,0,,,,,,,,,,right,1.6803325999935623,262.13946760000545,pz19,246.420812700002,248.4353409000032,262.13946760000545,None,True,1,['r'],False,0.2222222222222222,0.6666666666666666,0.6666666666666666,2.0,2.0,0.77250688571426,0.2222222222222222,succ_gain,1,3,260.85709140001563,None,1,pz19,4,2023-04-20_12h26.17.604,threat_forest,2021.2.3,60.06940419010756,
5,0,5,0,7,0,7,0,,,,,,,,,,left,0.7183232000097632,266.851811200002,pz19,246.420812700002,248.4353409000032,266.851811200002,None,False,3,['r'],False,0.2222222222222222,0.6666666666666666,0.6666666666666666,2.0,2.0,0.77250688571426,-0.6666666666666666,wait_cost,1,2,265.8524524999957,None,3,pz19,4,2023-04-20_12h26.17.604,threat_forest,2021.2.3,60.06940419010756,
5,0,5,0,,,,,,,,,,,,,,,,,,,,,,,,,,,,,,,,,,,,269.6155534000136,None,2,pz19,4,2023-04-20_12h26.17.604,threat_forest,2021.2.3,60.06940419010756,
6,0,6,0,0,0,0,0,,,,,,,272.3884587000066,275.8930268000113,None,left,1.8021536000014748,278.14177029998973,pz19,278.14177029998973,None,272.3884587000066,275.8930268000113,True,4,['r'],True,0.6,0.6,0.0,0.0,1.0,0.6126016192893442,0.0,succ_gain,0,5,,,,pz19,4,2023-04-20_12h26.17.604,threat_forest,2021.2.3,60.06940419010756,
6,0,6,0,1,0,1,0,,,,,,,,,,right,2.9771451000124216,282.53709170001093,pz19,282.53709170001093,None,272.3884587000066,275.8930268000113,False,5,['r'],True,0.6,0.6,0.0,0.0,1.0,0.6126016192893442,0.0,wait_cost,0,4,281.9873280999891,None,5,pz19,4,2023-04-20_12h26.17.604,threat_forest,2021.2.3,60.06940419010756,
6,0,6,0,2,0,2,0,,,,,,,,,,left,0.9493482999969274,288.5149767000112,pz19,288.5149767000112,None,272.3884587000066,275.8930268000113,True,4,['r'],True,0.6,0.6,0.0,0.0,1.0,0.6126016192893442,0.0,succ_gain,0,5,287.54879309999524,None,4,pz19,4,2023-04-20_12h26.17.604,threat_forest,2021.2.3,60.06940419010756,
6,0,6,0,3,0,3,0,,,,,,,,,,left,1.8228008000005502,294.77854440000374,pz19,289.4806305000093,291.49507350000204,294.77854440000374,None,False,5,['r'],False,0.46875,0.625,0.25,2.0,1.0,0.9634951148421658,0.0,wait_cost,1,4,291.49507350000204,None,5,pz19,4,2023-04-20_12h26.17.604,threat_forest,2021.2.3,60.06940419010756,
6,0,6,0,4,0,4,0,,,,,,,,,,left,1.7330973999924026,301.68583960001706,pz19,289.4806305000093,291.49507350000204,301.68583960001706,None,False,4,['r'],False,0.46875,0.625,0.25,2.0,1.0,0.9634951148421658,0.0,wait_cost,1,3,298.63840319999144,None,4,pz19,4,2023-04-20_12h26.17.604,threat_forest,2021.2.3,60.06940419010756,
6,0,6,0,5,0,5,0,,,,,,,,,,right,2.85823410001467,307.31395239999983,pz19,289.4806305000093,291.49507350000204,307.31395239999983,None,True,3,['r'],False,0.46875,0.625,0.25,2.0,1.0,0.9634951148421658,-0.25,fight_cost,1,0,305.46530539999367,None,3,pz19,4,2023-04-20_12h26.17.604,threat_forest,2021.2.3,60.06940419010756,
6,0,6,0,,,,,,,,,,,,,,,,,,,,,,,,,,,,,,,,,,,,312.20918239999446,None,0,pz19,4,2023-04-20_12h26.17.604,threat_forest,2021.2.3,60.06940419010756,
7,0,7,0,0,0,0,0,,,,,,,313.0680643999949,316.5717846000043,None,right,1.6541049999941606,319.0863030999899,pz19,313.0680643999949,316.5717846000043,319.0863030999899,None,True,4,['p'],False,0.4081632653061224,0.5714285714285714,0.2857142857142857,2.0,1.0,0.9885754083994552,0.0,unsucc_cost,1,2,,,,pz19,4,2023-04-20_12h26.17.604,threat_forest,2021.2.3,60.06940419010756,
7,0,7,0,1,0,1,0,,,,,,,,,,left,2.891827599989483,325.9133194999886,pz19,325.9133194999886,None,320.7681911000109,322.7825395000109,True,2,['p'],True,0.5,0.5,0.0,0.0,1.0,0.6309297535714574,-0.5,unsucc_cost,0,0,322.7825395000109,None,2,pz19,4,2023-04-20_12h26.17.604,threat_forest,2021.2.3,60.06940419010756,
7,0,7,0,,,,,,,,,,,,,,,,,,,,,,,,,,,,,,,,,,,,330.8417144000123,None,0,pz19,4,2023-04-20_12h26.17.604,threat_forest,2021.2.3,60.06940419010756,
8,0,8,0,0,0,0,0,,,,,,,334.28175799999735,337.77976380000473,None,right,2.3544815000204835,339.1537367000128,pz19,334.28175799999735,337.77976380000473,339.1537367000128,None,True,5,['p'],False,0.28125,0.375,0.25,2.0,2.0,0.9634951148421658,0.0,fight_cost,1,2,,,,pz19,4,2023-04-20_12h26.17.604,threat_forest,2021.2.3,60.06940419010756,
8,0,8,0,1,0,1,0,,,,,,,,,,left,2.0170173999795225,346.0944388000062,pz19,334.28175799999735,337.77976380000473,346.0944388000062,None,False,2,['p'],False,0.28125,0.375,0.25,2.0,2.0,0.9634951148421658,-0.71875,wait_cost,1,1,343.5463831000088,None,2,pz19,4,2023-04-20_12h26.17.604,threat_forest,2021.2.3,60.06940419010756,
8,0,8,0,2,0,2,0,,,,,,,,,,right,2.071261599980062,351.80565319999005,pz19,334.28175799999735,337.77976380000473,351.80565319999005,None,True,1,['p'],False,0.28125,0.375,0.25,2.0,2.0,0.9634951148421658,0.28125,succ_gain,1,3,350.15689099999145,None,1,pz19,4,2023-04-20_12h26.17.604,threat_forest,2021.2.3,60.06940419010756,
8,0,8,0,3,0,3,0,,,,,,,,,,left,2.8025171000044793,358.2663267000171,pz19,334.28175799999735,337.77976380000473,358.2663267000171,None,False,3,['p'],False,0.28125,0.375,0.25,2.0,2.0,0.9634951148421658,-0.25,wait_cost,1,2,355.9181618000148,None,3,pz19,4,2023-04-20_12h26.17.604,threat_forest,2021.2.3,60.06940419010756,
8,0,8,0,4,0,4,0,,,,,,,,,,right,2.725064400001429,366.308829000016,pz19,366.308829000016,None,361.0969698000117,363.11143230000744,False,2,['p'],True,0.3333333333333333,0.3333333333333333,0.0,0.0,2.0,0.5793801642856949,-0.6666666666666667,wait_cost,0,1,363.11143230000744,None,2,pz19,4,2023-04-20_12h26.17.604,threat_forest,2021.2.3,60.06940419010756,
8,0,8,0,5,0,5,0,,,,,,,,,,right,2.4051010999828577,371.92036029999144,pz19,369.0562060000084,371.07072630000766,371.92036029999144,None,True,1,['p'],False,0.28125,0.375,0.25,2.0,2.0,0.9634951148421658,0.28125,succ_gain,1,3,371.07072630000766,None,1,pz19,4,2023-04-20_12h26.17.604,threat_forest,2021.2.3,60.06940419010756,
8,0,8,0,6,0,6,0,,,,,,,,,,left,1.57958520000102,378.0324523000163,pz19,378.0324523000163,None,374.3513663999911,376.365690000006,True,3,['p'],True,0.3333333333333333,0.3333333333333333,0.0,0.0,2.0,0.5793801642856949,0.0,succ_gain,0,5,376.365690000006,None,3,pz19,4,2023-04-20_12h26.17.604,threat_forest,2021.2.3,60.06940419010756,
8,0,8,0,7,0,7,0,,,,,,,,,,right,0.7560312999994494,385.0750657999888,pz19,385.0750657999888,None,374.3513663999911,376.365690000006,False,5,['p'],True,0.3333333333333333,0.3333333333333333,0.0,0.0,2.0,0.5793801642856949,0.0,wait_cost,0,4,381.644097100012,None,5,pz19,4,2023-04-20_12h26.17.604,threat_forest,2021.2.3,60.06940419010756,
8,0,8,0,,,,,,,,,,,,,,,,,,,,,,,,,,,,,,,,,,,,387.8717178000079,None,4,pz19,4,2023-04-20_12h26.17.604,threat_forest,2021.2.3,60.06940419010756,
9,0,9,0,0,0,0,0,,,,,,,390.4375904999906,393.9493680000014,None,left,2.3169202000135556,396.8305398999946,pz19,396.8305398999946,None,390.4375904999906,393.9493680000014,True,4,['p'],True,0.5,0.5,0.0,0.0,2.0,0.6309297535714574,0.0,succ_gain,0,6,,,,pz19,4,2023-04-20_12h26.17.604,threat_forest,2021.2.3,60.06940419010756,
9,0,9,0,1,0,1,0,,,,,,,,,,left,1.851936699997168,403.74054389999947,pz19,399.1780424999888,401.1924709000159,403.74054389999947,None,False,6,['p'],False,0.2222222222222222,0.6666666666666666,0.6666666666666666,2.0,2.0,0.77250688571426,0.0,wait_cost,1,5,401.1924709000159,None,6,pz19,4,2023-04-20_12h26.17.604,threat_forest,2021.2.3,60.06940419010756,
9,0,9,0,2,0,2,0,,,,,,,,,,right,1.3420922000077553,408.95247049999307,pz19,399.1780424999888,401.1924709000159,408.95247049999307,None,True,5,['p'],False,0.2222222222222222,0.6666666666666666,0.6666666666666666,2.0,2.0,0.77250688571426,0.0,unsucc_cost,1,3,407.6365111999912,None,5,pz19,4,2023-04-20_12h26.17.604,threat_forest,2021.2.3,60.06940419010756,
9,0,9,0,3,0,3,0,,,,,,,,,,right,0.6798249999992549,413.61452040000586,pz19,399.1780424999888,401.1924709000159,413.61452040000586,None,True,3,['p'],False,0.2222222222222222,0.6666666666666666,0.6666666666666666,2.0,2.0,0.77250688571426,-0.6666666666666666,unsucc_cost,1,1,412.33208160000504,None,3,pz19,4,2023-04-20_12h26.17.604,threat_forest,2021.2.3,60.06940419010756,
9,0,9,0,4,0,4,0,,,,,,,,,,left,2.8859231999958865,417.7773609000142,pz19,417.7773609000142,None,414.31385690000025,416.32841849999386,True,1,['p'],True,0.5,0.5,0.0,0.0,2.0,0.6309297535714574,0.5,fight_cost,0,0,416.32841849999386,None,1,pz19,4,2023-04-20_12h26.17.604,threat_forest,2021.2.3,60.06940419010756,
9,0,9,0,,,,,,,,,,,,,,,,,,,,,,,,,,,,,,,,,,,,422.7057841999922,None,0,pz19,4,2023-04-20_12h26.17.604,threat_forest,2021.2.3,60.06940419010756,
10,0,10,0,0,0,0,0,,,,,,,423.3492769000004,426.851840599993,None,right,1.3053622000152245,428.78422940001474,pz19,428.78422940001474,None,423.3492769000004,426.851840599993,False,5,['p'],True,0.25,0.25,0.0,0.0,1.0,0.5118595071429148,0.0,wait_cost,0,4,,,,pz19,4,2023-04-20_12h26.17.604,threat_forest,2021.2.3,60.06940419010756,
10,0,10,0,1,0,1,0,,,,,,,,,,left,1.250099600001704,435.47935949999373,pz19,430.1159741000156,432.13020539999707,435.47935949999373,None,False,4,['p'],False,0.2040816326530612,0.2857142857142857,0.2857142857142857,2.0,1.0,0.9335459102197724,0.0,wait_cost,1,3,432.13020539999707,None,4,pz19,4,2023-04-20_12h26.17.604,threat_forest,2021.2.3,60.06940419010756,
10,0,10,0,2,0,2,0,,,,,,,,,,left,0.8367031999805477,439.40715700000874,pz19,430.1159741000156,432.13020539999707,439.40715700000874,None,False,3,['p'],False,0.2040816326530612,0.2857142857142857,0.2857142857142857,2.0,1.0,0.9335459102197724,-0.2857142857142857,wait_cost,1,2,438.774067499995,None,3,pz19,4,2023-04-20_12h26.17.604,threat_forest,2021.2.3,60.06940419010756,
10,0,10,0,3,0,3,0,,,,,,,,,,right,2.6870985999994446,445.90094520000275,pz19,445.90094520000275,None,440.2730128999974,442.28742850001436,False,2,['p'],True,0.25,0.25,0.0,0.0,1.0,0.5118595071429148,-0.75,wait_cost,0,1,442.28742850001436,None,2,pz19,4,2023-04-20_12h26.17.604,threat_forest,2021.2.3,60.06940419010756,
10,0,10,0,4,0,4,0,,,,,,,,,,left,1.877286799979629,451.1961026999925,pz19,451.1961026999925,None,440.2730128999974,442.28742850001436,True,1,['p'],True,0.25,0.25,0.0,0.0,1.0,0.5118595071429148,0.25,unsucc_cost,0,0,450.62961319999886,None,1,pz19,4,2023-04-20_12h26.17.604,threat_forest,2021.2.3,60.06940419010756,
10,0,10,0,,,,,,,,,,,,,,,,,,,,,,,,,,,,,,,,,,,,455.0921598999994,None,0,pz19,4,2023-04-20_12h26.17.604,threat_forest,2021.2.3,60.06940419010756,
11,0,11,0,0,0,0,0,,,,,,,457.91683329999796,461.40749849998974,None,left,1.6441750999947544,463.95090580001124,pz19,457.91683329999796,461.40749849998974,463.95090580001124,None,False,4,['r'],False,0.1975308641975308,0.2222222222222222,0.1111111111111111,1.0,2.0,0.7461067557824965,0.0,wait_cost,1,3,,,,pz19,4,2023-04-20_12h26.17.604,threat_forest,2021.2.3,60.06940419010756,
11,0,11,0,1,0,1,0,,,,,,,,,,right,2.0676277999882586,471.2277749000059,pz19,457.91683329999796,461.40749849998974,471.2277749000059,None,True,3,['r'],False,0.1975308641975308,0.2222222222222222,0.1111111111111111,1.0,2.0,0.7461067557824965,-0.1111111111111111,succ_gain,1,5,467.63032910000766,None,3,pz19,4,2023-04-20_12h26.17.604,threat_forest,2021.2.3,60.06940419010756,
11,0,11,0,2,0,2,0,,,,,,,,,,right,1.2106212000071537,477.45708290001494,pz19,477.45708290001494,None,473.3253406000149,475.33989120001206,False,5,['r'],True,0.2777777777777778,0.3333333333333333,0.1666666666666666,1.0,2.0,0.8929352898779304,0.0,wait_cost,0,4,475.33989120001206,None,5,pz19,4,2023-04-20_12h26.17.604,threat_forest,2021.2.3,60.06940419010756,
11,0,11,0,3,0,3,0,,,,,,,,,,right,0.9434583999973256,483.0497424000059,pz19,483.0497424000059,None,473.3253406000149,475.33989120001206,False,4,['r'],True,0.2777777777777778,0.3333333333333333,0.1666666666666666,1.0,2.0,0.8929352898779304,0.0,wait_cost,0,3,480.7015217000153,None,4,pz19,4,2023-04-20_12h26.17.604,threat_forest,2021.2.3,60.06940419010756,
11,0,11,0,4,0,4,0,,,,,,,,,,left,2.2039780000050087,488.2626869000087,pz19,484.0154819000163,486.0298298000125,488.2626869000087,None,False,3,['r'],False,0.1975308641975308,0.2222222222222222,0.1111111111111111,1.0,2.0,0.7461067557824965,-0.1111111111111111,wait_cost,1,2,486.0298298000125,None,3,pz19,4,2023-04-20_12h26.17.604,threat_forest,2021.2.3,60.06940419010756,
11,0,11,0,5,0,5,0,,,,,,,,,,right,1.8171743999992032,493.527004500007,pz19,493.527004500007,None,490.49275840001064,492.5071353999956,False,2,['r'],True,0.2777777777777778,0.3333333333333333,0.1666666666666666,1.0,2.0,0.8929352898779304,-0.7222222222222223,wait_cost,0,1,492.5071353999956,None,2,pz19,4,2023-04-20_12h26.17.604,threat_forest,2021.2.3,60.06940419010756,
11,0,11,0,6,0,6,0,,,,,,,,,,right,2.581682300020475,497.9692723999906,pz19,495.3716831000056,497.3860169000109,497.9692723999906,None,True,1,['r'],False,0.1975308641975308,0.2222222222222222,0.1111111111111111,1.0,2.0,0.7461067557824965,0.1975308641975308,unsucc_cost,1,0,497.3860169000109,None,1,pz19,4,2023-04-20_12h26.17.604,threat_forest,2021.2.3,60.06940419010756,
11,0,11,0,,,,,,,,,,,,,,,,,,,,,,,,,,,,,,,,,,,,502.59780509999837,None,0,pz19,4,2023-04-20_12h26.17.604,threat_forest,2021.2.3,60.06940419010756,
12,0,12,0,0,0,0,0,,,,,,,503.6550236000039,507.1600335999974,None,left,1.3675868999853265,508.3598158000095,pz19,508.3598158000095,None,503.6550236000039,507.1600335999974,True,5,['p'],True,0.5,0.5,0.0,0.0,1.0,0.6309297535714574,0.0,unsucc_cost,0,3,,,,pz19,4,2023-04-20_12h26.17.604,threat_forest,2021.2.3,60.06940419010756,
12,0,12,0,1,0,1,0,,,,,,,,,,left,1.7767133000015747,513.4567500000121,pz19,509.7579770000011,511.7724445000058,513.4567500000121,None,False,3,['p'],False,0.4081632653061224,0.5714285714285714,0.2857142857142857,2.0,1.0,0.9885754083994552,-0.2857142857142857,wait_cost,1,2,511.7724445000058,None,3,pz19,4,2023-04-20_12h26.17.604,threat_forest,2021.2.3,60.06940419010756,
12,0,12,0,2,0,2,0,,,,,,,,,,right,2.2977873999916483,520.5312875999953,pz19,509.7579770000011,511.7724445000058,520.5312875999953,None,True,2,['p'],False,0.4081632653061224,0.5714285714285714,0.2857142857142857,2.0,1.0,0.9885754083994552,-0.5918367346938775,fight_cost,1,0,517.267285000009,None,2,pz19,4,2023-04-20_12h26.17.604,threat_forest,2021.2.3,60.06940419010756,
12,0,12,0,,,,,,,,,,,,,,,,,,,,,,,,,,,,,,,,,,,,524.8602914999938,None,0,pz19,4,2023-04-20_12h26.17.604,threat_forest,2021.2.3,60.06940419010756,
13,0,13,0,0,0,0,0,,,,,,,527.2337424000143,530.7381230000174,None,left,1.9321391999837942,531.4546231999993,pz19,531.4546231999993,None,527.2337424000143,530.7381230000174,True,5,['r'],True,0.4444444444444445,0.6666666666666666,0.3333333333333333,1.0,2.0,0.9656336071428248,0.0,fight_cost,0,2,,,,pz19,4,2023-04-20_12h26.17.604,threat_forest,2021.2.3,60.06940419010756,
13,0,13,0,1,0,1,0,,,,,,,,,,left,1.3719871999928728,538.0343440000142,pz19,533.419164299994,535.4339014000143,538.0343440000142,None,False,2,['r'],False,0.18,0.2,0.1,1.0,2.0,0.7058405977926203,-0.8200000000000001,wait_cost,1,1,535.4339014000143,None,2,pz19,4,2023-04-20_12h26.17.604,threat_forest,2021.2.3,60.06940419010756,
13,0,13,0,2,0,2,0,,,,,,,,,,left,1.8355781999998726,543.6262793999922,pz19,543.6262793999922,None,539.4302266000013,541.4447246000054,True,1,['r'],True,0.4444444444444445,0.6666666666666666,0.3333333333333333,1.0,2.0,0.9656336071428248,0.4444444444444444,succ_gain,0,3,541.4447246000054,None,1,pz19,4,2023-04-20_12h26.17.604,threat_forest,2021.2.3,60.06940419010756,
13,0,13,0,3,0,3,0,,,,,,,,,,left,1.2488434999831952,550.3713117000007,pz19,545.4912282000005,547.5056571000023,550.3713117000007,None,False,3,['r'],False,0.18,0.2,0.1,1.0,2.0,0.7058405977926203,-0.1,wait_cost,1,2,547.5056571000023,None,3,pz19,4,2023-04-20_12h26.17.604,threat_forest,2021.2.3,60.06940419010756,
13,0,13,0,4,0,4,0,,,,,,,,,,right,2.618060600012541,555.6650520999974,pz19,555.6650520999974,None,551.6522286999971,553.666583400016,False,2,['r'],True,0.4444444444444445,0.6666666666666666,0.3333333333333333,1.0,2.0,0.9656336071428248,-0.5555555555555556,wait_cost,0,1,553.666583400016,None,2,pz19,4,2023-04-20_12h26.17.604,threat_forest,2021.2.3,60.06940419010756,
13,0,13,0,5,0,5,0,,,,,,,,,,left,2.4376959999790415,561.4262162999948,pz19,561.4262162999948,None,551.6522286999971,553.666583400016,True,1,['r'],True,0.4444444444444445,0.6666666666666666,0.3333333333333333,1.0,2.0,0.9656336071428248,0.4444444444444444,succ_gain,0,3,560.3270317999995,None,1,pz19,4,2023-04-20_12h26.17.604,threat_forest,2021.2.3,60.06940419010756,
13,0,13,0,6,0,6,0,,,,,,,,,,right,1.0651726000069175,569.1526159000059,pz19,569.1526159000059,None,551.6522286999971,553.666583400016,False,3,['r'],True,0.4444444444444445,0.6666666666666666,0.3333333333333333,1.0,2.0,0.9656336071428248,-0.3333333333333333,wait_cost,0,2,565.90511349999,None,3,pz19,4,2023-04-20_12h26.17.604,threat_forest,2021.2.3,60.06940419010756,
13,0,13,0,7,0,7,0,,,,,,,,,,right,0.5503961000067648,573.0987117000041,pz19,573.0987117000041,None,551.6522286999971,553.666583400016,False,2,['r'],True,0.4444444444444445,0.6666666666666666,0.3333333333333333,1.0,2.0,0.9656336071428248,-0.5555555555555556,wait_cost,0,1,572.2491452000104,None,2,pz19,4,2023-04-20_12h26.17.604,threat_forest,2021.2.3,60.06940419010756,
13,0,13,0,,,,,,,,,,,,,,,,,,,,,,,,,,,,,,,,,,,,575.6960412999906,None,1,pz19,4,2023-04-20_12h26.17.604,threat_forest,2021.2.3,60.06940419010756,
14,0,14,0,0,0,0,0,,,,,,,578.5369605000014,582.0400935999933,None,right,2.6429098999942653,582.6265151000116,pz19,578.5369605000014,582.0400935999933,582.6265151000116,None,True,5,['r'],False,0.4081632653061224,0.5714285714285714,0.2857142857142857,2.0,2.0,0.9885754083994552,0.0,unsucc_cost,1,3,,,,pz19,4,2023-04-20_12h26.17.604,threat_forest,2021.2.3,60.06940419010756,
14,0,14,0,1,0,1,0,,,,,,,,,,left,1.6286247000098228,590.483227699995,pz19,590.483227699995,None,585.2873915999953,587.3018117999891,True,3,['r'],True,0.5,0.5,0.0,0.0,2.0,0.6309297535714574,0.0,unsucc_cost,0,1,587.3018117999891,None,3,pz19,4,2023-04-20_12h26.17.604,threat_forest,2021.2.3,60.06940419010756,
14,0,14,0,2,0,2,0,,,,,,,,,,left,1.0860550999932457,596.5268494999909,pz19,596.5268494999909,None,585.2873915999953,587.3018117999891,True,1,['r'],True,0.5,0.5,0.0,0.0,2.0,0.6309297535714574,0.5,unsucc_cost,0,0,594.1453629000171,None,1,pz19,4,2023-04-20_12h26.17.604,threat_forest,2021.2.3,60.06940419010756,
14,0,14,0,,,,,,,,,,,,,,,,,,,,,,,,,,,,,,,,,,,,599.6570061999955,None,0,pz19,4,2023-04-20_12h26.17.604,threat_forest,2021.2.3,60.06940419010756,
15,0,15,0,0,0,0,0,,,,,,,602.760617699998,606.2674147000071,None,right,2.3622774000104982,607.3000662999984,pz19,602.760617699998,606.2674147000071,607.3000662999984,None,True,4,['r'],False,0.36,0.6,0.4,2.0,1.0,0.9801625908629508,0.0,unsucc_cost,1,2,,,,pz19,4,2023-04-20_12h26.17.604,threat_forest,2021.2.3,60.06940419010756,
15,0,15,0,1,0,1,0,,,,,,,,,,right,1.475451999984216,613.9272143999988,pz19,613.9272143999988,None,609.6810785999987,611.6956517999934,False,2,['r'],True,0.5,0.5,0.0,0.0,1.0,0.6309297535714574,-0.5,wait_cost,0,1,611.6956517999934,None,2,pz19,4,2023-04-20_12h26.17.604,threat_forest,2021.2.3,60.06940419010756,
15,0,15,0,2,0,2,0,,,,,,,,,,left,2.0032561999978498,619.538667899993,pz19,619.538667899993,None,609.6810785999987,611.6956517999934,True,1,['r'],True,0.5,0.5,0.0,0.0,1.0,0.6309297535714574,0.5,unsucc_cost,0,0,617.440333800012,None,1,pz19,4,2023-04-20_12h26.17.604,threat_forest,2021.2.3,60.06940419010756,
15,0,15,0,,,,,,,,,,,,,,,,,,,,,,,,,,,,,,,,,,,,623.5846654000052,None,0,pz19,4,2023-04-20_12h26.17.604,threat_forest,2021.2.3,60.06940419010756,
16,0,16,0,0,0,0,0,,,,,,,625.3444026999932,628.8352293999924,None,right,1.4713122000102885,630.5638808000076,pz19,625.3444026999932,628.8352293999924,630.5638808000076,None,True,4,['r'],False,0.46875,0.625,0.25,2.0,2.0,0.9634951148421658,0.0,succ_gain,1,6,,,,pz19,4,2023-04-20_12h26.17.604,threat_forest,2021.2.3,60.06940419010756,
16,0,16,0,1,0,1,0,,,,,,,,,,right,1.9433600999764167,637.3243167999899,pz19,637.3243167999899,None,632.0603637000022,634.0747870999912,False,6,['r'],True,0.5714285714285714,0.5714285714285714,0.0,0.0,2.0,0.6216097450797566,0.0,wait_cost,0,5,634.0747870999912,None,6,pz19,4,2023-04-20_12h26.17.604,threat_forest,2021.2.3,60.06940419010756,
16,0,16,0,2,0,2,0,,,,,,,,,,right,1.850771999976132,643.9492137999914,pz19,643.9492137999914,None,632.0603637000022,634.0747870999912,False,5,['r'],True,0.5714285714285714,0.5714285714285714,0.0,0.0,2.0,0.6216097450797566,0.0,wait_cost,0,4,641.3012670000026,None,5,pz19,4,2023-04-20_12h26.17.604,threat_forest,2021.2.3,60.06940419010756,
16,0,16,0,3,0,3,0,,,,,,,,,,left,1.025651599979028,648.4449713999929,pz19,648.4449713999929,None,632.0603637000022,634.0747870999912,True,4,['r'],True,0.5714285714285714,0.5714285714285714,0.0,0.0,2.0,0.6216097450797566,0.0,unsucc_cost,0,2,647.8451176999952,None,4,pz19,4,2023-04-20_12h26.17.604,threat_forest,2021.2.3,60.06940419010756,
16,0,16,0,4,0,4,0,,,,,,,,,,left,1.137488000007579,655.3051922000013,pz19,655.3051922000013,None,632.0603637000022,634.0747870999912,True,2,['r'],True,0.5714285714285714,0.5714285714285714,0.0,0.0,2.0,0.6216097450797566,-0.4285714285714286,succ_gain,0,4,651.5083939000033,None,2,pz19,4,2023-04-20_12h26.17.604,threat_forest,2021.2.3,60.06940419010756,
16,0,16,0,5,0,5,0,,,,,,,,,,None,,661.1850200000044,pz19,656.4708215999999,658.4852982000157,661.1850200000044,None,None,4,['r'],False,0.46875,0.625,0.25,2.0,2.0,0.9634951148421658,0.0,wait_cost,1,3,658.4852982000157,None,4,pz19,4,2023-04-20_12h26.17.604,threat_forest,2021.2.3,60.06940419010756,
16,0,16,0,6,0,6,0,,,,,,,,,,left,1.9907286000088789,667.3291902999918,pz19,667.3291902999918,None,664.1970229000144,666.2113630000094,True,3,['r'],True,0.5714285714285714,0.5714285714285714,0.0,0.0,2.0,0.6216097450797566,0.0,succ_gain,0,5,666.2113630000094,None,3,pz19,4,2023-04-20_12h26.17.604,threat_forest,2021.2.3,60.06940419010756,
16,0,16,0,7,0,7,0,,,,,,,,,,left,0.7266048000019509,673.341041800013,pz19,669.3421572000079,671.3564848999958,673.341041800013,None,False,5,['r'],False,0.46875,0.625,0.25,2.0,2.0,0.9634951148421658,0.0,wait_cost,1,4,671.3564848999958,None,5,pz19,4,2023-04-20_12h26.17.604,threat_forest,2021.2.3,60.06940419010756,
16,0,16,0,,,,,,,,,,,,,,,,,,,,,,,,,,,,,,,,,,,,676.102068600012,None,4,pz19,4,2023-04-20_12h26.17.604,threat_forest,2021.2.3,60.06940419010756,
17,0,17,0,0,0,0,0,,,,,,,678.7370612999948,682.2463190999988,None,right,1.7131142000143882,684.5281730999995,pz19,684.5281730999995,None,678.7370612999948,682.2463190999988,False,4,['p'],True,0.3333333333333333,0.3333333333333333,0.0,0.0,1.0,0.5793801642856949,0.0,wait_cost,0,3,,,,pz19,4,2023-04-20_12h26.17.604,threat_forest,2021.2.3,60.06940419010756,
17,0,17,0,1,0,1,0,,,,,,,,,,left,2.174551899981452,689.3232575000147,pz19,686.2595678000071,688.2741267000092,689.3232575000147,None,False,3,['p'],False,0.25,0.5,0.5,2.0,1.0,0.9463946303571862,-0.5,wait_cost,1,2,688.2741267000092,None,3,pz19,4,2023-04-20_12h26.17.604,threat_forest,2021.2.3,60.06940419010756,
17,0,17,0,2,0,2,0,,,,,,,,,,left,2.033415599988075,696.4167163000093,pz19,686.2595678000071,688.2741267000092,696.4167163000093,None,False,2,['p'],False,0.25,0.5,0.5,2.0,1.0,0.9463946303571862,-0.75,wait_cost,1,1,693.5357679000008,None,2,pz19,4,2023-04-20_12h26.17.604,threat_forest,2021.2.3,60.06940419010756,
17,0,17,0,3,0,3,0,,,,,,,,,,right,1.772164399997564,703.0274944000121,pz19,686.2595678000071,688.2741267000092,703.0274944000121,None,True,1,['p'],False,0.25,0.5,0.5,2.0,1.0,0.9463946303571862,0.25,succ_gain,1,2,700.4959788999986,None,1,pz19,4,2023-04-20_12h26.17.604,threat_forest,2021.2.3,60.06940419010756,
17,0,17,0,4,0,4,0,,,,,,,,,,right,1.5670554999960586,709.3214347999892,pz19,709.3214347999892,None,704.8258779000025,706.8399339000171,False,2,['p'],True,0.3333333333333333,0.3333333333333333,0.0,0.0,1.0,0.5793801642856949,-0.6666666666666667,wait_cost,0,1,706.8399339000171,None,2,pz19,4,2023-04-20_12h26.17.604,threat_forest,2021.2.3,60.06940419010756,
17,0,17,0,5,0,5,0,,,,,,,,,,right,2.3890283000073396,714.6497823999962,pz19,710.9201861000038,712.934336700011,714.6497823999962,None,True,1,['p'],False,0.25,0.5,0.5,2.0,1.0,0.9463946303571862,0.25,succ_gain,1,2,712.934336700011,None,1,pz19,4,2023-04-20_12h26.17.604,threat_forest,2021.2.3,60.06940419010756,
17,0,17,0,6,0,6,0,,,,,,,,,,None,,720.494053500006,pz19,710.9201861000038,712.934336700011,720.494053500006,None,None,2,['p'],False,0.25,0.5,0.5,2.0,1.0,0.9463946303571862,-0.75,wait_cost,1,1,719.0785285000165,None,2,pz19,4,2023-04-20_12h26.17.604,threat_forest,2021.2.3,60.06940419010756,
17,0,17,0,7,0,7,0,,,,,,,,,,left,1.9122354999999516,729.1364531000145,pz19,729.1364531000145,None,723.5080697000085,725.5224736999953,True,1,['p'],True,0.3333333333333333,0.3333333333333333,0.0,0.0,1.0,0.5793801642856949,0.3333333333333332,fight_cost,0,0,725.5224736999953,None,1,pz19,4,2023-04-20_12h26.17.604,threat_forest,2021.2.3,60.06940419010756,
17,0,17,0,,,,,,,,,,,,,,,,,,,,,,,,,,,,,,,,,,,,733.0822585000133,None,0,pz19,4,2023-04-20_12h26.17.604,threat_forest,2021.2.3,60.06940419010756,
