miniblock.thisRepN,miniblock.thisTrialN,miniblock.thisN,miniblock.thisIndex,day.thisRepN,day.thisTrialN,day.thisN,day.thisIndex,welcoming.started,welcoming.stopped,key_resp_2.keys,key_resp_2.rt,key_resp_2.started,key_resp_2.stopped,forest.started,fixation_forest.started,fixation_forest.stopped,key_resp.keys,key_resp.rt,key_resp.started,Subject_ID,weather_left.started,weather_left.stopped,weather_right.started,weather_right.stopped,foraging T/F,in_LP,p/r heuristic,good_weather.T/F,p_succ_correct,p_succ_uncorrected,r_threat,n_oponents,gain_if_succ,weather_entropy,OP_value_difference,action_outcome,forest_side_L=0_R=1,out_LP,fixation_day.started,fixation_day.stopped,n_day-1.out_LP.,participant,session,date,expName,psychopyVersion,frameRate,
,,,,,,,,20.108585999929346,None,space,1.1941158999688923,20.108585999929346,None,,,,,,,,,,,,,,,,,,,,,,,,,,,,,uk5,4,2022-04-08_15h54.35.092,threat_forest,2021.2.3,60.074889325825254,
0,0,0,0,0,0,0,0,,,,,,,21.377539600012824,24.88768019992858,None,right,2.608024000073783,28.536309799994342,uk5,28.536309799994342,None,21.377539600012824,24.88768019992858,False,5,['p'],True,0.32,0.4,0.2,1.0,2.0,0.9455672104350704,0.0,wait_cost,0,4,,,,uk5,4,2022-04-08_15h54.35.092,threat_forest,2021.2.3,60.074889325825254,
0,0,0,0,1,0,1,0,,,,,,,,,,left,2.642399500007741,36.73983480001334,uk5,31.166510100010782,33.176486299955286,36.73983480001334,None,False,4,['p'],False,0.1975308641975308,0.2222222222222222,0.1111111111111111,1.0,2.0,0.7461067557824965,0.0,wait_cost,1,3,33.176486299955286,None,4,uk5,4,2022-04-08_15h54.35.092,threat_forest,2021.2.3,60.074889325825254,
0,0,0,0,2,0,2,0,,,,,,,,,,right,2.2892606999957934,43.3446187999798,uk5,43.3446187999798,None,39.40472349990159,41.41878229996655,False,3,['p'],True,0.32,0.4,0.2,1.0,2.0,0.9455672104350704,-0.2,wait_cost,0,2,41.41878229996655,None,3,uk5,4,2022-04-08_15h54.35.092,threat_forest,2021.2.3,60.074889325825254,
0,0,0,0,3,0,3,0,,,,,,,,,,left,2.6503455000929534,50.90248769999016,uk5,50.90248769999016,None,39.40472349990159,41.41878229996655,True,2,['p'],True,0.32,0.4,0.2,1.0,2.0,0.9455672104350704,-0.6799999999999999,succ_gain,0,4,47.67967400001362,None,2,uk5,4,2022-04-08_15h54.35.092,threat_forest,2021.2.3,60.074889325825254,
0,0,0,0,4,0,4,0,,,,,,,,,,right,1.827850200003013,56.85983669990674,uk5,56.85983669990674,None,39.40472349990159,41.41878229996655,False,4,['p'],True,0.32,0.4,0.2,1.0,2.0,0.9455672104350704,0.0,wait_cost,0,3,55.588874400011264,None,4,uk5,4,2022-04-08_15h54.35.092,threat_forest,2021.2.3,60.074889325825254,
0,0,0,0,5,0,5,0,,,,,,,,,,left,2.3154486999846995,61.30377249990124,uk5,61.30377249990124,None,39.40472349990159,41.41878229996655,True,3,['p'],True,0.32,0.4,0.2,1.0,2.0,0.9455672104350704,-0.2,succ_gain,0,5,60.7340383999981,None,3,uk5,4,2022-04-08_15h54.35.092,threat_forest,2021.2.3,60.074889325825254,
0,0,0,0,6,0,6,0,,,,,,,,,,right,1.5563127000350505,66.62062149995472,uk5,66.62062149995472,None,39.40472349990159,41.41878229996655,False,5,['p'],True,0.32,0.4,0.2,1.0,2.0,0.9455672104350704,0.0,wait_cost,0,4,65.66292949998751,None,5,uk5,4,2022-04-08_15h54.35.092,threat_forest,2021.2.3,60.074889325825254,
0,0,0,0,7,0,7,0,,,,,,,,,,left,1.682635199977085,72.79683709994424,uk5,68.19402830000035,70.20849749993067,72.79683709994424,None,False,4,['p'],False,0.1975308641975308,0.2222222222222222,0.1111111111111111,1.0,2.0,0.7461067557824965,0.0,wait_cost,1,3,70.20849749993067,None,4,uk5,4,2022-04-08_15h54.35.092,threat_forest,2021.2.3,60.074889325825254,
0,0,0,0,,,,,,,,,,,,,,,,,,,,,,,,,,,,,,,,,,,,76.52302550000604,None,3,uk5,4,2022-04-08_15h54.35.092,threat_forest,2021.2.3,60.074889325825254,
1,0,1,0,0,0,0,0,,,,,,,79.79320279997773,83.28518599993549,None,right,1.5360787999816239,85.26019319996703,uk5,85.26019319996703,None,79.79320279997773,83.28518599993549,False,4,['r'],True,0.48,0.6,0.2,1.0,1.0,0.9455672104350704,0.0,wait_cost,0,3,,,,uk5,4,2022-04-08_15h54.35.092,threat_forest,2021.2.3,60.074889325825254,
1,0,1,0,1,0,1,0,,,,,,,,,,left,2.197112000081688,90.2529473999748,uk5,86.82617749995552,88.84101169998758,90.2529473999748,None,False,3,['r'],False,0.2962962962962963,0.3333333333333333,0.1111111111111111,1.0,1.0,0.8325252476189534,-0.1111111111111111,wait_cost,1,2,88.84101169998758,None,3,uk5,4,2022-04-08_15h54.35.092,threat_forest,2021.2.3,60.074889325825254,
1,0,1,0,2,0,2,0,,,,,,,,,,left,2.262575500062667,97.29279929993208,uk5,97.29279929993208,None,92.47907180001494,94.48583139991388,True,2,['r'],True,0.48,0.6,0.2,1.0,1.0,0.9455672104350704,-0.52,unsucc_cost,0,0,94.48583139991388,None,2,uk5,4,2022-04-08_15h54.35.092,threat_forest,2021.2.3,60.074889325825254,
1,0,1,0,,,,,,,,,,,,,,,,,,,,,,,,,,,,,,,,,,,,101.59540979994927,None,0,uk5,4,2022-04-08_15h54.35.092,threat_forest,2021.2.3,60.074889325825254,
2,0,2,0,0,0,0,0,,,,,,,103.07342629996128,106.5744189999532,None,left,1.6084603000199422,109.33031119999941,uk5,109.33031119999941,None,103.07342629996128,106.5744189999532,True,5,['p'],True,0.3333333333333333,0.3333333333333333,0.0,0.0,2.0,0.5793801642856949,0.0,unsucc_cost,0,3,,,,uk5,4,2022-04-08_15h54.35.092,threat_forest,2021.2.3,60.074889325825254,
2,0,2,0,1,0,1,0,,,,,,,,,,right,0.34496830007992685,115.59470979997423,uk5,110.9705246000085,112.98504469997715,115.59470979997423,None,True,3,['p'],False,0.2222222222222222,0.6666666666666666,0.6666666666666666,2.0,2.0,0.77250688571426,-0.6666666666666666,succ_gain,1,5,112.98504469997715,None,3,uk5,4,2022-04-08_15h54.35.092,threat_forest,2021.2.3,60.074889325825254,
2,0,2,0,2,0,2,0,,,,,,,,,,left,1.453084300039336,120.29524409992155,uk5,110.9705246000085,112.98504469997715,120.29524409992155,None,False,5,['p'],False,0.2222222222222222,0.6666666666666666,0.6666666666666666,2.0,2.0,0.77250688571426,0.0,wait_cost,1,4,117.98007099993993,None,5,uk5,4,2022-04-08_15h54.35.092,threat_forest,2021.2.3,60.074889325825254,
2,0,2,0,3,0,3,0,,,,,,,,,,right,2.7687539000762627,124.45006499998271,uk5,124.45006499998271,None,121.77708429994527,123.79173940001056,False,4,['p'],True,0.3333333333333333,0.3333333333333333,0.0,0.0,2.0,0.5793801642856949,0.0,wait_cost,0,3,123.79173940001056,None,4,uk5,4,2022-04-08_15h54.35.092,threat_forest,2021.2.3,60.074889325825254,
2,0,2,0,4,0,4,0,,,,,,,,,,left,1.4079263999592513,130.01336149999406,uk5,127.24044859991409,129.2528681999538,130.01336149999406,None,False,3,['p'],False,0.2222222222222222,0.6666666666666666,0.6666666666666666,2.0,2.0,0.77250688571426,-0.6666666666666666,wait_cost,1,2,129.2528681999538,None,3,uk5,4,2022-04-08_15h54.35.092,threat_forest,2021.2.3,60.074889325825254,
2,0,2,0,5,0,5,0,,,,,,,,,,left,1.5509967999532819,135.7547106000129,uk5,135.7547106000129,None,131.45134189992677,133.466004399932,True,2,['p'],True,0.3333333333333333,0.3333333333333333,0.0,0.0,2.0,0.5793801642856949,-0.6666666666666667,succ_gain,0,4,133.466004399932,None,2,uk5,4,2022-04-08_15h54.35.092,threat_forest,2021.2.3,60.074889325825254,
2,0,2,0,6,0,6,0,,,,,,,,,,right,1.1990805000532418,142.5575475000078,uk5,142.5575475000078,None,131.45134189992677,133.466004399932,False,4,['p'],True,0.3333333333333333,0.3333333333333333,0.0,0.0,2.0,0.5793801642856949,0.0,wait_cost,0,3,139.34392379992642,None,4,uk5,4,2022-04-08_15h54.35.092,threat_forest,2021.2.3,60.074889325825254,
2,0,2,0,7,0,7,0,,,,,,,,,,right,1.4742752999300137,146.47062819998246,uk5,146.47062819998246,None,131.45134189992677,133.466004399932,False,3,['p'],True,0.3333333333333333,0.3333333333333333,0.0,0.0,2.0,0.5793801642856949,0.0,wait_cost,0,2,145.78783569997177,None,3,uk5,4,2022-04-08_15h54.35.092,threat_forest,2021.2.3,60.074889325825254,
2,0,2,0,,,,,,,,,,,,,,,,,,,,,,,,,,,,,,,,,,,,149.9838849999942,None,2,uk5,4,2022-04-08_15h54.35.092,threat_forest,2021.2.3,60.074889325825254,
3,0,3,0,0,0,0,0,,,,,,,153.76829419995192,157.26704389997758,None,right,1.8923807000974193,158.02434269990772,uk5,158.02434269990772,None,153.76829419995192,157.26704389997758,False,5,['r'],True,0.4,0.4,0.0,0.0,1.0,0.6126016192893442,0.0,wait_cost,0,4,,,,uk5,4,2022-04-08_15h54.35.092,threat_forest,2021.2.3,60.074889325825254,
3,0,3,0,1,0,1,0,,,,,,,,,,left,1.693410399951972,163.7530102999881,uk5,159.94167359999847,161.9563216000097,163.7530102999881,None,False,4,['r'],False,0.3061224489795918,0.4285714285714285,0.2857142857142857,2.0,1.0,0.9885754083994552,0.0,wait_cost,1,3,161.9563216000097,None,4,uk5,4,2022-04-08_15h54.35.092,threat_forest,2021.2.3,60.074889325825254,
3,0,3,0,2,0,2,0,,,,,,,,,,left,1.4883113000541925,169.5088336999761,uk5,159.94167359999847,161.9563216000097,169.5088336999761,None,False,3,['r'],False,0.3061224489795918,0.4285714285714285,0.2857142857142857,2.0,1.0,0.9885754083994552,-0.2857142857142857,wait_cost,1,2,167.48407699994277,None,3,uk5,4,2022-04-08_15h54.35.092,threat_forest,2021.2.3,60.074889325825254,
3,0,3,0,3,0,3,0,,,,,,,,,,left,1.8532519999425858,176.15421810001135,uk5,176.15421810001135,None,171.01535309990868,173.02885709994007,True,2,['r'],True,0.4,0.4,0.0,0.0,1.0,0.6126016192893442,-0.6,unsucc_cost,0,0,173.02885709994007,None,2,uk5,4,2022-04-08_15h54.35.092,threat_forest,2021.2.3,60.074889325825254,
3,0,3,0,,,,,,,,,,,,,,,,,,,,,,,,,,,,,,,,,,,,180.03932879993226,None,0,uk5,4,2022-04-08_15h54.35.092,threat_forest,2021.2.3,60.074889325825254,
4,0,4,0,0,0,0,0,,,,,,,181.43256049999036,184.9344834999647,None,right,2.314177899970673,185.50987710000481,uk5,181.43256049999036,184.9344834999647,185.50987710000481,None,True,4,['p'],False,0.2222222222222222,0.6666666666666666,0.6666666666666666,2.0,1.0,0.77250688571426,0.0,unsucc_cost,1,2,,,,uk5,4,2022-04-08_15h54.35.092,threat_forest,2021.2.3,60.074889325825254,
4,0,4,0,1,0,1,0,,,,,,,,,,right,1.64627060003113,193.4521404999541,uk5,193.4521404999541,None,187.84864340000786,189.86293309996836,False,2,['p'],True,0.25,0.25,0.0,0.0,1.0,0.5118595071429148,-0.75,wait_cost,0,1,189.86293309996836,None,2,uk5,4,2022-04-08_15h54.35.092,threat_forest,2021.2.3,60.074889325825254,
4,0,4,0,2,0,2,0,,,,,,,,,,left,2.0966468000551686,200.60544989991467,uk5,200.60544989991467,None,187.84864340000786,189.86293309996836,True,1,['p'],True,0.25,0.25,0.0,0.0,1.0,0.5118595071429148,0.25,unsucc_cost,0,0,197.13970219995826,None,1,uk5,4,2022-04-08_15h54.35.092,threat_forest,2021.2.3,60.074889325825254,
4,0,4,0,,,,,,,,,,,,,,,,,,,,,,,,,,,,,,,,,,,,204.7493241999764,None,0,uk5,4,2022-04-08_15h54.35.092,threat_forest,2021.2.3,60.074889325825254,
5,0,5,0,0,0,0,0,,,,,,,207.96362109994516,211.46331139991526,None,right,2.515201700036414,213.61970869998913,uk5,207.96362109994516,211.46331139991526,213.61970869998913,None,True,4,['p'],False,0.3061224489795918,0.4285714285714285,0.2857142857142857,2.0,2.0,0.9885754083994552,0.0,succ_gain,1,6,,,,uk5,4,2022-04-08_15h54.35.092,threat_forest,2021.2.3,60.074889325825254,
5,0,5,0,1,0,1,0,,,,,,,,,,left,2.769239499932155,221.26293179998174,uk5,221.26293179998174,None,216.15558799996506,218.16989119991194,True,6,['p'],True,0.4,0.4,0.0,0.0,2.0,0.6126016192893442,0.0,succ_gain,0,6,218.16989119991194,None,6,uk5,4,2022-04-08_15h54.35.092,threat_forest,2021.2.3,60.074889325825254,
5,0,5,0,2,0,2,0,,,,,,,,,,left,1.4604065000312403,229.02880540001206,uk5,224.0650095999008,226.07931379997171,229.02880540001206,None,False,6,['p'],False,0.3061224489795918,0.4285714285714285,0.2857142857142857,2.0,2.0,0.9885754083994552,0.0,wait_cost,1,5,226.07931379997171,None,6,uk5,4,2022-04-08_15h54.35.092,threat_forest,2021.2.3,60.074889325825254,
5,0,5,0,3,0,3,0,,,,,,,,,,right,2.1114405000116676,233.37883489998057,uk5,233.37883489998057,None,230.51449709990993,232.5233375999378,False,5,['p'],True,0.4,0.4,0.0,0.0,2.0,0.6126016192893442,0.0,wait_cost,0,4,232.5233375999378,None,5,uk5,4,2022-04-08_15h54.35.092,threat_forest,2021.2.3,60.074889325825254,
5,0,5,0,4,0,4,0,,,,,,,,,,left,2.085088200052269,240.69517570000608,uk5,235.5206615999341,237.53576689993497,240.69517570000608,None,False,4,['p'],False,0.3061224489795918,0.4285714285714285,0.2857142857142857,2.0,2.0,0.9885754083994552,0.0,wait_cost,1,3,237.53576689993497,None,4,uk5,4,2022-04-08_15h54.35.092,threat_forest,2021.2.3,60.074889325825254,
5,0,5,0,5,0,5,0,,,,,,,,,,left,2.306446800008416,247.15517969999928,uk5,247.15517969999928,None,242.79766399995424,244.81220899999607,True,3,['p'],True,0.4,0.4,0.0,0.0,2.0,0.6126016192893442,0.0,succ_gain,0,5,244.81220899999607,None,3,uk5,4,2022-04-08_15h54.35.092,threat_forest,2021.2.3,60.074889325825254,
5,0,5,0,6,0,6,0,,,,,,,,,,left,2.821691600023769,254.05951109994203,uk5,254.05951109994203,None,242.79766399995424,244.81220899999607,True,5,['p'],True,0.4,0.4,0.0,0.0,2.0,0.6126016192893442,0.0,succ_gain,0,6,251.50568960001692,None,5,uk5,4,2022-04-08_15h54.35.092,threat_forest,2021.2.3,60.074889325825254,
5,0,5,0,7,0,7,0,,,,,,,,,,left,2.5134230999974534,260.0470583999995,uk5,256.90101319993846,258.9154065999901,260.0470583999995,None,False,6,['p'],False,0.3061224489795918,0.4285714285714285,0.2857142857142857,2.0,2.0,0.9885754083994552,0.0,wait_cost,1,5,258.9154065999901,None,6,uk5,4,2022-04-08_15h54.35.092,threat_forest,2021.2.3,60.074889325825254,
5,0,5,0,,,,,,,,,,,,,,,,,,,,,,,,,,,,,,,,,,,,264.59345519996714,None,5,uk5,4,2022-04-08_15h54.35.092,threat_forest,2021.2.3,60.074889325825254,
6,0,6,0,0,0,0,0,,,,,,,267.8030848999042,271.30569379997905,None,right,2.720845100004226,272.5196812999202,uk5,272.5196812999202,None,267.8030848999042,271.30569379997905,False,4,['p'],True,0.4,0.4,0.0,0.0,1.0,0.6126016192893442,0.0,wait_cost,0,3,,,,uk5,4,2022-04-08_15h54.35.092,threat_forest,2021.2.3,60.074889325825254,
6,0,6,0,1,0,1,0,,,,,,,,,,left,2.716572199948132,278.87690949998796,uk5,275.26723309990484,277.28187700000126,278.87690949998796,None,False,3,['p'],False,0.3333333333333333,0.5,0.3333333333333333,2.0,1.0,1.0,-0.3333333333333333,wait_cost,1,2,277.28187700000126,None,3,uk5,4,2022-04-08_15h54.35.092,threat_forest,2021.2.3,60.074889325825254,
6,0,6,0,2,0,2,0,,,,,,,,,,left,1.6917347999988124,284.4140885999659,uk5,275.26723309990484,277.28187700000126,284.4140885999659,None,False,2,['p'],False,0.3333333333333333,0.5,0.3333333333333333,2.0,1.0,1.0,-0.6666666666666667,wait_cost,1,1,283.62545369996224,None,2,uk5,4,2022-04-08_15h54.35.092,threat_forest,2021.2.3,60.074889325825254,
6,0,6,0,3,0,3,0,,,,,,,,,,left,1.4568764000432566,289.430649499991,uk5,289.430649499991,None,286.1238059999887,288.13811989990063,True,1,['p'],True,0.4,0.4,0.0,0.0,1.0,0.6126016192893442,0.4,unsucc_cost,0,0,288.13811989990063,None,1,uk5,4,2022-04-08_15h54.35.092,threat_forest,2021.2.3,60.074889325825254,
6,0,6,0,,,,,,,,,,,,,,,,,,,,,,,,,,,,,,,,,,,,292.93355529999826,None,0,uk5,4,2022-04-08_15h54.35.092,threat_forest,2021.2.3,60.074889325825254,
7,0,7,0,0,0,0,0,,,,,,,294.8370858000126,298.3336794999195,None,left,1.6110384999774396,301.4227960999124,uk5,301.4227960999124,None,294.8370858000126,298.3336794999195,True,4,['p'],True,0.5,0.5,0.0,0.0,2.0,0.6309297535714574,0.0,unsucc_cost,0,2,,,,uk5,4,2022-04-08_15h54.35.092,threat_forest,2021.2.3,60.074889325825254,
7,0,7,0,1,0,1,0,,,,,,,,,,right,2.002934699994512,307.97677059995476,uk5,307.97677059995476,None,294.8370858000126,298.3336794999195,False,2,['p'],True,0.5,0.5,0.0,0.0,2.0,0.6309297535714574,-0.5,wait_cost,0,1,305.0725395999616,None,2,uk5,4,2022-04-08_15h54.35.092,threat_forest,2021.2.3,60.074889325825254,
7,0,7,0,2,0,2,0,,,,,,,,,,left,2.4111973999533802,314.2006481999997,uk5,314.2006481999997,None,294.8370858000126,298.3336794999195,True,1,['p'],True,0.5,0.5,0.0,0.0,2.0,0.6309297535714574,0.5,succ_gain,0,3,312.0160805999767,None,1,uk5,4,2022-04-08_15h54.35.092,threat_forest,2021.2.3,60.074889325825254,
7,0,7,0,3,0,3,0,,,,,,,,,,None,,319.9993820999516,uk5,316.6314734999323,318.6430771999294,319.9993820999516,None,None,3,['p'],False,0.4081632653061224,0.5714285714285714,0.2857142857142857,2.0,2.0,0.9885754083994552,-0.2857142857142857,wait_cost,1,2,318.6430771999294,None,3,uk5,4,2022-04-08_15h54.35.092,threat_forest,2021.2.3,60.074889325825254,
7,0,7,0,4,0,4,0,,,,,,,,,,right,1.867098700022325,326.8313116999343,uk5,326.8313116999343,None,323.005498399958,325.0204978999682,False,2,['p'],True,0.5,0.5,0.0,0.0,2.0,0.6309297535714574,-0.5,wait_cost,0,1,325.0204978999682,None,2,uk5,4,2022-04-08_15h54.35.092,threat_forest,2021.2.3,60.074889325825254,
7,0,7,0,5,0,5,0,,,,,,,,,,right,2.44693630002439,334.33854089991655,uk5,328.7172752999468,330.73186960001476,334.33854089991655,None,True,1,['p'],False,0.4081632653061224,0.5714285714285714,0.2857142857142857,2.0,2.0,0.9885754083994552,0.4081632653061224,succ_gain,1,3,330.73186960001476,None,1,uk5,4,2022-04-08_15h54.35.092,threat_forest,2021.2.3,60.074889325825254,
7,0,7,0,6,0,6,0,,,,,,,,,,right,0.7117033000104129,342.58516299992334,uk5,342.58516299992334,None,336.809367800015,338.8244126999052,False,3,['p'],True,0.5,0.5,0.0,0.0,2.0,0.6309297535714574,0.0,wait_cost,0,2,338.8244126999052,None,3,uk5,4,2022-04-08_15h54.35.092,threat_forest,2021.2.3,60.074889325825254,
7,0,7,0,7,0,7,0,,,,,,,,,,left,1.1800180999562144,346.87931360001676,uk5,343.3199695999501,345.33441579993814,346.87931360001676,None,False,2,['p'],False,0.4081632653061224,0.5714285714285714,0.2857142857142857,2.0,2.0,0.9885754083994552,-0.5918367346938775,wait_cost,1,1,345.33441579993814,None,2,uk5,4,2022-04-08_15h54.35.092,threat_forest,2021.2.3,60.074889325825254,
7,0,7,0,,,,,,,,,,,,,,,,,,,,,,,,,,,,,,,,,,,,350.09698519995436,None,1,uk5,4,2022-04-08_15h54.35.092,threat_forest,2021.2.3,60.074889325825254,
8,0,8,0,0,0,0,0,,,,,,,353.6799730999628,357.1778934999602,None,None,,358.10242339991964,uk5,353.6799730999628,357.1778934999602,358.10242339991964,None,None,5,['r'],False,0.16,0.2,0.2,2.0,1.0,0.8198746470064713,0.0,wait_cost,1,4,,,,uk5,4,2022-04-08_15h54.35.092,threat_forest,2021.2.3,60.074889325825254,
8,0,8,0,1,0,1,0,,,,,,,,,,right,2.0320785000221804,366.6647210000083,uk5,366.6647210000083,None,361.1058691999642,363.1181028999854,False,4,['r'],True,0.375,0.5,0.25,1.0,1.0,0.9850568223215076,0.0,wait_cost,0,3,363.1181028999854,None,4,uk5,4,2022-04-08_15h54.35.092,threat_forest,2021.2.3,60.074889325825254,
8,0,8,0,2,0,2,0,,,,,,,,,,right,1.4661051998846233,374.300809099921,uk5,374.300809099921,None,361.1058691999642,363.1181028999854,False,3,['r'],True,0.375,0.5,0.25,1.0,1.0,0.9850568223215076,-0.25,wait_cost,0,2,370.7275204999605,None,3,uk5,4,2022-04-08_15h54.35.092,threat_forest,2021.2.3,60.074889325825254,
8,0,8,0,3,0,3,0,,,,,,,,,,right,1.2709315000101924,380.474329699995,uk5,380.474329699995,None,361.1058691999642,363.1181028999854,False,2,['r'],True,0.375,0.5,0.25,1.0,1.0,0.9850568223215076,-0.625,wait_cost,0,1,377.80430369998794,None,2,uk5,4,2022-04-08_15h54.35.092,threat_forest,2021.2.3,60.074889325825254,
8,0,8,0,4,0,4,0,,,,,,,,,,left,2.1619062999961898,385.5865247999318,uk5,385.5865247999318,None,361.1058691999642,363.1181028999854,True,1,['r'],True,0.375,0.5,0.25,1.0,1.0,0.9850568223215076,0.375,unsucc_cost,0,0,383.78226120001636,None,1,uk5,4,2022-04-08_15h54.35.092,threat_forest,2021.2.3,60.074889325825254,
8,0,8,0,,,,,,,,,,,,,,,,,,,,,,,,,,,,,,,,,,,,389.79317379998975,None,0,uk5,4,2022-04-08_15h54.35.092,threat_forest,2021.2.3,60.074889325825254,
9,0,9,0,0,0,0,0,,,,,,,392.97758999990765,396.4839601999847,None,right,1.883767900057137,400.22632719995454,uk5,392.97758999990765,396.4839601999847,400.22632719995454,None,True,5,['r'],False,0.3950617283950617,0.4444444444444444,0.1111111111111111,1.0,2.0,0.8733423231021583,0.0,unsucc_cost,1,3,,,,uk5,4,2022-04-08_15h54.35.092,threat_forest,2021.2.3,60.074889325825254,
9,0,9,0,1,0,1,0,,,,,,,,,,left,1.55007110000588,404.927110599936,uk5,404.927110599936,None,402.1320950000081,404.1460134999361,True,3,['r'],True,0.5555555555555556,0.6666666666666666,0.1666666666666666,1.0,2.0,0.8929352898779306,-0.1666666666666666,fight_cost,0,0,404.1460134999361,None,3,uk5,4,2022-04-08_15h54.35.092,threat_forest,2021.2.3,60.074889325825254,
9,0,9,0,,,,,,,,,,,,,,,,,,,,,,,,,,,,,,,,,,,,408.5092550999252,None,0,uk5,4,2022-04-08_15h54.35.092,threat_forest,2021.2.3,60.074889325825254,
10,0,10,0,0,0,0,0,,,,,,,410.2781679999316,413.7751188999973,None,right,1.503087199991569,416.56244369992055,uk5,416.56244369992055,None,410.2781679999316,413.7751188999973,False,5,['r'],True,0.32,0.4,0.2,1.0,1.0,0.9455672104350704,0.0,wait_cost,0,4,,,,uk5,4,2022-04-08_15h54.35.092,threat_forest,2021.2.3,60.074889325825254,
10,0,10,0,1,0,1,0,,,,,,,,,,right,1.7275843999814242,420.6214752999367,uk5,420.6214752999367,None,410.2781679999316,413.7751188999973,False,4,['r'],True,0.32,0.4,0.2,1.0,1.0,0.9455672104350704,0.0,wait_cost,0,3,420.0982165999012,None,4,uk5,4,2022-04-08_15h54.35.092,threat_forest,2021.2.3,60.074889325825254,
10,0,10,0,2,0,2,0,,,,,,,,,,left,2.3511773999780416,427.55169849994127,uk5,422.3800009000115,424.39397360000294,427.55169849994127,None,False,3,['r'],False,0.1975308641975308,0.2222222222222222,0.1111111111111111,1.0,1.0,0.7461067557824965,-0.1111111111111111,wait_cost,1,2,424.39397360000294,None,3,uk5,4,2022-04-08_15h54.35.092,threat_forest,2021.2.3,60.074889325825254,
10,0,10,0,3,0,3,0,,,,,,,,,,right,1.84062749997247,433.2923622999806,uk5,433.2923622999806,None,429.923057799926,431.92034810001496,False,2,['r'],True,0.32,0.4,0.2,1.0,1.0,0.9455672104350704,-0.6799999999999999,wait_cost,0,1,431.92034810001496,None,2,uk5,4,2022-04-08_15h54.35.092,threat_forest,2021.2.3,60.074889325825254,
10,0,10,0,4,0,4,0,,,,,,,,,,right,2.625530100078322,440.0565269999206,uk5,435.1510047999909,437.1654432999203,440.0565269999206,None,True,1,['r'],False,0.1975308641975308,0.2222222222222222,0.1111111111111111,1.0,1.0,0.7461067557824965,0.1975308641975308,unsucc_cost,1,0,437.1654432999203,None,1,uk5,4,2022-04-08_15h54.35.092,threat_forest,2021.2.3,60.074889325825254,
10,0,10,0,,,,,,,,,,,,,,,,,,,,,,,,,,,,,,,,,,,,444.72532249998767,None,0,uk5,4,2022-04-08_15h54.35.092,threat_forest,2021.2.3,60.074889325825254,
11,0,11,0,0,0,0,0,,,,,,,447.54973869991954,451.0541898999363,None,left,2.573260599980131,454.84304740000516,uk5,447.54973869991954,451.0541898999363,454.84304740000516,None,False,5,['p'],False,0.1975308641975308,0.2222222222222222,0.1111111111111111,1.0,2.0,0.7461067557824965,0.0,wait_cost,1,4,,,,uk5,4,2022-04-08_15h54.35.092,threat_forest,2021.2.3,60.074889325825254,
11,0,11,0,1,0,1,0,,,,,,,,,,right,1.8070576000027359,460.9393475999823,uk5,460.9393475999823,None,457.4519154999871,459.46133169997483,False,4,['p'],True,0.2777777777777778,0.3333333333333333,0.1666666666666666,1.0,2.0,0.8929352898779304,0.0,wait_cost,0,3,459.46133169997483,None,4,uk5,4,2022-04-08_15h54.35.092,threat_forest,2021.2.3,60.074889325825254,
11,0,11,0,2,0,2,0,,,,,,,,,,right,2.4032275999197736,465.3344008999411,uk5,462.7749310999643,464.78958340000827,465.3344008999411,None,True,3,['p'],False,0.1975308641975308,0.2222222222222222,0.1111111111111111,1.0,2.0,0.7461067557824965,-0.1111111111111111,unsucc_cost,1,1,464.78958340000827,None,3,uk5,4,2022-04-08_15h54.35.092,threat_forest,2021.2.3,60.074889325825254,
11,0,11,0,3,0,3,0,,,,,,,,,,right,1.8606271999888122,471.6361513999291,uk5,462.7749310999643,464.78958340000827,471.6361513999291,None,True,1,['p'],False,0.1975308641975308,0.2222222222222222,0.1111111111111111,1.0,2.0,0.7461067557824965,0.1975308641975308,unsucc_cost,1,0,469.7682518999791,None,1,uk5,4,2022-04-08_15h54.35.092,threat_forest,2021.2.3,60.074889325825254,
11,0,11,0,,,,,,,,,,,,,,,,,,,,,,,,,,,,,,,,,,,,475.52997999999207,None,0,uk5,4,2022-04-08_15h54.35.092,threat_forest,2021.2.3,60.074889325825254,
12,0,12,0,0,0,0,0,,,,,,,476.437212199904,479.93291420000605,None,right,1.9274143999209628,481.4864672999829,uk5,481.4864672999829,None,476.437212199904,479.93291420000605,False,5,['p'],True,0.2222222222222222,0.3333333333333333,0.3333333333333333,2.0,2.0,0.9656336071428248,0.0,wait_cost,0,4,,,,uk5,4,2022-04-08_15h54.35.092,threat_forest,2021.2.3,60.074889325825254,
12,0,12,0,1,0,1,0,,,,,,,,,,right,2.3258504999103025,486.4333970999578,uk5,483.43931509996764,485.45365679997485,486.4333970999578,None,True,4,['p'],False,0.16,0.2,0.2,2.0,2.0,0.8198746470064713,0.0,unsucc_cost,1,2,485.45365679997485,None,4,uk5,4,2022-04-08_15h54.35.092,threat_forest,2021.2.3,60.074889325825254,
12,0,12,0,2,0,2,0,,,,,,,,,,left,2.1412992000114173,494.48577999998815,uk5,483.43931509996764,485.45365679997485,494.48577999998815,None,False,2,['p'],False,0.16,0.2,0.2,2.0,2.0,0.8198746470064713,-0.8400000000000001,wait_cost,1,1,490.7821290999418,None,2,uk5,4,2022-04-08_15h54.35.092,threat_forest,2021.2.3,60.074889325825254,
12,0,12,0,3,0,3,0,,,,,,,,,,right,2.003472900018096,501.076250199927,uk5,483.43931509996764,485.45365679997485,501.076250199927,None,True,1,['p'],False,0.16,0.2,0.2,2.0,2.0,0.8198746470064713,0.1599999999999999,unsucc_cost,1,0,498.65816959994845,None,1,uk5,4,2022-04-08_15h54.35.092,threat_forest,2021.2.3,60.074889325825254,
12,0,12,0,,,,,,,,,,,,,,,,,,,,,,,,,,,,,,,,,,,,505.11884449992795,None,0,uk5,4,2022-04-08_15h54.35.092,threat_forest,2021.2.3,60.074889325825254,
13,0,13,0,0,0,0,0,,,,,,,506.7350887999637,510.2359062999021,None,right,1.9565680000232533,510.8998397999676,uk5,510.8998397999676,None,506.7350887999637,510.2359062999021,False,4,['r'],True,0.4444444444444445,0.6666666666666666,0.3333333333333333,1.0,1.0,0.9656336071428248,0.0,wait_cost,0,3,,,,uk5,4,2022-04-08_15h54.35.092,threat_forest,2021.2.3,60.074889325825254,
13,0,13,0,1,0,1,0,,,,,,,,,,right,2.8717351000523195,518.4160502000013,uk5,518.4160502000013,None,506.7350887999637,510.2359062999021,False,3,['r'],True,0.4444444444444445,0.6666666666666666,0.3333333333333333,1.0,1.0,0.9656336071428248,-0.3333333333333333,wait_cost,0,2,514.8926769999089,None,3,uk5,4,2022-04-08_15h54.35.092,threat_forest,2021.2.3,60.074889325825254,
13,0,13,0,2,0,2,0,,,,,,,,,,right,2.046472799964249,524.0932793999091,uk5,524.0932793999091,None,506.7350887999637,510.2359062999021,False,2,['r'],True,0.4444444444444445,0.6666666666666666,0.3333333333333333,1.0,1.0,0.9656336071428248,-0.5555555555555556,wait_cost,0,1,523.3348328999709,None,2,uk5,4,2022-04-08_15h54.35.092,threat_forest,2021.2.3,60.074889325825254,
13,0,13,0,3,0,3,0,,,,,,,,,,left,1.951524000032805,530.3712527999887,uk5,530.3712527999887,None,506.7350887999637,510.2359062999021,True,1,['r'],True,0.4444444444444445,0.6666666666666666,0.3333333333333333,1.0,1.0,0.9656336071428248,0.4444444444444444,unsucc_cost,0,0,528.1636614999734,None,1,uk5,4,2022-04-08_15h54.35.092,threat_forest,2021.2.3,60.074889325825254,
13,0,13,0,,,,,,,,,,,,,,,,,,,,,,,,,,,,,,,,,,,,534.3584031999344,None,0,uk5,4,2022-04-08_15h54.35.092,threat_forest,2021.2.3,60.074889325825254,
14,0,14,0,0,0,0,0,,,,,,,537.8228403999237,541.3302238999167,None,right,1.2495781999314204,543.2687267999863,uk5,543.2687267999863,None,537.8228403999237,541.3302238999167,False,4,['r'],True,0.4444444444444445,0.6666666666666666,0.3333333333333333,1.0,2.0,0.9656336071428248,0.0,wait_cost,0,3,,,,uk5,4,2022-04-08_15h54.35.092,threat_forest,2021.2.3,60.074889325825254,
14,0,14,0,1,0,1,0,,,,,,,,,,right,1.5038783999625593,547.686424799962,uk5,547.686424799962,None,537.8228403999237,541.3302238999167,False,3,['r'],True,0.4444444444444445,0.6666666666666666,0.3333333333333333,1.0,2.0,0.9656336071428248,-0.3333333333333333,wait_cost,0,2,546.5632810000097,None,3,uk5,4,2022-04-08_15h54.35.092,threat_forest,2021.2.3,60.074889325825254,
14,0,14,0,2,0,2,0,,,,,,,,,,right,1.0502705000108108,552.2138063999591,uk5,552.2138063999591,None,537.8228403999237,541.3302238999167,False,2,['r'],True,0.4444444444444445,0.6666666666666666,0.3333333333333333,1.0,2.0,0.9656336071428248,-0.5555555555555556,wait_cost,0,1,551.2258978999453,None,2,uk5,4,2022-04-08_15h54.35.092,threat_forest,2021.2.3,60.074889325825254,
14,0,14,0,3,0,3,0,,,,,,,,,,left,2.3208977999165654,557.6416656000074,uk5,557.6416656000074,None,537.8228403999237,541.3302238999167,True,1,['r'],True,0.4444444444444445,0.6666666666666666,0.3333333333333333,1.0,2.0,0.9656336071428248,0.4444444444444444,succ_gain,0,3,555.3052409999073,None,1,uk5,4,2022-04-08_15h54.35.092,threat_forest,2021.2.3,60.074889325825254,
14,0,14,0,4,0,4,0,,,,,,,,,,right,2.145705600036308,564.855298499926,uk5,564.855298499926,None,537.8228403999237,541.3302238999167,False,3,['r'],True,0.4444444444444445,0.6666666666666666,0.3333333333333333,1.0,2.0,0.9656336071428248,-0.3333333333333333,wait_cost,0,2,561.9987659999169,None,3,uk5,4,2022-04-08_15h54.35.092,threat_forest,2021.2.3,60.074889325825254,
14,0,14,0,5,0,5,0,,,,,,,,,,right,1.766999699990265,571.59643029992,uk5,571.59643029992,None,537.8228403999237,541.3302238999167,False,2,['r'],True,0.4444444444444445,0.6666666666666666,0.3333333333333333,1.0,2.0,0.9656336071428248,-0.5555555555555556,wait_cost,0,1,569.0423670999007,None,2,uk5,4,2022-04-08_15h54.35.092,threat_forest,2021.2.3,60.074889325825254,
14,0,14,0,6,0,6,0,,,,,,,,,,right,2.3994371000444517,576.5942962999688,uk5,573.3902494999347,575.3858792999526,576.5942962999688,None,True,1,['r'],False,0.18,0.2,0.1,1.0,2.0,0.7058405977926203,0.1799999999999999,succ_gain,1,3,575.3858792999526,None,1,uk5,4,2022-04-08_15h54.35.092,threat_forest,2021.2.3,60.074889325825254,
14,0,14,0,7,0,7,0,,,,,,,,,,left,1.2088095999788493,583.5987997999182,uk5,573.3902494999347,575.3858792999526,583.5987997999182,None,False,3,['r'],False,0.18,0.2,0.1,1.0,2.0,0.7058405977926203,-0.1,wait_cost,1,2,581.0313407999929,None,3,uk5,4,2022-04-08_15h54.35.092,threat_forest,2021.2.3,60.074889325825254,
14,0,14,0,,,,,,,,,,,,,,,,,,,,,,,,,,,,,,,,,,,,586.8454602999846,None,2,uk5,4,2022-04-08_15h54.35.092,threat_forest,2021.2.3,60.074889325825254,
15,0,15,0,0,0,0,0,,,,,,,590.1236825999804,593.6229463999625,None,left,2.1086559999966994,594.5352442999138,uk5,594.5352442999138,None,590.1236825999804,593.6229463999625,True,5,['p'],True,0.6,0.6,0.0,0.0,2.0,0.6126016192893442,0.0,succ_gain,0,6,,,,uk5,4,2022-04-08_15h54.35.092,threat_forest,2021.2.3,60.074889325825254,
15,0,15,0,1,0,1,0,,,,,,,,,,None,,600.2030384999234,uk5,600.2030384999234,None,590.1236825999804,593.6229463999625,None,6,['p'],True,0.6,0.6,0.0,0.0,2.0,0.6126016192893442,0.0,wait_cost,0,5,598.6813846000005,None,6,uk5,4,2022-04-08_15h54.35.092,threat_forest,2021.2.3,60.074889325825254,
15,0,15,0,2,0,2,0,,,,,,,,,,right,2.5035217999247834,606.1212733999128,uk5,603.2108168000123,605.2251370999729,606.1212733999128,None,True,5,['p'],False,0.4444444444444445,0.6666666666666666,0.3333333333333333,2.0,2.0,0.9656336071428248,0.0,succ_gain,1,6,605.2251370999729,None,5,uk5,4,2022-04-08_15h54.35.092,threat_forest,2021.2.3,60.074889325825254,
15,0,15,0,3,0,3,0,,,,,,,,,,left,1.392177200061269,611.9942670000019,uk5,603.2108168000123,605.2251370999729,611.9942670000019,None,False,6,['p'],False,0.4444444444444445,0.6666666666666666,0.3333333333333333,2.0,2.0,0.9656336071428248,0.0,wait_cost,1,5,610.6702145999297,None,6,uk5,4,2022-04-08_15h54.35.092,threat_forest,2021.2.3,60.074889325825254,
15,0,15,0,4,0,4,0,,,,,,,,,,left,1.4538778000278398,616.1915254999185,uk5,616.1915254999185,None,613.4081487999065,615.4154115999117,True,5,['p'],True,0.6,0.6,0.0,0.0,2.0,0.6126016192893442,0.0,unsucc_cost,0,3,615.4154115999117,None,5,uk5,4,2022-04-08_15h54.35.092,threat_forest,2021.2.3,60.074889325825254,
15,0,15,0,5,0,5,0,,,,,,,,,,left,2.4053742999676615,621.70620279992,uk5,617.6679611,619.678383899969,621.70620279992,None,False,3,['p'],False,0.4444444444444445,0.6666666666666666,0.3333333333333333,2.0,2.0,0.9656336071428248,-0.3333333333333333,wait_cost,1,2,619.678383899969,None,3,uk5,4,2022-04-08_15h54.35.092,threat_forest,2021.2.3,60.074889325825254,
15,0,15,0,6,0,6,0,,,,,,,,,,None,,629.3446898999391,uk5,629.3446898999391,None,624.1466375999153,626.155346399988,None,2,['p'],True,0.6,0.6,0.0,0.0,2.0,0.6126016192893442,-0.4,wait_cost,0,1,626.155346399988,None,2,uk5,4,2022-04-08_15h54.35.092,threat_forest,2021.2.3,60.074889325825254,
15,0,15,0,7,0,7,0,,,,,,,,,,right,2.039733099984005,635.5241849999875,uk5,632.3498905999586,634.3645994999679,635.5241849999875,None,True,1,['p'],False,0.4444444444444445,0.6666666666666666,0.3333333333333333,2.0,2.0,0.9656336071428248,0.4444444444444444,succ_gain,1,3,634.3645994999679,None,1,uk5,4,2022-04-08_15h54.35.092,threat_forest,2021.2.3,60.074889325825254,
15,0,15,0,,,,,,,,,,,,,,,,,,,,,,,,,,,,,,,,,,,,639.6099525999743,None,3,uk5,4,2022-04-08_15h54.35.092,threat_forest,2021.2.3,60.074889325825254,
16,0,16,0,0,0,0,0,,,,,,,642.0052297000075,645.5041573999915,None,None,,649.2108442999888,uk5,649.2108442999888,None,642.0052297000075,645.5041573999915,None,4,['r'],True,0.3333333333333333,0.3333333333333333,0.0,0.0,2.0,0.5793801642856949,0.0,wait_cost,0,3,,,,uk5,4,2022-04-08_15h54.35.092,threat_forest,2021.2.3,60.074889325825254,
16,0,16,0,1,0,1,0,,,,,,,,,,right,2.219450999982655,657.2682847999968,uk5,652.2148380000144,654.2294709999114,657.2682847999968,None,True,3,['r'],False,0.25,0.5,0.5,2.0,2.0,0.9463946303571862,-0.5,unsucc_cost,1,1,654.2294709999114,None,3,uk5,4,2022-04-08_15h54.35.092,threat_forest,2021.2.3,60.074889325825254,
16,0,16,0,2,0,2,0,,,,,,,,,,left,2.0742859999882057,662.3946671999292,uk5,662.3946671999292,None,659.5083521999186,661.5225951999892,True,1,['r'],True,0.3333333333333333,0.3333333333333333,0.0,0.0,2.0,0.5793801642856949,0.3333333333333332,fight_cost,0,0,661.5225951999892,None,1,uk5,4,2022-04-08_15h54.35.092,threat_forest,2021.2.3,60.074889325825254,
16,0,16,0,,,,,,,,,,,,,,,,,,,,,,,,,,,,,,,,,,,,666.501401699963,None,0,uk5,4,2022-04-08_15h54.35.092,threat_forest,2021.2.3,60.074889325825254,
17,0,17,0,0,0,0,0,,,,,,,668.6079807999777,672.1131264999276,None,right,1.840781000093557,673.8519460000098,uk5,668.6079807999777,672.1131264999276,673.8519460000098,None,True,4,['p'],False,0.2222222222222222,0.6666666666666666,0.6666666666666666,2.0,2.0,0.77250688571426,0.0,succ_gain,1,6,,,,uk5,4,2022-04-08_15h54.35.092,threat_forest,2021.2.3,60.074889325825254,
17,0,17,0,1,0,1,0,,,,,,,,,,right,2.642416900023818,680.7337733999593,uk5,680.7337733999593,None,675.7092159999302,677.7241250999505,False,6,['p'],True,0.5,0.5,0.0,0.0,2.0,0.6309297535714574,0.0,wait_cost,0,5,677.7241250999505,None,6,uk5,4,2022-04-08_15h54.35.092,threat_forest,2021.2.3,60.074889325825254,
17,0,17,0,2,0,2,0,,,,,,,,,,right,1.2482335000531748,689.2134327999083,uk5,689.2134327999083,None,675.7092159999302,677.7241250999505,False,5,['p'],True,0.5,0.5,0.0,0.0,2.0,0.6309297535714574,0.0,wait_cost,0,4,685.4169241999043,None,5,uk5,4,2022-04-08_15h54.35.092,threat_forest,2021.2.3,60.074889325825254,
17,0,17,0,3,0,3,0,,,,,,,,,,right,1.633141600061208,694.013985699974,uk5,694.013985699974,None,675.7092159999302,677.7241250999505,False,4,['p'],True,0.5,0.5,0.0,0.0,2.0,0.6309297535714574,0.0,wait_cost,0,3,692.493553099921,None,4,uk5,4,2022-04-08_15h54.35.092,threat_forest,2021.2.3,60.074889325825254,
17,0,17,0,4,0,4,0,,,,,,,,,,right,1.664190199924633,701.0283102999674,uk5,695.6742601000005,697.6887742999243,701.0283102999674,None,True,3,['p'],False,0.2222222222222222,0.6666666666666666,0.6666666666666666,2.0,2.0,0.77250688571426,-0.6666666666666666,unsucc_cost,1,1,697.6887742999243,None,3,uk5,4,2022-04-08_15h54.35.092,threat_forest,2021.2.3,60.074889325825254,
17,0,17,0,5,0,5,0,,,,,,,,,,right,1.95025400002487,706.0972640999826,uk5,695.6742601000005,697.6887742999243,706.0972640999826,None,True,1,['p'],False,0.2222222222222222,0.6666666666666666,0.6666666666666666,2.0,2.0,0.77250688571426,0.2222222222222222,succ_gain,1,3,704.7322261999361,None,1,uk5,4,2022-04-08_15h54.35.092,threat_forest,2021.2.3,60.074889325825254,
17,0,17,0,6,0,6,0,,,,,,,,,,right,1.1190007999539375,711.5658755999757,uk5,711.5658755999757,None,708.0790789999301,710.09370019997,False,3,['p'],True,0.5,0.5,0.0,0.0,2.0,0.6309297535714574,0.0,wait_cost,0,2,710.09370019997,None,3,uk5,4,2022-04-08_15h54.35.092,threat_forest,2021.2.3,60.074889325825254,
17,0,17,0,7,0,7,0,,,,,,,,,,left,1.2065624999813735,716.5092807000037,uk5,712.7086015999084,714.7227433999069,716.5092807000037,None,False,2,['p'],False,0.2222222222222222,0.6666666666666666,0.6666666666666666,2.0,2.0,0.77250688571426,-0.7777777777777778,wait_cost,1,1,714.7227433999069,None,2,uk5,4,2022-04-08_15h54.35.092,threat_forest,2021.2.3,60.074889325825254,
17,0,17,0,,,,,,,,,,,,,,,,,,,,,,,,,,,,,,,,,,,,719.7511727999663,None,1,uk5,4,2022-04-08_15h54.35.092,threat_forest,2021.2.3,60.074889325825254,
