miniblock.thisRepN,miniblock.thisTrialN,miniblock.thisN,miniblock.thisIndex,day.thisRepN,day.thisTrialN,day.thisN,day.thisIndex,welcoming.started,welcoming.stopped,key_resp_2.keys,key_resp_2.rt,key_resp_2.started,key_resp_2.stopped,forest.started,fixation_forest.started,fixation_forest.stopped,key_resp.keys,key_resp.rt,key_resp.started,Subject_ID,weather_left.started,weather_left.stopped,weather_right.started,weather_right.stopped,foraging T/F,in_LP,p/r heuristic,good_weather.T/F,p_succ_correct,p_succ_uncorrected,r_threat,n_oponents,gain_if_succ,weather_entropy,OP_value_difference,action_outcome,forest_side_L=0_R=1,out_LP,fixation_day.started,fixation_day.stopped,participant,session,date,expName,psychopyVersion,frameRate,
,,,,,,,,24.773834600113332,None,space,3.9772143000736833,24.773834600113332,None,,,,,,,,,,,,,,,,,,,,,,,,,,,,ae11,1,2022-04-29_14h28.10.531,threat_forest,2021.2.3,59.998619923447386,
0,0,0,0,0,0,0,0,,,,,,,28.814169900026172,32.31124689988792,None,left,1.0032641999423504,35.43346680002287,ae11,28.814169900026172,32.31124689988792,35.43346680002287,None,False,4,['p'],False,0.24,0.3,0.2,2.0,1.0,0.9003120349047065,0.0,wait_cost,1,3,,,ae11,1,2022-04-29_14h28.10.531,threat_forest,2021.2.3,59.998619923447386,
0,0,0,0,1,0,1,0,,,,,,,,,,left,0.7226243996992707,40.527942299842834,ae11,40.527942299842834,None,36.469004599843174,38.46868749987334,True,3,['p'],True,0.375,0.5,0.25,1.0,1.0,0.9850568223215076,-0.25,succ_gain,0,4,38.46868749987334,None,ae11,1,2022-04-29_14h28.10.531,threat_forest,2021.2.3,59.998619923447386,
0,0,0,0,2,0,2,0,,,,,,,,,,left,0.6425188998691738,44.45832929993048,ae11,44.45832929993048,None,36.469004599843174,38.46868749987334,True,4,['p'],True,0.375,0.5,0.25,1.0,1.0,0.9850568223215076,0.0,unsucc_cost,0,2,43.268414499703795,None,ae11,1,2022-04-29_14h28.10.531,threat_forest,2021.2.3,59.998619923447386,
0,0,0,0,3,0,3,0,,,,,,,,,,left,0.7293897997587919,48.291614999994636,ae11,48.291614999994636,None,36.469004599843174,38.46868749987334,True,2,['p'],True,0.375,0.5,0.25,1.0,1.0,0.9850568223215076,-0.625,figh_cost,0,0,47.11886709975079,None,ae11,1,2022-04-29_14h28.10.531,threat_forest,2021.2.3,59.998619923447386,
0,0,0,0,,,,,,,,,,,,,,,,,,,,,,,,,,,,,,,,,,,,51.0614783000201,None,ae11,1,2022-04-29_14h28.10.531,threat_forest,2021.2.3,59.998619923447386,
1,0,1,0,0,0,0,0,,,,,,,54.55034800013527,58.05219459999353,None,left,0.7956324000842869,60.61043930007145,ae11,60.61043930007145,None,54.55034800013527,58.05219459999353,True,4,['r'],True,0.6,0.6,0.0,0.0,2.0,0.6126016192893442,0.0,succ_gain,0,6,,,ae11,1,2022-04-29_14h28.10.531,threat_forest,2021.2.3,59.998619923447386,
1,0,1,0,1,0,1,0,,,,,,,,,,left,0.9153669998049736,66.676830700133,ae11,61.435705999843776,63.43538519972935,66.676830700133,None,False,6,['r'],False,0.4444444444444445,0.6666666666666666,0.3333333333333333,2.0,2.0,0.9656336071428248,0.0,wait_cost,1,5,63.43538519972935,None,ae11,1,2022-04-29_14h28.10.531,threat_forest,2021.2.3,59.998619923447386,
1,0,1,0,2,0,2,0,,,,,,,,,,left,0.7268945998512208,71.34375769970939,ae11,71.34375769970939,None,67.61934510013089,69.6189105999656,True,5,['r'],True,0.6,0.6,0.0,0.0,2.0,0.6126016192893442,0.0,succ_gain,0,6,69.6189105999656,None,ae11,1,2022-04-29_14h28.10.531,threat_forest,2021.2.3,59.998619923447386,
1,0,1,0,3,0,3,0,,,,,,,,,,left,0.8727635997347534,77.79249639995396,ae11,72.10268250014633,74.10214680014178,77.79249639995396,None,False,6,['r'],False,0.4444444444444445,0.6666666666666666,0.3333333333333333,2.0,2.0,0.9656336071428248,0.0,wait_cost,1,5,74.10214680014178,None,ae11,1,2022-04-29_14h28.10.531,threat_forest,2021.2.3,59.998619923447386,
1,0,1,0,4,0,4,0,,,,,,,,,,left,0.617769000120461,82.89062009984627,ae11,72.10268250014633,74.10214680014178,82.89062009984627,None,False,5,['r'],False,0.4444444444444445,0.6666666666666666,0.3333333333333333,2.0,2.0,0.9656336071428248,0.0,wait_cost,1,4,80.68553619971499,None,ae11,1,2022-04-29_14h28.10.531,threat_forest,2021.2.3,59.998619923447386,
1,0,1,0,5,0,5,0,,,,,,,,,,left,0.6845586001873016,87.53234639996663,ae11,72.10268250014633,74.10214680014178,87.53234639996663,None,False,4,['r'],False,0.4444444444444445,0.6666666666666666,0.3333333333333333,2.0,2.0,0.9656336071428248,0.0,wait_cost,1,3,85.53560249973089,None,ae11,1,2022-04-29_14h28.10.531,threat_forest,2021.2.3,59.998619923447386,
1,0,1,0,6,0,6,0,,,,,,,,,,left,0.6432859003543854,91.02480169991031,ae11,72.10268250014633,74.10214680014178,91.02480169991031,None,False,3,['r'],False,0.4444444444444445,0.6666666666666666,0.3333333333333333,2.0,2.0,0.9656336071428248,-0.3333333333333333,wait_cost,1,2,90.23596339998767,None,ae11,1,2022-04-29_14h28.10.531,threat_forest,2021.2.3,59.998619923447386,
1,0,1,0,7,0,7,0,,,,,,,,,,right,0.7122497004456818,96.22275870013982,ae11,96.22275870013982,None,91.69219570001587,93.70289209997281,False,2,['r'],True,0.6,0.6,0.0,0.0,2.0,0.6126016192893442,-0.4,wait_cost,0,1,93.70289209997281,None,ae11,1,2022-04-29_14h28.10.531,threat_forest,2021.2.3,59.998619923447386,
1,0,1,0,,,,,,,,,,,,,,,,,,,,,,,,,,,,,,,,,,,,98.95286289975047,None,ae11,1,2022-04-29_14h28.10.531,threat_forest,2021.2.3,59.998619923447386,
2,0,2,0,0,0,0,0,,,,,,,100.45428119972348,103.95267589995638,None,left,0.5924211000092328,105.22629609983414,ae11,105.22629609983414,None,100.45428119972348,103.95267589995638,True,5,['p'],True,0.4444444444444445,0.6666666666666666,0.3333333333333333,1.0,1.0,0.9656336071428248,0.0,figh_cost,0,2,,,ae11,1,2022-04-29_14h28.10.531,threat_forest,2021.2.3,59.998619923447386,
2,0,2,0,1,0,1,0,,,,,,,,,,left,0.5550521002151072,108.76985759986565,ae11,108.76985759986565,None,100.45428119972348,103.95267589995638,True,2,['p'],True,0.4444444444444445,0.6666666666666666,0.3333333333333333,1.0,1.0,0.9656336071428248,-0.5555555555555556,unsucc_cost,0,0,107.83596439985558,None,ae11,1,2022-04-29_14h28.10.531,threat_forest,2021.2.3,59.998619923447386,
2,0,2,0,,,,,,,,,,,,,,,,,,,,,,,,,,,,,,,,,,,,111.3530787001364,None,ae11,1,2022-04-29_14h28.10.531,threat_forest,2021.2.3,59.998619923447386,
3,0,3,0,0,0,0,0,,,,,,,112.39168770005926,115.8910298999399,None,right,0.771427399944514,119.01401899987832,ae11,112.39168770005926,115.8910298999399,119.01401899987832,None,True,5,['p'],False,0.2962962962962963,0.3333333333333333,0.1111111111111111,1.0,1.0,0.8325252476189534,0.0,succ_gain,1,6,,,ae11,1,2022-04-29_14h28.10.531,threat_forest,2021.2.3,59.998619923447386,
3,0,3,0,1,0,1,0,,,,,,,,,,left,0.7262255004607141,124.26054159970954,ae11,124.26054159970954,None,119.80345210013911,121.80323620000854,True,6,['p'],True,0.48,0.6,0.2,1.0,1.0,0.9455672104350704,0.0,succ_gain,0,6,121.80323620000854,None,ae11,1,2022-04-29_14h28.10.531,threat_forest,2021.2.3,59.998619923447386,
3,0,3,0,2,0,2,0,,,,,,,,,,left,0.8164802002720535,128.25498790014535,ae11,128.25498790014535,None,119.80345210013911,121.80323620000854,True,6,['p'],True,0.48,0.6,0.2,1.0,1.0,0.9455672104350704,0.0,figh_cost,0,3,127.02000569971278,None,ae11,1,2022-04-29_14h28.10.531,threat_forest,2021.2.3,59.998619923447386,
3,0,3,0,3,0,3,0,,,,,,,,,,left,0.6777145001105964,134.90791049972177,ae11,134.90791049972177,None,119.80345210013911,121.80323620000854,True,3,['p'],True,0.48,0.6,0.2,1.0,1.0,0.9455672104350704,-0.2,succ_gain,0,4,131.10311779985204,None,ae11,1,2022-04-29_14h28.10.531,threat_forest,2021.2.3,59.998619923447386,
3,0,3,0,4,0,4,0,,,,,,,,,,left,0.6759406998753548,140.8104202998802,ae11,135.60338319977745,137.60327570000663,140.8104202998802,None,False,4,['p'],False,0.2962962962962963,0.3333333333333333,0.1111111111111111,1.0,1.0,0.8325252476189534,0.0,wait_cost,1,3,137.60327570000663,None,ae11,1,2022-04-29_14h28.10.531,threat_forest,2021.2.3,59.998619923447386,
3,0,3,0,5,0,5,0,,,,,,,,,,left,0.6516593997366726,144.15647749975324,ae11,135.60338319977745,137.60327570000663,144.15647749975324,None,False,3,['p'],False,0.2962962962962963,0.3333333333333333,0.1111111111111111,1.0,1.0,0.8325252476189534,-0.1111111111111111,wait_cost,1,2,143.50373389991,None,ae11,1,2022-04-29_14h28.10.531,threat_forest,2021.2.3,59.998619923447386,
3,0,3,0,6,0,6,0,,,,,,,,,,left,0.9416877999901772,147.74265869986266,ae11,135.60338319977745,137.60327570000663,147.74265869986266,None,False,2,['p'],False,0.2962962962962963,0.3333333333333333,0.1111111111111111,1.0,1.0,0.8325252476189534,-0.7037037037037037,wait_cost,1,1,146.83669129991904,None,ae11,1,2022-04-29_14h28.10.531,threat_forest,2021.2.3,59.998619923447386,
3,0,3,0,7,0,7,0,,,,,,,,,,left,0.5297522000037134,151.64540180005133,ae11,151.64540180005133,None,148.70387140009552,150.7033742996864,True,1,['p'],True,0.48,0.6,0.2,1.0,1.0,0.9455672104350704,0.48,unsucc_cost,0,0,150.7033742996864,None,ae11,1,2022-04-29_14h28.10.531,threat_forest,2021.2.3,59.998619923447386,
3,0,3,0,,,,,,,,,,,,,,,,,,,,,,,,,,,,,,,,,,,,154.20364720001817,None,ae11,1,2022-04-29_14h28.10.531,threat_forest,2021.2.3,59.998619923447386,
4,0,4,0,0,0,0,0,,,,,,,155.61284099984914,159.120467599947,None,right,0.8463610000908375,161.29489739984274,ae11,155.61284099984914,159.120467599947,161.29489739984274,None,True,5,['r'],False,0.2222222222222222,0.6666666666666666,0.6666666666666666,2.0,2.0,0.77250688571426,0.0,succ_gain,1,6,,,ae11,1,2022-04-29_14h28.10.531,threat_forest,2021.2.3,59.998619923447386,
4,0,4,0,1,0,1,0,,,,,,,,,,left,0.7345595001243055,165.49141849996522,ae11,155.61284099984914,159.120467599947,165.49141849996522,None,False,6,['r'],False,0.2222222222222222,0.6666666666666666,0.6666666666666666,2.0,2.0,0.77250688571426,0.0,wait_cost,1,5,164.1701712999493,None,ae11,1,2022-04-29_14h28.10.531,threat_forest,2021.2.3,59.998619923447386,
4,0,4,0,2,0,2,0,,,,,,,,,,left,0.8743116003461182,170.7785384999588,ae11,170.7785384999588,None,166.2539570000954,168.25380459986627,True,5,['r'],True,0.25,0.25,0.0,0.0,2.0,0.5118595071429148,0.0,succ_gain,0,6,168.25380459986627,None,ae11,1,2022-04-29_14h28.10.531,threat_forest,2021.2.3,59.998619923447386,
4,0,4,0,3,0,3,0,,,,,,,,,,left,0.7918597003445029,174.6421161997132,ae11,171.67093010013923,173.67068929970264,174.6421161997132,None,False,6,['r'],False,0.2222222222222222,0.6666666666666666,0.6666666666666666,2.0,2.0,0.77250688571426,0.0,wait_cost,1,5,173.67068929970264,None,ae11,1,2022-04-29_14h28.10.531,threat_forest,2021.2.3,59.998619923447386,
4,0,4,0,4,0,4,0,,,,,,,,,,left,0.5621779998764396,178.45780440000817,ae11,171.67093010013923,173.67068929970264,178.45780440000817,None,False,5,['r'],False,0.2222222222222222,0.6666666666666666,0.6666666666666666,2.0,2.0,0.77250688571426,0.0,wait_cost,1,4,177.45401619980112,None,ae11,1,2022-04-29_14h28.10.531,threat_forest,2021.2.3,59.998619923447386,
4,0,4,0,5,0,5,0,,,,,,,,,,left,0.3959697000682354,183.19249479984865,ae11,171.67093010013923,173.67068929970264,183.19249479984865,None,False,4,['r'],False,0.2222222222222222,0.6666666666666666,0.6666666666666666,2.0,2.0,0.77250688571426,0.0,wait_cost,1,3,181.05403549969196,None,ae11,1,2022-04-29_14h28.10.531,threat_forest,2021.2.3,59.998619923447386,
4,0,4,0,6,0,6,0,,,,,,,,,,right,0.8299052002839744,189.0583583000116,ae11,189.0583583000116,None,183.62101210001856,185.62046229979023,False,3,['r'],True,0.25,0.25,0.0,0.0,2.0,0.5118595071429148,0.0,wait_cost,0,2,185.62046229979023,None,ae11,1,2022-04-29_14h28.10.531,threat_forest,2021.2.3,59.998619923447386,
4,0,4,0,7,0,7,0,,,,,,,,,,left,0.4523962000384927,195.01277099968866,ae11,189.92085490003228,191.92087949998677,195.01277099968866,None,False,2,['r'],False,0.2222222222222222,0.6666666666666666,0.6666666666666666,2.0,2.0,0.77250688571426,-0.7777777777777778,wait_cost,1,1,191.92087949998677,None,ae11,1,2022-04-29_14h28.10.531,threat_forest,2021.2.3,59.998619923447386,
4,0,4,0,,,,,,,,,,,,,,,,,,,,,,,,,,,,,,,,,,,,197.48778369976208,None,ae11,1,2022-04-29_14h28.10.531,threat_forest,2021.2.3,59.998619923447386,
5,0,5,0,0,0,0,0,,,,,,,200.7104615997523,204.22141940006986,None,left,0.7181551996618509,206.92728250008076,ae11,206.92728250008076,None,200.7104615997523,204.22141940006986,True,4,['r'],True,0.3333333333333333,0.3333333333333333,0.0,0.0,2.0,0.5793801642856949,0.0,unsucc_cost,0,2,,,ae11,1,2022-04-29_14h28.10.531,threat_forest,2021.2.3,59.998619923447386,
5,0,5,0,1,0,1,0,,,,,,,,,,left,0.8969750003889203,212.19510489981622,ae11,207.671377599705,209.67090100003406,212.19510489981622,None,False,2,['r'],False,0.24,0.4,0.4,2.0,2.0,0.9801625908629508,-0.76,wait_cost,1,1,209.67090100003406,None,ae11,1,2022-04-29_14h28.10.531,threat_forest,2021.2.3,59.998619923447386,
5,0,5,0,2,0,2,0,,,,,,,,,,left,0.6084262998774648,218.24078919971362,ae11,218.24078919971362,None,213.12174719991162,215.1212959997356,True,1,['r'],True,0.3333333333333333,0.3333333333333333,0.0,0.0,2.0,0.5793801642856949,0.3333333333333332,unsucc_cost,0,0,215.1212959997356,None,ae11,1,2022-04-29_14h28.10.531,threat_forest,2021.2.3,59.998619923447386,
5,0,5,0,,,,,,,,,,,,,,,,,,,,,,,,,,,,,,,,,,,,220.87072509992868,None,ae11,1,2022-04-29_14h28.10.531,threat_forest,2021.2.3,59.998619923447386,
6,0,6,0,0,0,0,0,,,,,,,222.3311724998057,225.82650389987975,None,right,1.085802000015974,226.51250310009345,ae11,222.3311724998057,225.82650389987975,226.51250310009345,None,True,4,['r'],False,0.3333333333333333,0.5,0.3333333333333333,2.0,1.0,1.0,0.0,succ_gain,1,5,,,ae11,1,2022-04-29_14h28.10.531,threat_forest,2021.2.3,59.998619923447386,
6,0,6,0,1,0,1,0,,,,,,,,,,right,1.0046469001099467,233.17873589973897,ae11,233.17873589973897,None,227.62148319976404,229.62138739973307,False,5,['r'],True,0.4,0.4,0.0,0.0,1.0,0.6126016192893442,0.0,wait_cost,0,4,229.62138739973307,None,ae11,1,2022-04-29_14h28.10.531,threat_forest,2021.2.3,59.998619923447386,
6,0,6,0,2,0,2,0,,,,,,,,,,right,0.5107799996621907,238.4438193999231,ae11,234.20495230006054,236.20472719985992,238.4438193999231,None,True,4,['r'],False,0.3333333333333333,0.5,0.3333333333333333,2.0,1.0,1.0,0.0,unsucc_cost,1,2,236.20472719985992,None,ae11,1,2022-04-29_14h28.10.531,threat_forest,2021.2.3,59.998619923447386,
6,0,6,0,3,0,3,0,,,,,,,,,,right,0.9429343999363482,242.09269850002602,ae11,242.09269850002602,None,238.97165660001338,240.97142020007595,False,2,['r'],True,0.4,0.4,0.0,0.0,1.0,0.6126016192893442,-0.6,wait_cost,0,1,240.97142020007595,None,ae11,1,2022-04-29_14h28.10.531,threat_forest,2021.2.3,59.998619923447386,
6,0,6,0,4,0,4,0,,,,,,,,,,right,0.6549015999771655,248.55998090002686,ae11,243.05507689993829,245.05520709976554,248.55998090002686,None,True,1,['r'],False,0.3333333333333333,0.5,0.3333333333333333,2.0,1.0,1.0,0.3333333333333332,unsucc_cost,1,0,245.05520709976554,None,ae11,1,2022-04-29_14h28.10.531,threat_forest,2021.2.3,59.998619923447386,
6,0,6,0,,,,,,,,,,,,,,,,,,,,,,,,,,,,,,,,,,,,251.23852510005236,None,ae11,1,2022-04-29_14h28.10.531,threat_forest,2021.2.3,59.998619923447386,
7,0,7,0,0,0,0,0,,,,,,,252.2633746000938,255.7717218999751,None,left,0.755145899951458,258.5113697000779,ae11,258.5113697000779,None,252.2633746000938,255.7717218999751,True,4,['r'],True,0.5,0.5,0.0,0.0,2.0,0.6309297535714574,0.0,figh_cost,0,1,,,ae11,1,2022-04-29_14h28.10.531,threat_forest,2021.2.3,59.998619923447386,
7,0,7,0,1,0,1,0,,,,,,,,,,right,0.6579511002637446,262.90717729972675,ae11,259.2886353000067,261.28849190007895,262.90717729972675,None,True,1,['r'],False,0.2222222222222222,0.6666666666666666,0.6666666666666666,2.0,2.0,0.77250688571426,0.2222222222222222,succ_gain,1,3,261.28849190007895,None,ae11,1,2022-04-29_14h28.10.531,threat_forest,2021.2.3,59.998619923447386,
7,0,7,0,2,0,2,0,,,,,,,,,,right,0.8408017000183463,268.93902039993554,ae11,259.2886353000067,261.28849190007895,268.93902039993554,None,True,3,['r'],False,0.2222222222222222,0.6666666666666666,0.6666666666666666,2.0,2.0,0.77250688571426,-0.6666666666666666,succ_gain,1,5,265.58829869981855,None,ae11,1,2022-04-29_14h28.10.531,threat_forest,2021.2.3,59.998619923447386,
7,0,7,0,3,0,3,0,,,,,,,,,,right,0.6023312001489103,273.61167880007997,ae11,273.61167880007997,None,269.80561979999766,271.80500819999725,False,5,['r'],True,0.5,0.5,0.0,0.0,2.0,0.6309297535714574,0.0,wait_cost,0,4,271.80500819999725,None,ae11,1,2022-04-29_14h28.10.531,threat_forest,2021.2.3,59.998619923447386,
7,0,7,0,4,0,4,0,,,,,,,,,,right,0.8606779999099672,277.07938139978796,ae11,274.23886410007253,276.2388822999783,277.07938139978796,None,True,4,['r'],False,0.2222222222222222,0.6666666666666666,0.6666666666666666,2.0,2.0,0.77250688571426,0.0,unsucc_cost,1,2,276.2388822999783,None,ae11,1,2022-04-29_14h28.10.531,threat_forest,2021.2.3,59.998619923447386,
7,0,7,0,5,0,5,0,,,,,,,,,,right,0.7123028999194503,280.98905239999294,ae11,274.23886410007253,276.2388822999783,280.98905239999294,None,True,2,['r'],False,0.2222222222222222,0.6666666666666666,0.6666666666666666,2.0,2.0,0.77250688571426,-0.7777777777777778,unsucc_cost,1,0,279.9720827001147,None,ae11,1,2022-04-29_14h28.10.531,threat_forest,2021.2.3,59.998619923447386,
7,0,7,0,,,,,,,,,,,,,,,,,,,,,,,,,,,,,,,,,,,,283.72255389997736,None,ae11,1,2022-04-29_14h28.10.531,threat_forest,2021.2.3,59.998619923447386,
8,0,8,0,0,0,0,0,,,,,,,284.9512292998843,288.4550075000152,None,right,0.8137217001058161,292.14550160011277,ae11,284.9512292998843,288.4550075000152,292.14550160011277,None,True,5,['p'],False,0.16,0.2,0.2,2.0,1.0,0.8198746470064713,0.0,succ_gain,1,6,,,ae11,1,2022-04-29_14h28.10.531,threat_forest,2021.2.3,59.998619923447386,
8,0,8,0,1,0,1,0,,,,,,,,,,left,0.8886720999144018,297.906667499803,ae11,284.9512292998843,288.4550075000152,297.906667499803,None,False,6,['p'],False,0.16,0.2,0.2,2.0,1.0,0.8198746470064713,0.0,wait_cost,1,5,294.98877219995484,None,ae11,1,2022-04-29_14h28.10.531,threat_forest,2021.2.3,59.998619923447386,
8,0,8,0,2,0,2,0,,,,,,,,,,right,1.3201218997128308,302.97242729971185,ae11,284.9512292998843,288.4550075000152,302.97242729971185,None,True,5,['p'],False,0.16,0.2,0.2,2.0,1.0,0.8198746470064713,0.0,unsucc_cost,1,3,300.82221619971097,None,ae11,1,2022-04-29_14h28.10.531,threat_forest,2021.2.3,59.998619923447386,
8,0,8,0,3,0,3,0,,,,,,,,,,right,1.395718699786812,307.57288149977103,ae11,284.9512292998843,288.4550075000152,307.57288149977103,None,True,3,['p'],False,0.16,0.2,0.2,2.0,1.0,0.8198746470064713,-0.2,succ_gain,1,4,306.33928339974955,None,ae11,1,2022-04-29_14h28.10.531,threat_forest,2021.2.3,59.998619923447386,
8,0,8,0,4,0,4,0,,,,,,,,,,left,0.7325797998346388,311.7406570999883,ae11,284.9512292998843,288.4550075000152,311.7406570999883,None,False,4,['p'],False,0.16,0.2,0.2,2.0,1.0,0.8198746470064713,0.0,wait_cost,1,3,310.98916140012443,None,ae11,1,2022-04-29_14h28.10.531,threat_forest,2021.2.3,59.998619923447386,
8,0,8,0,5,0,5,0,,,,,,,,,,left,0.7118739997968078,318.26191469980404,ae11,284.9512292998843,288.4550075000152,318.26191469980404,None,False,3,['p'],False,0.16,0.2,0.2,2.0,1.0,0.8198746470064713,-0.2,wait_cost,1,2,314.5225005997345,None,ae11,1,2022-04-29_14h28.10.531,threat_forest,2021.2.3,59.998619923447386,
8,0,8,0,6,0,6,0,,,,,,,,,,left,0.6960630998946726,323.5897299000062,ae11,284.9512292998843,288.4550075000152,323.5897299000062,None,False,2,['p'],False,0.16,0.2,0.2,2.0,1.0,0.8198746470064713,-0.8400000000000001,wait_cost,1,1,321.0061065000482,None,ae11,1,2022-04-29_14h28.10.531,threat_forest,2021.2.3,59.998619923447386,
8,0,8,0,7,0,7,0,,,,,,,,,,left,0.49488200014457107,328.9897214998491,ae11,284.9512292998843,288.4550075000152,328.9897214998491,None,False,1,['p'],False,0.16,0.2,0.2,2.0,1.0,0.8198746470064713,0.1599999999999999,wait_cost,1,0,326.3059673998505,None,ae11,1,2022-04-29_14h28.10.531,threat_forest,2021.2.3,59.998619923447386,
8,0,8,0,,,,,,,,,,,,,,,,,,,,,,,,,,,,,,,,,,,,331.5060100997798,None,ae11,1,2022-04-29_14h28.10.531,threat_forest,2021.2.3,59.998619923447386,
9,0,9,0,0,0,0,0,,,,,,,333.78669859981164,337.2898587998934,None,right,0.7241283999755979,338.8851302000694,ae11,338.8851302000694,None,333.78669859981164,337.2898587998934,False,4,['p'],True,0.4444444444444445,0.6666666666666666,0.3333333333333333,1.0,2.0,0.9656336071428248,0.0,wait_cost,0,3,,,ae11,1,2022-04-29_14h28.10.531,threat_forest,2021.2.3,59.998619923447386,
9,0,9,0,1,0,1,0,,,,,,,,,,right,0.7775288997218013,344.05986629985273,ae11,344.05986629985273,None,333.78669859981164,337.2898587998934,False,3,['p'],True,0.4444444444444445,0.6666666666666666,0.3333333333333333,1.0,2.0,0.9656336071428248,-0.3333333333333333,wait_cost,0,2,341.6396107999608,None,ae11,1,2022-04-29_14h28.10.531,threat_forest,2021.2.3,59.998619923447386,
9,0,9,0,2,0,2,0,,,,,,,,,,right,0.581220000050962,349.59306399989873,ae11,344.85682020010427,346.8561177998781,349.59306399989873,None,True,2,['p'],False,0.27,0.3,0.1,1.0,2.0,0.7963326591781347,-0.73,succ_gain,1,4,346.8561177998781,None,ae11,1,2022-04-29_14h28.10.531,threat_forest,2021.2.3,59.998619923447386,
9,0,9,0,3,0,3,0,,,,,,,,,,right,0.6524991998448968,355.1135279000737,ae11,355.1135279000737,None,350.20681319991127,352.2063651997596,False,4,['p'],True,0.4444444444444445,0.6666666666666666,0.3333333333333333,1.0,2.0,0.9656336071428248,0.0,wait_cost,0,3,352.2063651997596,None,ae11,1,2022-04-29_14h28.10.531,threat_forest,2021.2.3,59.998619923447386,
9,0,9,0,4,0,4,0,,,,,,,,,,right,0.795864500105381,359.21044990001246,ae11,355.7901107999496,357.7899397998117,359.21044990001246,None,True,3,['p'],False,0.27,0.3,0.1,1.0,2.0,0.7963326591781347,-0.1,figh_cost,1,0,357.7899397998117,None,ae11,1,2022-04-29_14h28.10.531,threat_forest,2021.2.3,59.998619923447386,
9,0,9,0,,,,,,,,,,,,,,,,,,,,,,,,,,,,,,,,,,,,362.0234469999559,None,ae11,1,2022-04-29_14h28.10.531,threat_forest,2021.2.3,59.998619923447386,
10,0,10,0,0,0,0,0,,,,,,,364.14924159971997,367.6568760997616,None,left,0.7363102999515831,369.9498439999297,ae11,364.14924159971997,367.6568760997616,369.9498439999297,None,False,5,['p'],False,0.2040816326530612,0.2857142857142857,0.2857142857142857,2.0,2.0,0.9335459102197724,0.0,wait_cost,1,4,,,ae11,1,2022-04-29_14h28.10.531,threat_forest,2021.2.3,59.998619923447386,
10,0,10,0,1,0,1,0,,,,,,,,,,left,0.7915603998117149,375.8614488998428,ae11,375.8614488998428,None,370.70691550010815,372.7069592997432,True,4,['p'],True,0.4444444444444445,0.6666666666666666,0.3333333333333333,1.0,2.0,0.9656336071428248,0.0,unsucc_cost,0,2,372.7069592997432,None,ae11,1,2022-04-29_14h28.10.531,threat_forest,2021.2.3,59.998619923447386,
10,0,10,0,2,0,2,0,,,,,,,,,,left,0.7186410999856889,379.19021859997883,ae11,379.19021859997883,None,370.70691550010815,372.7069592997432,True,2,['p'],True,0.4444444444444445,0.6666666666666666,0.3333333333333333,1.0,2.0,0.9656336071428248,-0.5555555555555556,figh_cost,0,0,378.67369209975004,None,ae11,1,2022-04-29_14h28.10.531,threat_forest,2021.2.3,59.998619923447386,
10,0,10,0,,,,,,,,,,,,,,,,,,,,,,,,,,,,,,,,,,,,381.94041129993275,None,ae11,1,2022-04-29_14h28.10.531,threat_forest,2021.2.3,59.998619923447386,
11,0,11,0,0,0,0,0,,,,,,,382.65384300006554,386.1570500996895,None,left,1.137201300356537,386.75755359977484,ae11,382.65384300006554,386.1570500996895,386.75755359977484,None,False,4,['p'],False,0.2962962962962963,0.3333333333333333,0.1111111111111111,1.0,2.0,0.8325252476189534,0.0,wait_cost,1,3,,,ae11,1,2022-04-29_14h28.10.531,threat_forest,2021.2.3,59.998619923447386,
11,0,11,0,1,0,1,0,,,,,,,,,,left,1.0189935001544654,391.195370899979,ae11,382.65384300006554,386.1570500996895,391.195370899979,None,False,3,['p'],False,0.2962962962962963,0.3333333333333333,0.1111111111111111,1.0,2.0,0.8325252476189534,-0.1111111111111111,wait_cost,1,2,389.92344360006973,None,ae11,1,2022-04-29_14h28.10.531,threat_forest,2021.2.3,59.998619923447386,
11,0,11,0,2,0,2,0,,,,,,,,,,left,0.7242522998712957,397.4621704998426,ae11,382.65384300006554,386.1570500996895,397.4621704998426,None,False,2,['p'],False,0.2962962962962963,0.3333333333333333,0.1111111111111111,1.0,2.0,0.8325252476189534,-0.7037037037037037,wait_cost,1,1,394.24044479988515,None,ae11,1,2022-04-29_14h28.10.531,threat_forest,2021.2.3,59.998619923447386,
11,0,11,0,3,0,3,0,,,,,,,,,,left,0.8397288001142442,401.02633969997987,ae11,401.02633969997987,None,398.20717060007155,400.20745670003816,True,1,['p'],True,0.4166666666666667,0.5,0.1666666666666666,1.0,2.0,0.9358932809493992,0.4166666666666667,succ_gain,0,3,400.20745670003816,None,ae11,1,2022-04-29_14h28.10.531,threat_forest,2021.2.3,59.998619923447386,
11,0,11,0,4,0,4,0,,,,,,,,,,left,0.8092498001642525,404.9085701000877,ae11,401.89081679983065,403.89044889993966,404.9085701000877,None,False,3,['p'],False,0.2962962962962963,0.3333333333333333,0.1111111111111111,1.0,2.0,0.8325252476189534,-0.1111111111111111,wait_cost,1,2,403.89044889993966,None,ae11,1,2022-04-29_14h28.10.531,threat_forest,2021.2.3,59.998619923447386,
11,0,11,0,5,0,5,0,,,,,,,,,,left,0.6499393000267446,410.36377860000357,ae11,410.36377860000357,None,405.74083699984476,407.74075850006193,True,2,['p'],True,0.4166666666666667,0.5,0.1666666666666666,1.0,2.0,0.9358932809493992,-0.5833333333333333,unsucc_cost,0,0,407.74075850006193,None,ae11,1,2022-04-29_14h28.10.531,threat_forest,2021.2.3,59.998619923447386,
11,0,11,0,,,,,,,,,,,,,,,,,,,,,,,,,,,,,,,,,,,,413.0404193000868,None,ae11,1,2022-04-29_14h28.10.531,threat_forest,2021.2.3,59.998619923447386,
12,0,12,0,0,0,0,0,,,,,,,415.9359993999824,419.4411031999625,None,right,0.9755470999516547,420.3484642999247,ae11,415.9359993999824,419.4411031999625,420.3484642999247,None,True,5,['r'],False,0.2222222222222222,0.6666666666666666,0.6666666666666666,2.0,1.0,0.77250688571426,0.0,unsucc_cost,1,3,,,ae11,1,2022-04-29_14h28.10.531,threat_forest,2021.2.3,59.998619923447386,
12,0,12,0,1,0,1,0,,,,,,,,,,right,0.7028242000378668,426.3770027998835,ae11,415.9359993999824,419.4411031999625,426.3770027998835,None,True,3,['r'],False,0.2222222222222222,0.6666666666666666,0.6666666666666666,2.0,1.0,0.77250688571426,-0.6666666666666666,succ_gain,1,4,423.34111629985273,None,ae11,1,2022-04-29_14h28.10.531,threat_forest,2021.2.3,59.998619923447386,
12,0,12,0,2,0,2,0,,,,,,,,,,right,0.9971585003659129,430.99564810004085,ae11,430.99564810004085,None,427.10779629973695,429.1079373997636,False,4,['r'],True,0.3333333333333333,0.3333333333333333,0.0,0.0,1.0,0.5793801642856949,0.0,wait_cost,0,3,429.1079373997636,None,ae11,1,2022-04-29_14h28.10.531,threat_forest,2021.2.3,59.998619923447386,
12,0,12,0,3,0,3,0,,,,,,,,,,right,0.697890100069344,435.0307660000399,ae11,432.02467249985784,434.02451829984784,435.0307660000399,None,True,3,['r'],False,0.2222222222222222,0.6666666666666666,0.6666666666666666,2.0,1.0,0.77250688571426,-0.6666666666666666,unsucc_cost,1,1,434.02451829984784,None,ae11,1,2022-04-29_14h28.10.531,threat_forest,2021.2.3,59.998619923447386,
12,0,12,0,4,0,4,0,,,,,,,,,,left,0.8060440998524427,440.2456529997289,ae11,440.2456529997289,None,435.7576329000294,437.757938799914,True,1,['r'],True,0.3333333333333333,0.3333333333333333,0.0,0.0,1.0,0.5793801642856949,0.3333333333333332,figh_cost,0,0,437.757938799914,None,ae11,1,2022-04-29_14h28.10.531,threat_forest,2021.2.3,59.998619923447386,
12,0,12,0,,,,,,,,,,,,,,,,,,,,,,,,,,,,,,,,,,,,443.07481790008023,None,ae11,1,2022-04-29_14h28.10.531,threat_forest,2021.2.3,59.998619923447386,
13,0,13,0,0,0,0,0,,,,,,,446.038227299694,449.54237919999287,None,right,1.227237899787724,450.2531556999311,ae11,450.2531556999311,None,446.038227299694,449.54237919999287,False,5,['p'],True,0.375,0.5,0.25,1.0,1.0,0.9850568223215076,0.0,wait_cost,0,4,,,ae11,1,2022-04-29_14h28.10.531,threat_forest,2021.2.3,59.998619923447386,
13,0,13,0,1,0,1,0,,,,,,,,,,right,0.6488735000602901,454.6024164999835,ae11,451.50813259975985,453.50819549988955,454.6024164999835,None,True,4,['p'],False,0.16,0.2,0.2,2.0,1.0,0.8198746470064713,0.0,figh_cost,1,1,453.50819549988955,None,ae11,1,2022-04-29_14h28.10.531,threat_forest,2021.2.3,59.998619923447386,
13,0,13,0,2,0,2,0,,,,,,,,,,right,0.6447749002836645,460.64279869990423,ae11,451.50813259975985,453.50819549988955,460.64279869990423,None,True,1,['p'],False,0.16,0.2,0.2,2.0,1.0,0.8198746470064713,0.1599999999999999,succ_gain,1,2,457.27474279981107,None,ae11,1,2022-04-29_14h28.10.531,threat_forest,2021.2.3,59.998619923447386,
13,0,13,0,3,0,3,0,,,,,,,,,,right,0.5351724997162819,466.5672021000646,ae11,466.5672021000646,None,461.3085830998607,463.307869900018,False,2,['p'],True,0.375,0.5,0.25,1.0,1.0,0.9850568223215076,-0.625,wait_cost,0,1,463.307869900018,None,ae11,1,2022-04-29_14h28.10.531,threat_forest,2021.2.3,59.998619923447386,
13,0,13,0,4,0,4,0,,,,,,,,,,right,0.6569531001150608,470.9808088000864,ae11,470.9808088000864,None,461.3085830998607,463.307869900018,False,1,['p'],True,0.375,0.5,0.25,1.0,1.0,0.9850568223215076,0.375,wait_cost,0,0,469.1251912000589,None,ae11,1,2022-04-29_14h28.10.531,threat_forest,2021.2.3,59.998619923447386,
13,0,13,0,,,,,,,,,,,,,,,,,,,,,,,,,,,,,,,,,,,,473.65874319989234,None,ae11,1,2022-04-29_14h28.10.531,threat_forest,2021.2.3,59.998619923447386,
14,0,14,0,0,0,0,0,,,,,,,475.79225770011544,479.2839724998921,None,right,0.7855714000761509,481.45506560010836,ae11,481.45506560010836,None,475.79225770011544,479.2839724998921,False,5,['p'],True,0.32,0.4,0.2,1.0,1.0,0.9455672104350704,0.0,wait_cost,0,4,,,ae11,1,2022-04-29_14h28.10.531,threat_forest,2021.2.3,59.998619923447386,
14,0,14,0,1,0,1,0,,,,,,,,,,right,1.2388814999721944,485.4164661001414,ae11,482.25870240014046,484.25852310005575,485.4164661001414,None,True,4,['p'],False,0.1975308641975308,0.2222222222222222,0.1111111111111111,1.0,1.0,0.7461067557824965,0.0,unsucc_cost,1,2,484.25852310005575,None,ae11,1,2022-04-29_14h28.10.531,threat_forest,2021.2.3,59.998619923447386,
14,0,14,0,2,0,2,0,,,,,,,,,,right,1.0397067000158131,491.08253689995036,ae11,491.08253689995036,None,486.6755272997543,488.6754073998891,False,2,['p'],True,0.32,0.4,0.2,1.0,1.0,0.9455672104350704,-0.6799999999999999,wait_cost,0,1,488.6754073998891,None,ae11,1,2022-04-29_14h28.10.531,threat_forest,2021.2.3,59.998619923447386,
14,0,14,0,3,0,3,0,,,,,,,,,,left,0.7277901000343263,496.6115688998252,ae11,496.6115688998252,None,486.6755272997543,488.6754073998891,True,1,['p'],True,0.32,0.4,0.2,1.0,1.0,0.9455672104350704,0.32,unsucc_cost,0,0,494.142064999789,None,ae11,1,2022-04-29_14h28.10.531,threat_forest,2021.2.3,59.998619923447386,
14,0,14,0,,,,,,,,,,,,,,,,,,,,,,,,,,,,,,,,,,,,499.37564260000363,None,ae11,1,2022-04-29_14h28.10.531,threat_forest,2021.2.3,59.998619923447386,
15,0,15,0,0,0,0,0,,,,,,,500.9986363998614,504.5086594000459,None,right,0.7721493998542428,507.5188188999891,ae11,507.5188188999891,None,500.9986363998614,504.5086594000459,False,4,['r'],True,0.5,0.5,0.0,0.0,1.0,0.6309297535714574,0.0,wait_cost,0,3,,,ae11,1,2022-04-29_14h28.10.531,threat_forest,2021.2.3,59.998619923447386,
15,0,15,0,1,0,1,0,,,,,,,,,,right,0.7480354001745582,511.0441590999253,ae11,511.0441590999253,None,500.9986363998614,504.5086594000459,False,3,['r'],True,0.5,0.5,0.0,0.0,1.0,0.6309297535714574,0.0,wait_cost,0,2,510.3088410999626,None,ae11,1,2022-04-29_14h28.10.531,threat_forest,2021.2.3,59.998619923447386,
15,0,15,0,2,0,2,0,,,,,,,,,,right,1.0475973999127746,515.6923695998266,ae11,515.6923695998266,None,500.9986363998614,504.5086594000459,False,2,['r'],True,0.5,0.5,0.0,0.0,1.0,0.6309297535714574,-0.5,wait_cost,0,1,513.808662999887,None,ae11,1,2022-04-29_14h28.10.531,threat_forest,2021.2.3,59.998619923447386,
15,0,15,0,3,0,3,0,,,,,,,,,,right,0.6147648999467492,521.8621152997948,ae11,516.7593204998411,518.7588758999482,521.8621152997948,None,True,1,['r'],False,0.36,0.6,0.4,2.0,1.0,0.9801625908629508,0.36,succ_gain,1,2,518.7588758999482,None,ae11,1,2022-04-29_14h28.10.531,threat_forest,2021.2.3,59.998619923447386,
15,0,15,0,4,0,4,0,,,,,,,,,,right,0.6226603002287447,527.7650659000501,ae11,527.7650659000501,None,522.509527800139,524.5088642998599,False,2,['r'],True,0.5,0.5,0.0,0.0,1.0,0.6309297535714574,-0.5,wait_cost,0,1,524.5088642998599,None,ae11,1,2022-04-29_14h28.10.531,threat_forest,2021.2.3,59.998619923447386,
15,0,15,0,5,0,5,0,,,,,,,,,,right,0.4877872997894883,531.2316712001339,ae11,528.4093841998838,530.4092949000187,531.2316712001339,None,True,1,['r'],False,0.36,0.6,0.4,2.0,1.0,0.9801625908629508,0.36,succ_gain,1,2,530.4092949000187,None,ae11,1,2022-04-29_14h28.10.531,threat_forest,2021.2.3,59.998619923447386,
15,0,15,0,6,0,6,0,,,,,,,,,,right,0.4410532000474632,536.8095543999225,ae11,528.4093841998838,530.4092949000187,536.8095543999225,None,True,2,['r'],False,0.36,0.6,0.4,2.0,1.0,0.9801625908629508,-0.64,unsucc_cost,1,0,533.7426335001364,None,ae11,1,2022-04-29_14h28.10.531,threat_forest,2021.2.3,59.998619923447386,
15,0,15,0,,,,,,,,,,,,,,,,,,,,,,,,,,,,,,,,,,,,539.2760864999145,None,ae11,1,2022-04-29_14h28.10.531,threat_forest,2021.2.3,59.998619923447386,
16,0,16,0,0,0,0,0,,,,,,,542.6387386000715,546.1429043998942,None,left,1.2988849999383092,547.8367755999789,ae11,542.6387386000715,546.1429043998942,547.8367755999789,None,False,5,['p'],False,0.18,0.2,0.1,1.0,1.0,0.7058405977926203,0.0,wait_cost,1,4,,,ae11,1,2022-04-29_14h28.10.531,threat_forest,2021.2.3,59.998619923447386,
16,0,16,0,1,0,1,0,,,,,,,,,,left,0.7149979998357594,553.2985120997764,ae11,542.6387386000715,546.1429043998942,553.2985120997764,None,False,4,['p'],False,0.18,0.2,0.1,1.0,1.0,0.7058405977926203,0.0,wait_cost,1,3,551.1593641997315,None,ae11,1,2022-04-29_14h28.10.531,threat_forest,2021.2.3,59.998619923447386,
16,0,16,0,2,0,2,0,,,,,,,,,,left,0.5973416999913752,558.6831769999117,ae11,542.6387386000715,546.1429043998942,558.6831769999117,None,False,3,['p'],False,0.18,0.2,0.1,1.0,1.0,0.7058405977926203,-0.1,wait_cost,1,2,556.0431904997677,None,ae11,1,2022-04-29_14h28.10.531,threat_forest,2021.2.3,59.998619923447386,
16,0,16,0,3,0,3,0,,,,,,,,,,left,0.5862875003367662,563.7981372997165,ae11,563.7981372997165,None,559.3098097997718,561.3098670998588,True,2,['p'],True,0.375,0.5,0.25,1.0,1.0,0.9850568223215076,-0.625,unsucc_cost,0,0,561.3098670998588,None,ae11,1,2022-04-29_14h28.10.531,threat_forest,2021.2.3,59.998619923447386,
16,0,16,0,,,,,,,,,,,,,,,,,,,,,,,,,,,,,,,,,,,,566.4098946000449,None,ae11,1,2022-04-29_14h28.10.531,threat_forest,2021.2.3,59.998619923447386,
17,0,17,0,0,0,0,0,,,,,,,569.3717471999116,572.8766858000308,None,left,1.1734875002875924,573.9389009000733,ae11,569.3717471999116,572.8766858000308,573.9389009000733,None,False,4,['r'],False,0.28125,0.375,0.25,2.0,2.0,0.9634951148421658,0.0,wait_cost,1,3,,,ae11,1,2022-04-29_14h28.10.531,threat_forest,2021.2.3,59.998619923447386,
17,0,17,0,1,0,1,0,,,,,,,,,,left,0.5425338000059128,579.9331638999283,ae11,579.9331638999283,None,575.1435464997776,577.143377199769,True,3,['r'],True,0.3333333333333333,0.3333333333333333,0.0,0.0,2.0,0.5793801642856949,0.0,succ_gain,0,5,577.143377199769,None,ae11,1,2022-04-29_14h28.10.531,threat_forest,2021.2.3,59.998619923447386,
17,0,17,0,2,0,2,0,,,,,,,,,,left,0.7032953999005258,584.8390520997345,ae11,580.4938529999927,582.4936764999293,584.8390520997345,None,False,5,['r'],False,0.28125,0.375,0.25,2.0,2.0,0.9634951148421658,0.0,wait_cost,1,4,582.4936764999293,None,ae11,1,2022-04-29_14h28.10.531,threat_forest,2021.2.3,59.998619923447386,
17,0,17,0,3,0,3,0,,,,,,,,,,left,0.7965558003634214,590.4479052000679,ae11,590.4479052000679,None,585.5603530998342,587.5603030999191,True,4,['r'],True,0.3333333333333333,0.3333333333333333,0.0,0.0,2.0,0.5793801642856949,0.0,unsucc_cost,0,2,587.5603030999191,None,ae11,1,2022-04-29_14h28.10.531,threat_forest,2021.2.3,59.998619923447386,
17,0,17,0,4,0,4,0,,,,,,,,,,left,0.8074962999671698,593.9876288999803,ae11,591.2770797000267,593.2768365000375,593.9876288999803,None,False,2,['r'],False,0.28125,0.375,0.25,2.0,2.0,0.9634951148421658,-0.71875,wait_cost,1,1,593.2768365000375,None,ae11,1,2022-04-29_14h28.10.531,threat_forest,2021.2.3,59.998619923447386,
17,0,17,0,5,0,5,0,,,,,,,,,,left,0.7288597002625465,599.7635673996992,ae11,599.7635673996992,None,594.8331105997786,596.8439058000222,True,1,['r'],True,0.3333333333333333,0.3333333333333333,0.0,0.0,2.0,0.5793801642856949,0.3333333333333332,unsucc_cost,0,0,596.8439058000222,None,ae11,1,2022-04-29_14h28.10.531,threat_forest,2021.2.3,59.998619923447386,
17,0,17,0,,,,,,,,,,,,,,,,,,,,,,,,,,,,,,,,,,,,602.510627000127,None,ae11,1,2022-04-29_14h28.10.531,threat_forest,2021.2.3,59.998619923447386,
