miniblock.thisRepN,miniblock.thisTrialN,miniblock.thisN,miniblock.thisIndex,day.thisRepN,day.thisTrialN,day.thisN,day.thisIndex,welcoming.started,welcoming.stopped,key_resp_2.keys,key_resp_2.rt,key_resp_2.started,key_resp_2.stopped,forest.started,fixation_forest.started,fixation_forest.stopped,key_resp.keys,key_resp.rt,key_resp.started,Subject_ID,weather_left.started,weather_left.stopped,weather_right.started,weather_right.stopped,foraging T/F,in_LP,p/r heuristic,good_weather.T/F,p_succ_correct,p_succ_uncorrected,r_threat,n_oponents,gain_if_succ,weather_entropy,OP_value_difference,action_outcome,forest_side_L=0_R=1,out_LP,fixation_day.started,fixation_day.stopped,n_day-1.out_LP.,participant,session,date,expName,psychopyVersion,frameRate,
,,,,,,,,24.104440799972508,None,space,2.0877661000122316,24.104440799972508,None,,,,,,,,,,,,,,,,,,,,,,,,,,,,,ri12,2,2023-03-20_14h04.18.842,threat_forest,2021.2.3,59.887304056691484,
0,0,0,0,0,0,0,0,,,,,,,26.25768479995895,29.762980800005607,None,left,0.8995980999898165,33.391425399982836,ri12,33.391425399982836,None,26.25768479995895,29.762980800005607,True,5,['r'],True,0.4,0.4,0.0,0.0,1.0,0.6126016192893442,0.0,unsucc_cost,0,3,,,,ri12,2,2023-03-20_14h04.18.842,threat_forest,2021.2.3,59.887304056691484,
0,0,0,0,1,0,1,0,,,,,,,,,,left,1.3063298999913968,39.454249700007495,ri12,39.454249700007495,None,26.25768479995895,29.762980800005607,True,3,['r'],True,0.4,0.4,0.0,0.0,1.0,0.6126016192893442,0.0,unsucc_cost,0,1,36.32350229995791,None,3,ri12,2,2023-03-20_14h04.18.842,threat_forest,2021.2.3,59.887304056691484,
0,0,0,0,2,0,2,0,,,,,,,,,,right,0.7285376000218093,46.25045609998051,ri12,40.78643039998133,42.80084519996308,46.25045609998051,None,True,1,['r'],False,0.3061224489795918,0.4285714285714285,0.2857142857142857,2.0,1.0,0.9885754083994552,0.3061224489795917,succ_gain,1,2,42.80084519996308,None,1,ri12,2,2023-03-20_14h04.18.842,threat_forest,2021.2.3,59.887304056691484,
0,0,0,0,3,0,3,0,,,,,,,,,,left,1.1530556000070646,50.54406679997919,ri12,50.54406679997919,None,46.99724699999206,49.01190059998771,True,2,['r'],True,0.4,0.4,0.0,0.0,1.0,0.6126016192893442,-0.6,succ_gain,0,3,49.01190059998771,None,2,ri12,2,2023-03-20_14h04.18.842,threat_forest,2021.2.3,59.887304056691484,
0,0,0,0,4,0,4,0,,,,,,,,,,left,1.4977820999920368,56.17447749996791,ri12,51.726306599972304,53.740672799991444,56.17447749996791,None,False,3,['r'],False,0.3061224489795918,0.4285714285714285,0.2857142857142857,2.0,1.0,0.9885754083994552,-0.2857142857142857,wait_cost,1,2,53.740672799991444,None,3,ri12,2,2023-03-20_14h04.18.842,threat_forest,2021.2.3,59.887304056691484,
0,0,0,0,5,0,5,0,,,,,,,,,,left,1.2033641000161879,60.967552199959755,ri12,60.967552199959755,None,57.703851099999156,59.71827099996153,True,2,['r'],True,0.4,0.4,0.0,0.0,1.0,0.6126016192893442,-0.6,succ_gain,0,3,59.71827099996153,None,2,ri12,2,2023-03-20_14h04.18.842,threat_forest,2021.2.3,59.887304056691484,
0,0,0,0,6,0,6,0,,,,,,,,,,right,0.9172757000196725,66.34573070000624,ri12,66.34573070000624,None,57.703851099999156,59.71827099996153,False,3,['r'],True,0.4,0.4,0.0,0.0,1.0,0.6126016192893442,0.0,wait_cost,0,2,64.21416809997754,None,3,ri12,2,2023-03-20_14h04.18.842,threat_forest,2021.2.3,59.887304056691484,
0,0,0,0,7,0,7,0,,,,,,,,,,right,0.5893164000008255,71.84059859998524,ri12,71.84059859998524,None,57.703851099999156,59.71827099996153,False,2,['r'],True,0.4,0.4,0.0,0.0,1.0,0.6126016192893442,-0.6,wait_cost,0,1,69.30933249997906,None,2,ri12,2,2023-03-20_14h04.18.842,threat_forest,2021.2.3,59.887304056691484,
0,0,0,0,,,,,,,,,,,,,,,,,,,,,,,,,,,,,,,,,,,,74.47116269997787,None,1,ri12,2,2023-03-20_14h04.18.842,threat_forest,2021.2.3,59.887304056691484,
1,0,1,0,0,0,0,0,,,,,,,77.98613340000156,81.48020009999163,None,right,1.2761656999937259,84.345603499969,ri12,84.345603499969,None,77.98613340000156,81.48020009999163,False,5,['r'],True,0.32,0.4,0.2,1.0,2.0,0.9455672104350704,0.0,wait_cost,0,4,,,,ri12,2,2023-03-20_14h04.18.842,threat_forest,2021.2.3,59.887304056691484,
1,0,1,0,1,0,1,0,,,,,,,,,,left,1.684726600011345,89.66257990000304,ri12,85.64445939997677,87.65886039996985,89.66257990000304,None,False,4,['r'],False,0.1975308641975308,0.2222222222222222,0.1111111111111111,1.0,2.0,0.7461067557824965,0.0,wait_cost,1,3,87.65886039996985,None,4,ri12,2,2023-03-20_14h04.18.842,threat_forest,2021.2.3,59.887304056691484,
1,0,1,0,2,0,2,0,,,,,,,,,,left,1.3028165000141598,96.81729819998145,ri12,96.81729819998145,None,91.37263409997104,93.38683589996072,True,3,['r'],True,0.32,0.4,0.2,1.0,2.0,0.9455672104350704,-0.2,unsucc_cost,0,1,93.38683589996072,None,3,ri12,2,2023-03-20_14h04.18.842,threat_forest,2021.2.3,59.887304056691484,
1,0,1,0,3,0,3,0,,,,,,,,,,left,1.33926540001994,101.3301899000071,ri12,101.3301899000071,None,91.37263409997104,93.38683589996072,True,1,['r'],True,0.32,0.4,0.2,1.0,2.0,0.9455672104350704,0.32,unsucc_cost,0,0,100.16384549997747,None,1,ri12,2,2023-03-20_14h04.18.842,threat_forest,2021.2.3,59.887304056691484,
1,0,1,0,,,,,,,,,,,,,,,,,,,,,,,,,,,,,,,,,,,,104.70964409998851,None,0,ri12,2,2023-03-20_14h04.18.842,threat_forest,2021.2.3,59.887304056691484,
2,0,2,0,0,0,0,0,,,,,,,107.06920769996941,110.56906720000552,None,left,1.2072321000159718,112.85271169996122,ri12,112.85271169996122,None,107.06920769996941,110.56906720000552,True,5,['p'],True,0.5714285714285714,0.5714285714285714,0.0,0.0,2.0,0.6216097450797566,0.0,unsucc_cost,0,3,,,,ri12,2,2023-03-20_14h04.18.842,threat_forest,2021.2.3,59.887304056691484,
2,0,2,0,1,0,1,0,,,,,,,,,,left,1.3730321999755688,117.46483289997559,ri12,117.46483289997559,None,107.06920769996941,110.56906720000552,True,3,['p'],True,0.5714285714285714,0.5714285714285714,0.0,0.0,2.0,0.6216097450797566,0.0,unsucc_cost,0,1,116.09907190001104,None,3,ri12,2,2023-03-20_14h04.18.842,threat_forest,2021.2.3,59.887304056691484,
2,0,2,0,2,0,2,0,,,,,,,,,,right,0.8822333000134677,123.47670569998445,ri12,118.86356099997647,120.87791539996397,123.47670569998445,None,True,1,['p'],False,0.46875,0.625,0.25,2.0,2.0,0.9634951148421658,0.46875,succ_gain,1,3,120.87791539996397,None,1,ri12,2,2023-03-20_14h04.18.842,threat_forest,2021.2.3,59.887304056691484,
2,0,2,0,3,0,3,0,,,,,,,,,,left,1.551456299959682,127.93967259995406,ri12,127.93967259995406,None,124.39167109999107,126.40602779999608,True,3,['p'],True,0.5714285714285714,0.5714285714285714,0.0,0.0,2.0,0.6216097450797566,0.0,unsucc_cost,0,1,126.40602779999608,None,3,ri12,2,2023-03-20_14h04.18.842,threat_forest,2021.2.3,59.887304056691484,
2,0,2,0,4,0,4,0,,,,,,,,,,right,1.1545237999525853,133.73305330000585,ri12,129.52021099999547,131.53467879997334,133.73305330000585,None,True,1,['p'],False,0.46875,0.625,0.25,2.0,2.0,0.9634951148421658,0.46875,unsucc_cost,1,0,131.53467879997334,None,1,ri12,2,2023-03-20_14h04.18.842,threat_forest,2021.2.3,59.887304056691484,
2,0,2,0,,,,,,,,,,,,,,,,,,,,,,,,,,,,,,,,,,,,136.92961180000566,None,0,ri12,2,2023-03-20_14h04.18.842,threat_forest,2021.2.3,59.887304056691484,
3,0,3,0,0,0,0,0,,,,,,,137.4753936000052,140.97650230000727,None,right,1.6079121000366285,142.31681869999738,ri12,142.31681869999738,None,137.4753936000052,140.97650230000727,False,5,['r'],True,0.625,0.625,0.0,0.0,2.0,0.6021808102656677,0.0,wait_cost,0,4,,,,ri12,2,2023-03-20_14h04.18.842,threat_forest,2021.2.3,59.887304056691484,
3,0,3,0,1,0,1,0,,,,,,,,,,right,1.0779290999635123,147.32050099998014,ri12,147.32050099998014,None,137.4753936000052,140.97650230000727,False,4,['r'],True,0.625,0.625,0.0,0.0,2.0,0.6021808102656677,0.0,wait_cost,0,3,145.9711537999683,None,4,ri12,2,2023-03-20_14h04.18.842,threat_forest,2021.2.3,59.887304056691484,
3,0,3,0,2,0,2,0,,,,,,,,,,right,1.3806927999830805,153.23193849995732,ri12,153.23193849995732,None,137.4753936000052,140.97650230000727,False,3,['r'],True,0.625,0.625,0.0,0.0,2.0,0.6021808102656677,0.0,wait_cost,0,2,150.43361399997957,None,3,ri12,2,2023-03-20_14h04.18.842,threat_forest,2021.2.3,59.887304056691484,
3,0,3,0,3,0,3,0,,,,,,,,,,right,0.9983218000270426,157.6940193999908,ri12,154.63013949996093,156.64450439997017,157.6940193999908,None,True,2,['r'],False,0.5185185185185185,0.6666666666666666,0.2222222222222222,2.0,2.0,0.9327883776363328,-0.4814814814814815,succ_gain,1,4,156.64450439997017,None,2,ri12,2,2023-03-20_14h04.18.842,threat_forest,2021.2.3,59.887304056691484,
3,0,3,0,4,0,4,0,,,,,,,,,,right,0.8315323999850079,162.23973390000174,ri12,154.63013949996093,156.64450439997017,162.23973390000174,None,True,4,['r'],False,0.5185185185185185,0.6666666666666666,0.2222222222222222,2.0,2.0,0.9327883776363328,0.0,unsucc_cost,1,2,160.7244068,None,4,ri12,2,2023-03-20_14h04.18.842,threat_forest,2021.2.3,59.887304056691484,
3,0,3,0,5,0,5,0,,,,,,,,,,right,2.4945741000119597,166.77096930000698,ri12,166.77096930000698,None,163.0889065999654,165.10331360000418,False,2,['r'],True,0.625,0.625,0.0,0.0,2.0,0.6021808102656677,-0.375,wait_cost,0,1,165.10331360000418,None,2,ri12,2,2023-03-20_14h04.18.842,threat_forest,2021.2.3,59.887304056691484,
3,0,3,0,6,0,6,0,,,,,,,,,,left,1.0616753000067547,173.19606889999704,ri12,173.19606889999704,None,163.0889065999654,165.10331360000418,True,1,['r'],True,0.625,0.625,0.0,0.0,2.0,0.6021808102656677,0.625,succ_gain,0,3,171.29751489998307,None,1,ri12,2,2023-03-20_14h04.18.842,threat_forest,2021.2.3,59.887304056691484,
3,0,3,0,7,0,7,0,,,,,,,,,,left,0.758392299991101,177.20988089998718,ri12,174.27843760000542,176.29278670001077,177.20988089998718,None,False,3,['r'],False,0.5185185185185185,0.6666666666666666,0.2222222222222222,2.0,2.0,0.9327883776363328,-0.2222222222222222,wait_cost,1,2,176.29278670001077,None,3,ri12,2,2023-03-20_14h04.18.842,threat_forest,2021.2.3,59.887304056691484,
3,0,3,0,,,,,,,,,,,,,,,,,,,,,,,,,,,,,,,,,,,,180.00609909999184,None,2,ri12,2,2023-03-20_14h04.18.842,threat_forest,2021.2.3,59.887304056691484,
4,0,4,0,0,0,0,0,,,,,,,182.04466590000084,185.55088960001012,None,right,2.44913359999191,187.18464369996218,ri12,187.18464369996218,None,182.04466590000084,185.55088960001012,False,5,['r'],True,0.4444444444444445,0.6666666666666666,0.3333333333333333,1.0,2.0,0.9656336071428248,0.0,wait_cost,0,4,,,,ri12,2,2023-03-20_14h04.18.842,threat_forest,2021.2.3,59.887304056691484,
4,0,4,0,1,0,1,0,,,,,,,,,,None,,193.36056820000522,ri12,189.66416679997928,191.67843520001043,193.36056820000522,None,None,4,['r'],False,0.2448979591836734,0.2857142857142857,0.1428571428571428,1.0,2.0,0.8400769154957735,0.0,wait_cost,1,3,191.67843520001043,None,4,ri12,2,2023-03-20_14h04.18.842,threat_forest,2021.2.3,59.887304056691484,
4,0,4,0,2,0,2,0,,,,,,,,,,right,1.9007623000070453,199.73785939998925,ri12,189.66416679997928,191.67843520001043,199.73785939998925,None,True,3,['r'],False,0.2448979591836734,0.2857142857142857,0.1428571428571428,1.0,2.0,0.8400769154957735,-0.1428571428571428,succ_gain,1,5,198.3888234999613,None,3,ri12,2,2023-03-20_14h04.18.842,threat_forest,2021.2.3,59.887304056691484,
4,0,4,0,3,0,3,0,,,,,,,,,,right,0.9398947000154294,206.7833122999873,ri12,206.7833122999873,None,201.66952259995742,203.68386039999314,False,5,['r'],True,0.4444444444444445,0.6666666666666666,0.3333333333333333,1.0,2.0,0.9656336071428248,0.0,wait_cost,0,4,203.68386039999314,None,5,ri12,2,2023-03-20_14h04.18.842,threat_forest,2021.2.3,59.887304056691484,
4,0,4,0,4,0,4,0,,,,,,,,,,right,1.271958099969197,211.49365669995314,ri12,207.74726639996516,209.76161839999259,211.49365669995314,None,True,4,['r'],False,0.2448979591836734,0.2857142857142857,0.1428571428571428,1.0,2.0,0.8400769154957735,0.0,fight_cost,1,1,209.76161839999259,None,4,ri12,2,2023-03-20_14h04.18.842,threat_forest,2021.2.3,59.887304056691484,
4,0,4,0,5,0,5,0,,,,,,,,,,right,1.354321900056675,217.27149799995823,ri12,207.74726639996516,209.76161839999259,217.27149799995823,None,True,1,['r'],False,0.2448979591836734,0.2857142857142857,0.1428571428571428,1.0,2.0,0.8400769154957735,0.2448979591836735,succ_gain,1,3,214.8068879999919,None,1,ri12,2,2023-03-20_14h04.18.842,threat_forest,2021.2.3,59.887304056691484,
4,0,4,0,6,0,6,0,,,,,,,,,,right,1.1273493000189774,221.184944299981,ri12,221.184944299981,None,218.65350289997878,220.66801909997594,False,3,['r'],True,0.4444444444444445,0.6666666666666666,0.3333333333333333,1.0,2.0,0.9656336071428248,-0.3333333333333333,wait_cost,0,2,220.66801909997594,None,3,ri12,2,2023-03-20_14h04.18.842,threat_forest,2021.2.3,59.887304056691484,
4,0,4,0,7,0,7,0,,,,,,,,,,right,0.5536587999667972,228.01190539996605,ri12,228.01190539996605,None,218.65350289997878,220.66801909997594,False,2,['r'],True,0.4444444444444445,0.6666666666666666,0.3333333333333333,1.0,2.0,0.9656336071428248,-0.5555555555555556,wait_cost,0,1,224.34790679998696,None,2,ri12,2,2023-03-20_14h04.18.842,threat_forest,2021.2.3,59.887304056691484,
4,0,4,0,,,,,,,,,,,,,,,,,,,,,,,,,,,,,,,,,,,,230.60877439996693,None,1,ri12,2,2023-03-20_14h04.18.842,threat_forest,2021.2.3,59.887304056691484,
5,0,5,0,0,0,0,0,,,,,,,232.6594038999756,236.17024539998965,None,left,1.0215825999621302,238.30231459997594,ri12,238.30231459997594,None,232.6594038999756,236.17024539998965,True,4,['r'],True,0.5,0.5,0.0,0.0,2.0,0.6309297535714574,0.0,unsucc_cost,0,2,,,,ri12,2,2023-03-20_14h04.18.842,threat_forest,2021.2.3,59.887304056691484,
5,0,5,0,1,0,1,0,,,,,,,,,,left,1.183820000034757,242.5478987999959,ri12,242.5478987999959,None,232.6594038999756,236.17024539998965,True,2,['r'],True,0.5,0.5,0.0,0.0,2.0,0.6309297535714574,-0.5,succ_gain,0,4,241.36553959996672,None,2,ri12,2,2023-03-20_14h04.18.842,threat_forest,2021.2.3,59.887304056691484,
5,0,5,0,2,0,2,0,,,,,,,,,,left,1.6902292000013404,247.0936531999614,ri12,247.0936531999614,None,232.6594038999756,236.17024539998965,True,4,['r'],True,0.5,0.5,0.0,0.0,2.0,0.6309297535714574,0.0,succ_gain,0,6,245.7778994999826,None,4,ri12,2,2023-03-20_14h04.18.842,threat_forest,2021.2.3,59.887304056691484,
5,0,5,0,3,0,3,0,,,,,,,,,,right,1.3498845999711193,253.0048109999625,ri12,253.0048109999625,None,232.6594038999756,236.17024539998965,False,6,['r'],True,0.5,0.5,0.0,0.0,2.0,0.6309297535714574,0.0,wait_cost,0,5,250.8235475999536,None,6,ri12,2,2023-03-20_14h04.18.842,threat_forest,2021.2.3,59.887304056691484,
5,0,5,0,4,0,4,0,,,,,,,,,,right,1.7597699000034481,258.64966860000277,ri12,258.64966860000277,None,232.6594038999756,236.17024539998965,False,5,['r'],True,0.5,0.5,0.0,0.0,2.0,0.6309297535714574,0.0,wait_cost,0,4,256.40134799998486,None,5,ri12,2,2023-03-20_14h04.18.842,threat_forest,2021.2.3,59.887304056691484,
5,0,5,0,5,0,5,0,,,,,,,,,,right,0.6904311000253074,266.19253130001016,ri12,266.19253130001016,None,232.6594038999756,236.17024539998965,False,4,['r'],True,0.5,0.5,0.0,0.0,2.0,0.6309297535714574,0.0,wait_cost,0,3,262.4456426000106,None,4,ri12,2,2023-03-20_14h04.18.842,threat_forest,2021.2.3,59.887304056691484,
5,0,5,0,6,0,6,0,,,,,,,,,,left,1.1739137999829836,270.27246839995496,ri12,266.9086868999875,268.9229448999977,270.27246839995496,None,False,3,['r'],False,0.2222222222222222,0.6666666666666666,0.6666666666666666,2.0,2.0,0.77250688571426,-0.6666666666666666,wait_cost,1,2,268.9229448999977,None,3,ri12,2,2023-03-20_14h04.18.842,threat_forest,2021.2.3,59.887304056691484,
5,0,5,0,7,0,7,0,,,,,,,,,,right,1.5019136000191793,274.41815019998467,ri12,274.41815019998467,None,271.47089439997217,273.48581779998494,False,2,['r'],True,0.5,0.5,0.0,0.0,2.0,0.6309297535714574,-0.5,wait_cost,0,1,273.48581779998494,None,2,ri12,2,2023-03-20_14h04.18.842,threat_forest,2021.2.3,59.887304056691484,
5,0,5,0,,,,,,,,,,,,,,,,,,,,,,,,,,,,,,,,,,,,277.96483119996265,None,1,ri12,2,2023-03-20_14h04.18.842,threat_forest,2021.2.3,59.887304056691484,
6,0,6,0,0,0,0,0,,,,,,,281.57009170000674,285.07458109996514,None,left,0.8702976000495255,287.5229776999913,ri12,287.5229776999913,None,281.57009170000674,285.07458109996514,True,5,['p'],True,0.375,0.5,0.25,1.0,2.0,0.9850568223215076,0.0,unsucc_cost,0,3,,,,ri12,2,2023-03-20_14h04.18.842,threat_forest,2021.2.3,59.887304056691484,
6,0,6,0,1,0,1,0,,,,,,,,,,left,1.225868100009393,294.10004859999754,ri12,294.10004859999754,None,281.57009170000674,285.07458109996514,True,3,['p'],True,0.375,0.5,0.25,1.0,2.0,0.9850568223215076,-0.25,succ_gain,0,5,290.43625329999486,None,3,ri12,2,2023-03-20_14h04.18.842,threat_forest,2021.2.3,59.887304056691484,
6,0,6,0,2,0,2,0,,,,,,,,,,right,1.2773046999936923,298.56230319995666,ri12,298.56230319995666,None,281.57009170000674,285.07458109996514,False,5,['p'],True,0.375,0.5,0.25,1.0,2.0,0.9850568223215076,0.0,wait_cost,0,4,297.3630732999882,None,5,ri12,2,2023-03-20_14h04.18.842,threat_forest,2021.2.3,59.887304056691484,
6,0,6,0,3,0,3,0,,,,,,,,,,left,0.7261852999799885,303.30782779998844,ri12,303.30782779998844,None,281.57009170000674,285.07458109996514,True,4,['p'],True,0.375,0.5,0.25,1.0,2.0,0.9850568223215076,0.0,unsucc_cost,0,2,301.87557350000134,None,4,ri12,2,2023-03-20_14h04.18.842,threat_forest,2021.2.3,59.887304056691484,
6,0,6,0,4,0,4,0,,,,,,,,,,left,1.146788000012748,307.5206704000011,ri12,307.5206704000011,None,281.57009170000674,285.07458109996514,True,2,['p'],True,0.375,0.5,0.25,1.0,2.0,0.9850568223215076,-0.625,unsucc_cost,0,0,306.0717180999927,None,2,ri12,2,2023-03-20_14h04.18.842,threat_forest,2021.2.3,59.887304056691484,
6,0,6,0,,,,,,,,,,,,,,,,,,,,,,,,,,,,,,,,,,,,310.7007363999728,None,0,ri12,2,2023-03-20_14h04.18.842,threat_forest,2021.2.3,59.887304056691484,
7,0,7,0,0,0,0,0,,,,,,,314.32336739997845,317.82739649998257,None,left,1.5248201999929734,321.39173450000817,ri12,321.39173450000817,None,314.32336739997845,317.82739649998257,True,4,['p'],True,0.4444444444444445,0.6666666666666666,0.3333333333333333,1.0,1.0,0.9656336071428248,0.0,unsucc_cost,0,2,,,,ri12,2,2023-03-20_14h04.18.842,threat_forest,2021.2.3,59.887304056691484,
7,0,7,0,1,0,1,0,,,,,,,,,,right,2.2647390999482013,328.2678675999632,ri12,322.9396820999682,324.95401019998826,328.2678675999632,None,True,2,['p'],False,0.2222222222222222,0.2222222222222222,0.0,0.0,1.0,0.4821593609696809,-0.7777777777777778,fight_cost,1,0,324.95401019998826,None,2,ri12,2,2023-03-20_14h04.18.842,threat_forest,2021.2.3,59.887304056691484,
7,0,7,0,,,,,,,,,,,,,,,,,,,,,,,,,,,,,,,,,,,,332.5637635999592,None,0,ri12,2,2023-03-20_14h04.18.842,threat_forest,2021.2.3,59.887304056691484,
8,0,8,0,0,0,0,0,,,,,,,334.95521179999923,338.4580800999538,None,right,0.8037707000039518,342.02271469996776,ri12,334.95521179999923,338.4580800999538,342.02271469996776,None,True,5,['r'],False,0.4081632653061224,0.5714285714285714,0.2857142857142857,2.0,2.0,0.9885754083994552,0.0,succ_gain,1,6,,,,ri12,2,2023-03-20_14h04.18.842,threat_forest,2021.2.3,59.887304056691484,
8,0,8,0,1,0,1,0,,,,,,,,,,right,0.871628699998837,348.4186300999718,ri12,348.4186300999718,None,342.8544142000028,344.86871489998884,False,6,['r'],True,0.5,0.5,0.0,0.0,2.0,0.6309297535714574,0.0,wait_cost,0,5,344.86871489998884,None,6,ri12,2,2023-03-20_14h04.18.842,threat_forest,2021.2.3,59.887304056691484,
8,0,8,0,2,0,2,0,,,,,,,,,,right,1.2422000999795273,354.42698339995695,ri12,354.42698339995695,None,342.8544142000028,344.86871489998884,False,5,['r'],True,0.5,0.5,0.0,0.0,2.0,0.6309297535714574,0.0,wait_cost,0,4,351.3293577999575,None,5,ri12,2,2023-03-20_14h04.18.842,threat_forest,2021.2.3,59.887304056691484,
8,0,8,0,3,0,3,0,,,,,,,,,,right,1.2923286000150256,360.62113809998846,ri12,355.69262439996237,357.7067523999722,360.62113809998846,None,True,4,['r'],False,0.4081632653061224,0.5714285714285714,0.2857142857142857,2.0,2.0,0.9885754083994552,0.0,succ_gain,1,6,357.7067523999722,None,4,ri12,2,2023-03-20_14h04.18.842,threat_forest,2021.2.3,59.887304056691484,
8,0,8,0,4,0,4,0,,,,,,,,,,right,0.7750237000291236,365.11846749996766,ri12,365.11846749996766,None,361.9366337999818,363.95099189999746,False,6,['r'],True,0.5,0.5,0.0,0.0,2.0,0.6309297535714574,0.0,wait_cost,0,5,363.95099189999746,None,6,ri12,2,2023-03-20_14h04.18.842,threat_forest,2021.2.3,59.887304056691484,
8,0,8,0,5,0,5,0,,,,,,,,,,left,1.5006997999735177,369.5798530000029,ri12,365.9161542999791,367.9305502999923,369.5798530000029,None,False,5,['r'],False,0.4081632653061224,0.5714285714285714,0.2857142857142857,2.0,2.0,0.9885754083994552,0.0,wait_cost,1,4,367.9305502999923,None,5,ri12,2,2023-03-20_14h04.18.842,threat_forest,2021.2.3,59.887304056691484,
8,0,8,0,6,0,6,0,,,,,,,,,,right,0.656010199978482,376.0754848999786,ri12,376.0754848999786,None,371.11176369996974,373.1258491000044,False,4,['r'],True,0.5,0.5,0.0,0.0,2.0,0.6309297535714574,0.0,wait_cost,0,3,373.1258491000044,None,4,ri12,2,2023-03-20_14h04.18.842,threat_forest,2021.2.3,59.887304056691484,
8,0,8,0,7,0,7,0,,,,,,,,,,left,0.8499068000237457,380.5400495000067,ri12,376.75606909999624,378.77042680000886,380.5400495000067,None,False,3,['r'],False,0.4081632653061224,0.5714285714285714,0.2857142857142857,2.0,2.0,0.9885754083994552,-0.2857142857142857,wait_cost,1,2,378.77042680000886,None,3,ri12,2,2023-03-20_14h04.18.842,threat_forest,2021.2.3,59.887304056691484,
8,0,8,0,,,,,,,,,,,,,,,,,,,,,,,,,,,,,,,,,,,,383.43279160000384,None,2,ri12,2,2023-03-20_14h04.18.842,threat_forest,2021.2.3,59.887304056691484,
9,0,9,0,0,0,0,0,,,,,,,386.5401031000074,390.04329229996074,None,right,1.1824836999876425,392.8415262000053,ri12,386.5401031000074,390.04329229996074,392.8415262000053,None,True,5,['p'],False,0.18,0.2,0.1,1.0,2.0,0.7058405977926203,0.0,succ_gain,1,6,,,,ri12,2,2023-03-20_14h04.18.842,threat_forest,2021.2.3,59.887304056691484,
9,0,9,0,1,0,1,0,,,,,,,,,,left,0.5687141000526026,397.51997819996905,ri12,386.5401031000074,390.04329229996074,397.51997819996905,None,False,6,['p'],False,0.18,0.2,0.1,1.0,2.0,0.7058405977926203,0.0,wait_cost,1,5,396.07103259995347,None,6,ri12,2,2023-03-20_14h04.18.842,threat_forest,2021.2.3,59.887304056691484,
9,0,9,0,2,0,2,0,,,,,,,,,,right,0.8670151000260375,400.65304479998304,ri12,400.65304479998304,None,398.1193788999808,400.13390570000047,False,5,['p'],True,0.4444444444444445,0.6666666666666666,0.3333333333333333,1.0,2.0,0.9656336071428248,0.0,wait_cost,0,4,400.13390570000047,None,5,ri12,2,2023-03-20_14h04.18.842,threat_forest,2021.2.3,59.887304056691484,
9,0,9,0,3,0,3,0,,,,,,,,,,right,0.7420769999735057,406.977772299957,ri12,401.54965379997157,403.5639175999677,406.977772299957,None,True,4,['p'],False,0.18,0.2,0.1,1.0,2.0,0.7058405977926203,0.0,fight_cost,1,1,403.5639175999677,None,4,ri12,2,2023-03-20_14h04.18.842,threat_forest,2021.2.3,59.887304056691484,
9,0,9,0,4,0,4,0,,,,,,,,,,right,0.595183499972336,413.38918379996903,ri12,401.54965379997157,403.5639175999677,413.38918379996903,None,True,1,['p'],False,0.18,0.2,0.1,1.0,2.0,0.7058405977926203,0.1799999999999999,fight_cost,1,0,409.7581316999858,None,1,ri12,2,2023-03-20_14h04.18.842,threat_forest,2021.2.3,59.887304056691484,
9,0,9,0,,,,,,,,,,,,,,,,,,,,,,,,,,,,,,,,,,,,416.0190918999724,None,0,ri12,2,2023-03-20_14h04.18.842,threat_forest,2021.2.3,59.887304056691484,
10,0,10,0,0,0,0,0,,,,,,,419.3915213999571,422.89612379996106,None,right,0.6508242000127211,425.92691539996304,ri12,419.3915213999571,422.89612379996106,425.92691539996304,None,True,5,['r'],False,0.27,0.3,0.1,1.0,2.0,0.7963326591781347,0.0,fight_cost,1,2,,,,ri12,2,2023-03-20_14h04.18.842,threat_forest,2021.2.3,59.887304056691484,
10,0,10,0,1,0,1,0,,,,,,,,,,right,1.5983587999944575,429.2736297000083,ri12,419.3915213999571,422.89612379996106,429.2736297000083,None,True,2,['r'],False,0.27,0.3,0.1,1.0,2.0,0.7963326591781347,-0.73,unsucc_cost,1,0,428.6239244999597,None,2,ri12,2,2023-03-20_14h04.18.842,threat_forest,2021.2.3,59.887304056691484,
10,0,10,0,,,,,,,,,,,,,,,,,,,,,,,,,,,,,,,,,,,,432.9035053999978,None,0,ri12,2,2023-03-20_14h04.18.842,threat_forest,2021.2.3,59.887304056691484,
11,0,11,0,0,0,0,0,,,,,,,434.3101864999626,437.81544519995805,None,left,0.9281876000459306,439.8645163999754,ri12,434.3101864999626,437.81544519995805,439.8645163999754,None,False,5,['p'],False,0.3333333333333333,0.5,0.3333333333333333,2.0,2.0,1.0,0.0,wait_cost,1,4,,,,ri12,2,2023-03-20_14h04.18.842,threat_forest,2021.2.3,59.887304056691484,
11,0,11,0,1,0,1,0,,,,,,,,,,right,1.3171944000059739,443.72857729997486,ri12,443.72857729997486,None,440.8129764999612,442.8273399999598,False,4,['p'],True,0.4,0.4,0.0,0.0,2.0,0.6126016192893442,0.0,wait_cost,0,3,442.8273399999598,None,4,ri12,2,2023-03-20_14h04.18.842,threat_forest,2021.2.3,59.887304056691484,
11,0,11,0,2,0,2,0,,,,,,,,,,right,1.1855343999923207,450.10420269996393,ri12,450.10420269996393,None,440.8129764999612,442.8273399999598,False,3,['p'],True,0.4,0.4,0.0,0.0,2.0,0.6126016192893442,0.0,wait_cost,0,2,447.09006839996437,None,3,ri12,2,2023-03-20_14h04.18.842,threat_forest,2021.2.3,59.887304056691484,
11,0,11,0,3,0,3,0,,,,,,,,,,right,1.8716778999660164,455.58235789998434,ri12,451.3199076000019,453.3341020999942,455.58235789998434,None,True,2,['p'],False,0.3333333333333333,0.5,0.3333333333333333,2.0,2.0,1.0,-0.6666666666666667,unsucc_cost,1,0,453.3341020999942,None,2,ri12,2,2023-03-20_14h04.18.842,threat_forest,2021.2.3,59.887304056691484,
11,0,11,0,,,,,,,,,,,,,,,,,,,,,,,,,,,,,,,,,,,,459.49520309997024,None,0,ri12,2,2023-03-20_14h04.18.842,threat_forest,2021.2.3,59.887304056691484,
12,0,12,0,0,0,0,0,,,,,,,460.0862441000063,463.5913626999827,None,left,1.3602741000358947,466.4725467999815,ri12,460.0862441000063,463.5913626999827,466.4725467999815,None,False,5,['p'],False,0.3333333333333333,0.5,0.3333333333333333,2.0,1.0,1.0,0.0,wait_cost,1,4,,,,ri12,2,2023-03-20_14h04.18.842,threat_forest,2021.2.3,59.887304056691484,
12,0,12,0,1,0,1,0,,,,,,,,,,right,1.0933090000180528,470.47007769998163,ri12,470.47007769998163,None,467.8542731999769,469.86877469997853,False,4,['p'],True,0.4,0.4,0.0,0.0,1.0,0.6126016192893442,0.0,wait_cost,0,3,469.86877469997853,None,4,ri12,2,2023-03-20_14h04.18.842,threat_forest,2021.2.3,59.887304056691484,
12,0,12,0,2,0,2,0,,,,,,,,,,right,1.9135599000146613,476.76267099997494,ri12,476.76267099997494,None,467.8542731999769,469.86877469997853,False,3,['p'],True,0.4,0.4,0.0,0.0,1.0,0.6126016192893442,0.0,wait_cost,0,2,473.5987314999802,None,3,ri12,2,2023-03-20_14h04.18.842,threat_forest,2021.2.3,59.887304056691484,
12,0,12,0,3,0,3,0,,,,,,,,,,right,0.9935302999801934,482.9235087999841,ri12,482.9235087999841,None,467.8542731999769,469.86877469997853,False,2,['p'],True,0.4,0.4,0.0,0.0,1.0,0.6126016192893442,-0.6,wait_cost,0,1,480.708694299974,None,2,ri12,2,2023-03-20_14h04.18.842,threat_forest,2021.2.3,59.887304056691484,
12,0,12,0,4,0,4,0,,,,,,,,,,right,0.5808001999976113,488.3685115999542,ri12,483.9393379999674,485.9540320999804,488.3685115999542,None,True,1,['p'],False,0.3333333333333333,0.5,0.3333333333333333,2.0,1.0,1.0,0.3333333333333332,succ_gain,1,2,485.9540320999804,None,1,ri12,2,2023-03-20_14h04.18.842,threat_forest,2021.2.3,59.887304056691484,
12,0,12,0,5,0,5,0,,,,,,,,,,right,0.9317605000105686,492.38141159998486,ri12,492.38141159998486,None,488.96807899995474,490.9824049999588,False,2,['p'],True,0.4,0.4,0.0,0.0,1.0,0.6126016192893442,-0.6,wait_cost,0,1,490.9824049999588,None,2,ri12,2,2023-03-20_14h04.18.842,threat_forest,2021.2.3,59.887304056691484,
12,0,12,0,6,0,6,0,,,,,,,,,,left,1.2325885000173002,497.02790789998835,ri12,497.02790789998835,None,488.96807899995474,490.9824049999588,True,1,['p'],True,0.4,0.4,0.0,0.0,1.0,0.6126016192893442,0.4,succ_gain,0,2,495.3450291999616,None,1,ri12,2,2023-03-20_14h04.18.842,threat_forest,2021.2.3,59.887304056691484,
12,0,12,0,7,0,7,0,,,,,,,,,,left,0.8448538000229746,503.22121920000063,ri12,498.29257039999356,500.3070082999766,503.22121920000063,None,False,2,['p'],False,0.3333333333333333,0.5,0.3333333333333333,2.0,1.0,1.0,-0.6666666666666667,wait_cost,1,1,500.3070082999766,None,2,ri12,2,2023-03-20_14h04.18.842,threat_forest,2021.2.3,59.887304056691484,
12,0,12,0,,,,,,,,,,,,,,,,,,,,,,,,,,,,,,,,,,,,506.1016957999673,None,1,ri12,2,2023-03-20_14h04.18.842,threat_forest,2021.2.3,59.887304056691484,
13,0,13,0,0,0,0,0,,,,,,,509.24514559999807,512.7409524999675,None,right,1.7827900999691337,515.4295525999623,ri12,515.4295525999623,None,509.24514559999807,512.7409524999675,False,5,['r'],True,0.2777777777777778,0.3333333333333333,0.1666666666666666,1.0,2.0,0.8929352898779304,0.0,wait_cost,0,4,,,,ri12,2,2023-03-20_14h04.18.842,threat_forest,2021.2.3,59.887304056691484,
13,0,13,0,1,0,1,0,,,,,,,,,,left,2.933634200016968,522.1238542000065,ri12,517.2415796999703,519.2559915999882,522.1238542000065,None,False,4,['r'],False,0.2,0.2,0.0,0.0,2.0,0.4554859150035951,0.0,wait_cost,1,3,519.2559915999882,None,4,ri12,2,2023-03-20_14h04.18.842,threat_forest,2021.2.3,59.887304056691484,
13,0,13,0,2,0,2,0,,,,,,,,,,left,2.0132386999903247,530.2460638000048,ri12,517.2415796999703,519.2559915999882,530.2460638000048,None,False,3,['r'],False,0.2,0.2,0.0,0.0,2.0,0.4554859150035951,0.0,wait_cost,1,2,527.0986836999655,None,3,ri12,2,2023-03-20_14h04.18.842,threat_forest,2021.2.3,59.887304056691484,
13,0,13,0,3,0,3,0,,,,,,,,,,left,1.3896855000057258,537.6225259999628,ri12,537.6225259999628,None,532.2778428999591,534.2920943999779,True,2,['r'],True,0.2777777777777778,0.3333333333333333,0.1666666666666666,1.0,2.0,0.8929352898779304,-0.7222222222222223,unsucc_cost,0,0,534.2920943999779,None,2,ri12,2,2023-03-20_14h04.18.842,threat_forest,2021.2.3,59.887304056691484,
13,0,13,0,,,,,,,,,,,,,,,,,,,,,,,,,,,,,,,,,,,,541.0523173999973,None,0,ri12,2,2023-03-20_14h04.18.842,threat_forest,2021.2.3,59.887304056691484,
14,0,14,0,0,0,0,0,,,,,,,543.2406306999619,546.7469343999983,None,right,1.214239599998109,548.5956395000103,ri12,548.5956395000103,None,543.2406306999619,546.7469343999983,False,4,['r'],True,0.3333333333333333,0.3333333333333333,0.0,0.0,1.0,0.5793801642856949,0.0,wait_cost,0,3,,,,ri12,2,2023-03-20_14h04.18.842,threat_forest,2021.2.3,59.887304056691484,
14,0,14,0,1,0,1,0,,,,,,,,,,right,1.333781799999997,553.9571998000029,ri12,549.8277138999547,551.8422123999917,553.9571998000029,None,True,3,['r'],False,0.2222222222222222,0.6666666666666666,0.6666666666666666,2.0,1.0,0.77250688571426,-0.6666666666666666,succ_gain,1,4,551.8422123999917,None,3,ri12,2,2023-03-20_14h04.18.842,threat_forest,2021.2.3,59.887304056691484,
14,0,14,0,2,0,2,0,,,,,,,,,,right,1.4553327999892645,558.9527015999774,ri12,558.9527015999774,None,555.3225345999817,557.3371648999746,False,4,['r'],True,0.3333333333333333,0.3333333333333333,0.0,0.0,1.0,0.5793801642856949,0.0,wait_cost,0,3,557.3371648999746,None,4,ri12,2,2023-03-20_14h04.18.842,threat_forest,2021.2.3,59.887304056691484,
14,0,14,0,3,0,3,0,,,,,,,,,,right,2.650133299990557,564.7808928999584,ri12,560.4346440999652,562.4491051000077,564.7808928999584,None,True,3,['r'],False,0.2222222222222222,0.6666666666666666,0.6666666666666666,2.0,1.0,0.77250688571426,-0.6666666666666666,succ_gain,1,4,562.4491051000077,None,3,ri12,2,2023-03-20_14h04.18.842,threat_forest,2021.2.3,59.887304056691484,
14,0,14,0,4,0,4,0,,,,,,,,,,left,2.7104163999902084,572.0408574999892,ri12,560.4346440999652,562.4491051000077,572.0408574999892,None,False,4,['r'],False,0.2222222222222222,0.6666666666666666,0.6666666666666666,2.0,1.0,0.77250688571426,0.0,wait_cost,1,3,569.4757921999553,None,4,ri12,2,2023-03-20_14h04.18.842,threat_forest,2021.2.3,59.887304056691484,
14,0,14,0,5,0,5,0,,,,,,,,,,right,1.7751430999487638,579.700156899984,ri12,579.700156899984,None,574.7711618999601,576.785727999988,False,3,['r'],True,0.3333333333333333,0.3333333333333333,0.0,0.0,1.0,0.5793801642856949,0.0,wait_cost,0,2,576.785727999988,None,3,ri12,2,2023-03-20_14h04.18.842,threat_forest,2021.2.3,59.887304056691484,
14,0,14,0,6,0,6,0,,,,,,,,,,left,2.3651565000182018,584.5453613999998,ri12,581.4985395999975,583.512719899998,584.5453613999998,None,False,2,['r'],False,0.2222222222222222,0.6666666666666666,0.6666666666666666,2.0,1.0,0.77250688571426,-0.7777777777777778,wait_cost,1,1,583.512719899998,None,2,ri12,2,2023-03-20_14h04.18.842,threat_forest,2021.2.3,59.887304056691484,
14,0,14,0,7,0,7,0,,,,,,,,,,left,0.8003805000334978,590.189974399982,ri12,590.189974399982,None,586.9431302999728,588.9575685999589,True,1,['r'],True,0.3333333333333333,0.3333333333333333,0.0,0.0,1.0,0.5793801642856949,0.3333333333333332,succ_gain,0,2,588.9575685999589,None,1,ri12,2,2023-03-20_14h04.18.842,threat_forest,2021.2.3,59.887304056691484,
14,0,14,0,,,,,,,,,,,,,,,,,,,,,,,,,,,,,,,,,,,,593.0372080999659,None,2,ri12,2,2023-03-20_14h04.18.842,threat_forest,2021.2.3,59.887304056691484,
15,0,15,0,0,0,0,0,,,,,,,593.7601842999575,597.2665609999676,None,left,1.7546331999474205,597.8537281999597,ri12,593.7601842999575,597.2665609999676,597.8537281999597,None,False,5,['p'],False,0.28125,0.375,0.25,2.0,2.0,0.9634951148421658,0.0,wait_cost,1,4,,,,ri12,2,2023-03-20_14h04.18.842,threat_forest,2021.2.3,59.887304056691484,
15,0,15,0,1,0,1,0,,,,,,,,,,left,1.5927033000043593,603.8608178999857,ri12,593.7601842999575,597.2665609999676,603.8608178999857,None,False,4,['p'],False,0.28125,0.375,0.25,2.0,2.0,0.9634951148421658,0.0,wait_cost,1,3,601.6457577999681,None,4,ri12,2,2023-03-20_14h04.18.842,threat_forest,2021.2.3,59.887304056691484,
15,0,15,0,2,0,2,0,,,,,,,,,,right,2.524572500027716,610.6544115999714,ri12,593.7601842999575,597.2665609999676,610.6544115999714,None,True,3,['p'],False,0.28125,0.375,0.25,2.0,2.0,0.9634951148421658,-0.25,unsucc_cost,1,1,607.4903007000103,None,3,ri12,2,2023-03-20_14h04.18.842,threat_forest,2021.2.3,59.887304056691484,
15,0,15,0,3,0,3,0,,,,,,,,,,right,2.0075348999816924,617.964290999982,ri12,593.7601842999575,597.2665609999676,617.964290999982,None,True,1,['p'],False,0.28125,0.375,0.25,2.0,2.0,0.9634951148421658,0.28125,fight_cost,1,0,615.2164129999583,None,1,ri12,2,2023-03-20_14h04.18.842,threat_forest,2021.2.3,59.887304056691484,
15,0,15,0,,,,,,,,,,,,,,,,,,,,,,,,,,,,,,,,,,,,622.0102211000049,None,0,ri12,2,2023-03-20_14h04.18.842,threat_forest,2021.2.3,59.887304056691484,
16,0,16,0,0,0,0,0,,,,,,,623.867354499991,627.3717327999766,None,left,1.0763677000068128,630.9699294999591,ri12,623.867354499991,627.3717327999766,630.9699294999591,None,False,5,['p'],False,0.2448979591836734,0.2857142857142857,0.1428571428571428,1.0,1.0,0.8400769154957735,0.0,wait_cost,1,4,,,,ri12,2,2023-03-20_14h04.18.842,threat_forest,2021.2.3,59.887304056691484,
16,0,16,0,1,0,1,0,,,,,,,,,,left,2.2676187999895774,637.2797345999861,ri12,623.867354499991,627.3717327999766,637.2797345999861,None,False,4,['p'],False,0.2448979591836734,0.2857142857142857,0.1428571428571428,1.0,1.0,0.8400769154957735,0.0,wait_cost,1,3,634.082024400006,None,4,ri12,2,2023-03-20_14h04.18.842,threat_forest,2021.2.3,59.887304056691484,
16,0,16,0,2,0,2,0,,,,,,,,,,left,2.234357299981639,644.589465899975,ri12,623.867354499991,627.3717327999766,644.589465899975,None,False,3,['p'],False,0.2448979591836734,0.2857142857142857,0.1428571428571428,1.0,1.0,0.8400769154957735,-0.1428571428571428,wait_cost,1,2,641.5917410000111,None,3,ri12,2,2023-03-20_14h04.18.842,threat_forest,2021.2.3,59.887304056691484,
16,0,16,0,3,0,3,0,,,,,,,,,,None,,651.3507004999556,ri12,651.3507004999556,None,646.8539665999706,648.868262199976,None,2,['p'],True,0.375,0.5,0.25,1.0,1.0,0.9850568223215076,-0.625,wait_cost,0,1,648.868262199976,None,2,ri12,2,2023-03-20_14h04.18.842,threat_forest,2021.2.3,59.887304056691484,
16,0,16,0,4,0,4,0,,,,,,,,,,left,1.14819219999481,658.6427734000026,ri12,658.6427734000026,None,646.8539665999706,648.868262199976,True,1,['p'],True,0.375,0.5,0.25,1.0,1.0,0.9850568223215076,0.375,fight_cost,0,0,656.3780508000054,None,1,ri12,2,2023-03-20_14h04.18.842,threat_forest,2021.2.3,59.887304056691484,
16,0,16,0,,,,,,,,,,,,,,,,,,,,,,,,,,,,,,,,,,,,661.8231099999975,None,0,ri12,2,2023-03-20_14h04.18.842,threat_forest,2021.2.3,59.887304056691484,
17,0,17,0,0,0,0,0,,,,,,,663.5597790000029,667.0679621999734,None,right,2.0836160000180826,670.7149502999964,ri12,663.5597790000029,667.0679621999734,670.7149502999964,None,True,4,['p'],False,0.36,0.6,0.4,2.0,1.0,0.9801625908629508,0.0,unsucc_cost,1,2,,,,ri12,2,2023-03-20_14h04.18.842,threat_forest,2021.2.3,59.887304056691484,
17,0,17,0,1,0,1,0,,,,,,,,,,right,1.3262362999957986,676.859403999988,ri12,676.859403999988,None,672.8296175999567,674.8441089999978,False,2,['p'],True,0.5,0.5,0.0,0.0,1.0,0.6309297535714574,-0.5,wait_cost,0,1,674.8441089999978,None,2,ri12,2,2023-03-20_14h04.18.842,threat_forest,2021.2.3,59.887304056691484,
17,0,17,0,2,0,2,0,,,,,,,,,,right,0.6152519999886863,682.2041742999572,ri12,678.2080831999774,680.2224660000065,682.2041742999572,None,True,1,['p'],False,0.36,0.6,0.4,2.0,1.0,0.9801625908629508,0.36,succ_gain,1,2,680.2224660000065,None,1,ri12,2,2023-03-20_14h04.18.842,threat_forest,2021.2.3,59.887304056691484,
17,0,17,0,3,0,3,0,,,,,,,,,,right,1.9701218999689445,688.3489373999764,ri12,678.2080831999774,680.2224660000065,688.3489373999764,None,True,2,['p'],False,0.36,0.6,0.4,2.0,1.0,0.9801625908629508,-0.64,succ_gain,1,3,684.8514624999953,None,2,ri12,2,2023-03-20_14h04.18.842,threat_forest,2021.2.3,59.887304056691484,
17,0,17,0,4,0,4,0,,,,,,,,,,right,1.135896399966441,695.2279980999883,ri12,695.2279980999883,None,690.3469687000033,692.3611269000103,False,3,['p'],True,0.5,0.5,0.0,0.0,1.0,0.6309297535714574,0.0,wait_cost,0,2,692.3611269000103,None,3,ri12,2,2023-03-20_14h04.18.842,threat_forest,2021.2.3,59.887304056691484,
17,0,17,0,5,0,5,0,,,,,,,,,,right,1.34004569996614,701.8028957999777,ri12,696.3909695000038,698.4055420999648,701.8028957999777,None,True,2,['p'],False,0.36,0.6,0.4,2.0,1.0,0.9801625908629508,-0.64,unsucc_cost,1,0,698.4055420999648,None,2,ri12,2,2023-03-20_14h04.18.842,threat_forest,2021.2.3,59.887304056691484,
17,0,17,0,,,,,,,,,,,,,,,,,,,,,,,,,,,,,,,,,,,,705.1825346999685,None,0,ri12,2,2023-03-20_14h04.18.842,threat_forest,2021.2.3,59.887304056691484,
