miniblock.thisRepN,miniblock.thisTrialN,miniblock.thisN,miniblock.thisIndex,day.thisRepN,day.thisTrialN,day.thisN,day.thisIndex,welcoming.started,welcoming.stopped,key_resp_2.keys,key_resp_2.rt,key_resp_2.started,key_resp_2.stopped,forest.started,fixation_forest.started,fixation_forest.stopped,key_resp.keys,key_resp.rt,key_resp.started,Subject_ID,weather_left.started,weather_left.stopped,weather_right.started,weather_right.stopped,foraging T/F,in_LP,p/r heuristic,good_weather.T/F,p_succ_correct,p_succ_uncorrected,r_threat,n_oponents,gain_if_succ,weather_entropy,OP_value_difference,action_outcome,forest_side_L=0_R=1,out_LP,fixation_day.started,fixation_day.stopped,n_day-1.out_LP.,participant,session,date,expName,psychopyVersion,frameRate,
,,,,,,,,9.41484785079956,None,space,4.5470662117004395,9.41484785079956,None,,,,,,,,,,,,,,,,,,,,,,,,,,,,,pt3,3,2023-03-30_12h09.55.161,threat_forest,2021.2.3,59.59291074782687,
0,0,0,0,0,0,0,0,,,,,,,14.016970872879028,17.52113389968872,None,right,1.1878700256347656,20.383603811264038,pt3,14.016970872879028,17.52113389968872,20.383603811264038,None,True,5,['p'],False,0.4081632653061224,0.5714285714285714,0.2857142857142857,2.0,1.0,0.9885754083994552,0.0,fight_cost,1,2,,,,pt3,3,2023-03-30_12h09.55.161,threat_forest,2021.2.3,59.59291074782687,
0,0,0,0,1,0,1,0,,,,,,,,,,left,1.0068590641021729,26.999404907226562,pt3,26.999404907226562,None,21.595927000045776,23.595046997070312,True,2,['p'],True,0.5,0.5,0.0,0.0,1.0,0.6309297535714574,-0.5,succ_gain,0,3,23.595046997070312,None,2,pt3,3,2023-03-30_12h09.55.161,threat_forest,2021.2.3,59.59291074782687,
0,0,0,0,2,0,2,0,,,,,,,,,,left,1.4631168842315674,33.72482895851135,pt3,28.043835878372192,30.05626893043518,33.72482895851135,None,False,3,['p'],False,0.4081632653061224,0.5714285714285714,0.2857142857142857,2.0,1.0,0.9885754083994552,-0.2857142857142857,wait_cost,1,2,30.05626893043518,None,3,pt3,3,2023-03-30_12h09.55.161,threat_forest,2021.2.3,59.59291074782687,
0,0,0,0,3,0,3,0,,,,,,,,,,left,1.469252109527588,39.07722878456116,pt3,28.043835878372192,30.05626893043518,39.07722878456116,None,False,2,['p'],False,0.4081632653061224,0.5714285714285714,0.2857142857142857,2.0,1.0,0.9885754083994552,-0.5918367346938775,wait_cost,1,1,37.226839780807495,None,2,pt3,3,2023-03-30_12h09.55.161,threat_forest,2021.2.3,59.59291074782687,
0,0,0,0,4,0,4,0,,,,,,,,,,right,1.0906810760498047,45.85314083099365,pt3,28.043835878372192,30.05626893043518,45.85314083099365,None,True,1,['p'],False,0.4081632653061224,0.5714285714285714,0.2857142857142857,2.0,1.0,0.9885754083994552,0.4081632653061224,succ_gain,1,2,42.58328700065613,None,1,pt3,3,2023-03-30_12h09.55.161,threat_forest,2021.2.3,59.59291074782687,
0,0,0,0,5,0,5,0,,,,,,,,,,left,1.2449240684509277,50.20902991294861,pt3,50.20902991294861,None,46.97706890106201,48.990195989608765,True,2,['p'],True,0.5,0.5,0.0,0.0,1.0,0.6309297535714574,-0.5,succ_gain,0,3,48.990195989608765,None,2,pt3,3,2023-03-30_12h09.55.161,threat_forest,2021.2.3,59.59291074782687,
0,0,0,0,6,0,6,0,,,,,,,,,,right,1.0637431144714355,56.29480791091919,pt3,56.29480791091919,None,46.97706890106201,48.990195989608765,False,3,['p'],True,0.5,0.5,0.0,0.0,1.0,0.6309297535714574,0.0,wait_cost,0,2,53.495640993118286,None,3,pt3,3,2023-03-30_12h09.55.161,threat_forest,2021.2.3,59.59291074782687,
0,0,0,0,7,0,7,0,,,,,,,,,,left,0.7102301120758057,62.48957896232605,pt3,57.39217400550842,59.402328968048096,62.48957896232605,None,False,2,['p'],False,0.4081632653061224,0.5714285714285714,0.2857142857142857,2.0,1.0,0.9885754083994552,-0.5918367346938775,wait_cost,1,1,59.402328968048096,None,2,pt3,3,2023-03-30_12h09.55.161,threat_forest,2021.2.3,59.59291074782687,
0,0,0,0,,,,,,,,,,,,,,,,,,,,,,,,,,,,,,,,,,,,65.22706985473633,None,1,pt3,3,2023-03-30_12h09.55.161,threat_forest,2021.2.3,59.59291074782687,
1,0,1,0,0,0,0,0,,,,,,,67.61102390289307,71.12824082374573,None,left,2.3395822048187256,72.30899500846863,pt3,67.61102390289307,71.12824082374573,72.30899500846863,None,False,4,['p'],False,0.21875,0.25,0.125,1.0,1.0,0.7908280489481783,0.0,wait_cost,1,3,,,,pt3,3,2023-03-30_12h09.55.161,threat_forest,2021.2.3,59.59291074782687,
1,0,1,0,1,0,1,0,,,,,,,,,,right,1.1836369037628174,77.44933891296387,pt3,77.44933891296387,None,74.67429900169373,76.68827199935913,False,3,['p'],True,0.32,0.4,0.2,1.0,1.0,0.9455672104350704,-0.2,wait_cost,0,2,76.68827199935913,None,3,pt3,3,2023-03-30_12h09.55.161,threat_forest,2021.2.3,59.59291074782687,
1,0,1,0,2,0,2,0,,,,,,,,,,right,1.5928499698638916,83.69695782661438,pt3,78.66300988197327,80.67613983154297,83.69695782661438,None,True,2,['p'],False,0.21875,0.25,0.125,1.0,1.0,0.7908280489481783,-0.78125,unsucc_cost,1,0,80.67613983154297,None,2,pt3,3,2023-03-30_12h09.55.161,threat_forest,2021.2.3,59.59291074782687,
1,0,1,0,,,,,,,,,,,,,,,,,,,,,,,,,,,,,,,,,,,,87.33663082122803,None,0,pt3,3,2023-03-30_12h09.55.161,threat_forest,2021.2.3,59.59291074782687,
2,0,2,0,0,0,0,0,,,,,,,89.32323980331421,92.82282495498657,None,left,1.7597801685333252,94.5674409866333,pt3,94.5674409866333,None,89.32323980331421,92.82282495498657,True,4,['r'],True,0.375,0.5,0.25,1.0,2.0,0.9850568223215076,0.0,fight_cost,0,1,,,,pt3,3,2023-03-30_12h09.55.161,threat_forest,2021.2.3,59.59291074782687,
2,0,2,0,1,0,1,0,,,,,,,,,,left,1.3625679016113281,101.87851190567017,pt3,101.87851190567017,None,89.32323980331421,92.82282495498657,True,1,['r'],True,0.375,0.5,0.25,1.0,2.0,0.9850568223215076,0.375,succ_gain,0,3,98.36309599876404,None,1,pt3,3,2023-03-30_12h09.55.161,threat_forest,2021.2.3,59.59291074782687,
2,0,2,0,2,0,2,0,,,,,,,,,,left,1.188359022140503,108.42124080657959,pt3,103.27147078514099,105.27115893363953,108.42124080657959,None,False,3,['r'],False,0.2592592592592592,0.3333333333333333,0.2222222222222222,2.0,2.0,0.9327883776363324,-0.2222222222222222,wait_cost,1,2,105.27115893363953,None,3,pt3,3,2023-03-30_12h09.55.161,threat_forest,2021.2.3,59.59291074782687,
2,0,2,0,3,0,3,0,,,,,,,,,,left,1.4031100273132324,113.08082890510559,pt3,113.08082890510559,None,109.63006281852722,111.64458799362183,True,2,['r'],True,0.375,0.5,0.25,1.0,2.0,0.9850568223215076,-0.625,fight_cost,0,0,111.64458799362183,None,2,pt3,3,2023-03-30_12h09.55.161,threat_forest,2021.2.3,59.59291074782687,
2,0,2,0,,,,,,,,,,,,,,,,,,,,,,,,,,,,,,,,,,,,116.53725481033325,None,0,pt3,3,2023-03-30_12h09.55.161,threat_forest,2021.2.3,59.59291074782687,
3,0,3,0,0,0,0,0,,,,,,,118.80555891990662,122.30608892440796,None,right,1.895453929901123,125.27052593231201,pt3,125.27052593231201,None,118.80555891990662,122.30608892440796,False,4,['r'],True,0.3333333333333333,0.3333333333333333,0.0,0.0,2.0,0.5793801642856949,0.0,wait_cost,0,3,,,,pt3,3,2023-03-30_12h09.55.161,threat_forest,2021.2.3,59.59291074782687,
3,0,3,0,1,0,1,0,,,,,,,,,,right,1.1092369556427002,131.19223880767822,pt3,127.2187249660492,129.23089694976807,131.19223880767822,None,True,3,['r'],False,0.28125,0.375,0.25,2.0,2.0,0.9634951148421658,-0.25,unsucc_cost,1,1,129.23089694976807,None,3,pt3,3,2023-03-30_12h09.55.161,threat_forest,2021.2.3,59.59291074782687,
3,0,3,0,2,0,2,0,,,,,,,,,,left,0.6958491802215576,136.6344759464264,pt3,136.6344759464264,None,132.32196593284607,134.32656693458557,True,1,['r'],True,0.3333333333333333,0.3333333333333333,0.0,0.0,2.0,0.5793801642856949,0.3333333333333332,succ_gain,0,3,134.32656693458557,None,1,pt3,3,2023-03-30_12h09.55.161,threat_forest,2021.2.3,59.59291074782687,
3,0,3,0,3,0,3,0,,,,,,,,,,left,0.9955301284790039,140.49413299560547,pt3,140.49413299560547,None,132.32196593284607,134.32656693458557,True,3,['r'],True,0.3333333333333333,0.3333333333333333,0.0,0.0,2.0,0.5793801642856949,0.0,unsucc_cost,0,1,139.3757288455963,None,3,pt3,3,2023-03-30_12h09.55.161,threat_forest,2021.2.3,59.59291074782687,
3,0,3,0,4,0,4,0,,,,,,,,,,right,1.334604024887085,145.3138029575348,pt3,141.51756501197815,143.53011679649353,145.3138029575348,None,True,1,['r'],False,0.28125,0.375,0.25,2.0,2.0,0.9634951148421658,0.28125,succ_gain,1,3,143.53011679649353,None,1,pt3,3,2023-03-30_12h09.55.161,threat_forest,2021.2.3,59.59291074782687,
3,0,3,0,5,0,5,0,,,,,,,,,,right,1.4203510284423828,151.6034598350525,pt3,141.51756501197815,143.53011679649353,151.6034598350525,None,True,3,['r'],False,0.28125,0.375,0.25,2.0,2.0,0.9634951148421658,-0.25,succ_gain,1,5,148.68649888038635,None,3,pt3,3,2023-03-30_12h09.55.161,threat_forest,2021.2.3,59.59291074782687,
3,0,3,0,6,0,6,0,,,,,,,,,,right,0.6249940395355225,158.19814085960388,pt3,158.19814085960388,None,153.0475549697876,155.06040692329407,False,5,['r'],True,0.3333333333333333,0.3333333333333333,0.0,0.0,2.0,0.5793801642856949,0.0,wait_cost,0,4,155.06040692329407,None,5,pt3,3,2023-03-30_12h09.55.161,threat_forest,2021.2.3,59.59291074782687,
3,0,3,0,7,0,7,0,,,,,,,,,,right,0.6042091846466064,161.75192999839783,pt3,161.75192999839783,None,153.0475549697876,155.06040692329407,False,4,['r'],True,0.3333333333333333,0.3333333333333333,0.0,0.0,2.0,0.5793801642856949,0.0,wait_cost,0,3,160.85033583641052,None,4,pt3,3,2023-03-30_12h09.55.161,threat_forest,2021.2.3,59.59291074782687,
3,0,3,0,,,,,,,,,,,,,,,,,,,,,,,,,,,,,,,,,,,,164.38700795173645,None,3,pt3,3,2023-03-30_12h09.55.161,threat_forest,2021.2.3,59.59291074782687,
4,0,4,0,0,0,0,0,,,,,,,165.23884201049805,168.74185585975647,None,left,0.812687873840332,169.49433183670044,pt3,169.49433183670044,None,165.23884201049805,168.74185585975647,True,5,['p'],True,0.5,0.5,0.0,0.0,1.0,0.6309297535714574,0.0,unsucc_cost,0,3,,,,pt3,3,2023-03-30_12h09.55.161,threat_forest,2021.2.3,59.59291074782687,
4,0,4,0,1,0,1,0,,,,,,,,,,left,1.0992710590362549,175.76637482643127,pt3,170.32752299308777,172.32994294166565,175.76637482643127,None,False,3,['p'],False,0.2222222222222222,0.6666666666666666,0.6666666666666666,2.0,1.0,0.77250688571426,-0.6666666666666666,wait_cost,1,2,172.32994294166565,None,3,pt3,3,2023-03-30_12h09.55.161,threat_forest,2021.2.3,59.59291074782687,
4,0,4,0,2,0,2,0,,,,,,,,,,left,1.0047211647033691,179.68819499015808,pt3,179.68819499015808,None,176.888121843338,178.88695192337036,True,2,['p'],True,0.5,0.5,0.0,0.0,1.0,0.6309297535714574,-0.5,unsucc_cost,0,0,178.88695192337036,None,2,pt3,3,2023-03-30_12h09.55.161,threat_forest,2021.2.3,59.59291074782687,
4,0,4,0,,,,,,,,,,,,,,,,,,,,,,,,,,,,,,,,,,,,182.7472698688507,None,0,pt3,3,2023-03-30_12h09.55.161,threat_forest,2021.2.3,59.59291074782687,
5,0,5,0,0,0,0,0,,,,,,,185.51612496376038,189.01494884490967,None,left,0.7149860858917236,191.3612298965454,pt3,191.3612298965454,None,185.51612496376038,189.01494884490967,True,5,['r'],True,0.375,0.5,0.25,1.0,1.0,0.9850568223215076,0.0,unsucc_cost,0,3,,,,pt3,3,2023-03-30_12h09.55.161,threat_forest,2021.2.3,59.59291074782687,
5,0,5,0,1,0,1,0,,,,,,,,,,left,1.039283037185669,197.60634899139404,pt3,197.60634899139404,None,185.51612496376038,189.01494884490967,True,3,['r'],True,0.375,0.5,0.25,1.0,1.0,0.9850568223215076,-0.25,succ_gain,0,4,194.12109684944153,None,3,pt3,3,2023-03-30_12h09.55.161,threat_forest,2021.2.3,59.59291074782687,
5,0,5,0,2,0,2,0,,,,,,,,,,left,0.7637009620666504,204.34075284004211,pt3,198.68406796455383,200.69491291046143,204.34075284004211,None,False,4,['r'],False,0.24,0.3,0.2,2.0,1.0,0.9003120349047065,0.0,wait_cost,1,3,200.69491291046143,None,4,pt3,3,2023-03-30_12h09.55.161,threat_forest,2021.2.3,59.59291074782687,
5,0,5,0,3,0,3,0,,,,,,,,,,left,0.802462100982666,207.819011926651,pt3,207.819011926651,None,205.13347697257996,207.1437168121338,True,3,['r'],True,0.375,0.5,0.25,1.0,1.0,0.9850568223215076,-0.25,unsucc_cost,0,1,207.1437168121338,None,3,pt3,3,2023-03-30_12h09.55.161,threat_forest,2021.2.3,59.59291074782687,
5,0,5,0,4,0,4,0,,,,,,,,,,left,0.6956601142883301,212.3376669883728,pt3,212.3376669883728,None,205.13347697257996,207.1437168121338,True,1,['r'],True,0.375,0.5,0.25,1.0,1.0,0.9850568223215076,0.375,succ_gain,0,2,210.65650582313538,None,1,pt3,3,2023-03-30_12h09.55.161,threat_forest,2021.2.3,59.59291074782687,
5,0,5,0,5,0,5,0,,,,,,,,,,left,0.8148870468139648,218.17789793014526,pt3,218.17789793014526,None,205.13347697257996,207.1437168121338,True,2,['r'],True,0.375,0.5,0.25,1.0,1.0,0.9850568223215076,-0.625,fight_cost,0,0,215.0649847984314,None,2,pt3,3,2023-03-30_12h09.55.161,threat_forest,2021.2.3,59.59291074782687,
5,0,5,0,,,,,,,,,,,,,,,,,,,,,,,,,,,,,,,,,,,,221.0174868106842,None,0,pt3,3,2023-03-30_12h09.55.161,threat_forest,2021.2.3,59.59291074782687,
6,0,6,0,0,0,0,0,,,,,,,223.42183995246887,226.92447781562805,None,right,0.7460479736328125,228.95286989212036,pt3,223.42183995246887,226.92447781562805,228.95286989212036,None,True,5,['p'],False,0.2448979591836734,0.2857142857142857,0.1428571428571428,1.0,2.0,0.8400769154957735,0.0,succ_gain,1,6,,,,pt3,3,2023-03-30_12h09.55.161,threat_forest,2021.2.3,59.59291074782687,
6,0,6,0,1,0,1,0,,,,,,,,,,left,0.508979082107544,234.28202295303345,pt3,223.42183995246887,226.92447781562805,234.28202295303345,None,False,6,['p'],False,0.2448979591836734,0.2857142857142857,0.1428571428571428,1.0,2.0,0.8400769154957735,0.0,wait_cost,1,5,231.746435880661,None,6,pt3,3,2023-03-30_12h09.55.161,threat_forest,2021.2.3,59.59291074782687,
6,0,6,0,2,0,2,0,,,,,,,,,,right,0.8864831924438477,238.88671493530273,pt3,223.42183995246887,226.92447781562805,238.88671493530273,None,True,5,['p'],False,0.2448979591836734,0.2857142857142857,0.1428571428571428,1.0,2.0,0.8400769154957735,0.0,fight_cost,1,2,236.83559679985046,None,5,pt3,3,2023-03-30_12h09.55.161,threat_forest,2021.2.3,59.59291074782687,
6,0,6,0,3,0,3,0,,,,,,,,,,left,0.9026529788970947,242.66266298294067,pt3,242.66266298294067,None,239.7936658859253,241.80793285369873,True,2,['p'],True,0.375,0.5,0.25,1.0,2.0,0.9850568223215076,-0.625,fight_cost,0,0,241.80793285369873,None,2,pt3,3,2023-03-30_12h09.55.161,threat_forest,2021.2.3,59.59291074782687,
6,0,6,0,,,,,,,,,,,,,,,,,,,,,,,,,,,,,,,,,,,,245.61591577529907,None,0,pt3,3,2023-03-30_12h09.55.161,threat_forest,2021.2.3,59.59291074782687,
7,0,7,0,0,0,0,0,,,,,,,246.48479080200195,249.99102091789246,None,left,1.0061979293823242,251.64736795425415,pt3,246.48479080200195,249.99102091789246,251.64736795425415,None,False,5,['p'],False,0.46875,0.625,0.25,2.0,1.0,0.9634951148421658,0.0,wait_cost,1,4,,,,pt3,3,2023-03-30_12h09.55.161,threat_forest,2021.2.3,59.59291074782687,
7,0,7,0,1,0,1,0,,,,,,,,,,left,1.139997959136963,258.0278959274292,pt3,258.0278959274292,None,252.6734778881073,254.67261385917664,True,4,['p'],True,0.6,0.6,0.0,0.0,1.0,0.6126016192893442,0.0,succ_gain,0,5,254.67261385917664,None,4,pt3,3,2023-03-30_12h09.55.161,threat_forest,2021.2.3,59.59291074782687,
7,0,7,0,2,0,2,0,,,,,,,,,,left,0.8475639820098877,264.82869386672974,pt3,264.82869386672974,None,252.6734778881073,254.67261385917664,True,5,['p'],True,0.6,0.6,0.0,0.0,1.0,0.6126016192893442,0.0,succ_gain,0,6,261.21346282958984,None,5,pt3,3,2023-03-30_12h09.55.161,threat_forest,2021.2.3,59.59291074782687,
7,0,7,0,3,0,3,0,,,,,,,,,,right,1.1749200820922852,270.6411910057068,pt3,270.6411910057068,None,252.6734778881073,254.67261385917664,False,6,['p'],True,0.6,0.6,0.0,0.0,1.0,0.6126016192893442,0.0,wait_cost,0,5,267.7202789783478,None,6,pt3,3,2023-03-30_12h09.55.161,threat_forest,2021.2.3,59.59291074782687,
7,0,7,0,4,0,4,0,,,,,,,,,,right,0.7041702270507812,275.9256548881531,pt3,275.9256548881531,None,252.6734778881073,254.67261385917664,False,5,['p'],True,0.6,0.6,0.0,0.0,1.0,0.6126016192893442,0.0,wait_cost,0,4,273.8443169593811,None,5,pt3,3,2023-03-30_12h09.55.161,threat_forest,2021.2.3,59.59291074782687,
7,0,7,0,5,0,5,0,,,,,,,,,,right,0.7976839542388916,280.6184539794922,pt3,280.6184539794922,None,252.6734778881073,254.67261385917664,False,4,['p'],True,0.6,0.6,0.0,0.0,1.0,0.6126016192893442,0.0,wait_cost,0,3,278.6626629829407,None,4,pt3,3,2023-03-30_12h09.55.161,threat_forest,2021.2.3,59.59291074782687,
7,0,7,0,6,0,6,0,,,,,,,,,,left,0.7104198932647705,285.88431096076965,pt3,281.4426198005676,283.45510482788086,285.88431096076965,None,False,3,['p'],False,0.46875,0.625,0.25,2.0,1.0,0.9634951148421658,-0.25,wait_cost,1,2,283.45510482788086,None,3,pt3,3,2023-03-30_12h09.55.161,threat_forest,2021.2.3,59.59291074782687,
7,0,7,0,7,0,7,0,,,,,,,,,,left,0.9937281608581543,291.1096839904785,pt3,281.4426198005676,283.45510482788086,291.1096839904785,None,False,2,['p'],False,0.46875,0.625,0.25,2.0,1.0,0.9634951148421658,-0.53125,wait_cost,1,1,288.6442799568176,None,2,pt3,3,2023-03-30_12h09.55.161,threat_forest,2021.2.3,59.59291074782687,
7,0,7,0,,,,,,,,,,,,,,,,,,,,,,,,,,,,,,,,,,,,294.1443200111389,None,1,pt3,3,2023-03-30_12h09.55.161,threat_forest,2021.2.3,59.59291074782687,
8,0,8,0,0,0,0,0,,,,,,,295.52988481521606,299.0393669605255,None,right,1.11350679397583,300.71964979171753,pt3,300.71964979171753,None,295.52988481521606,299.0393669605255,False,4,['r'],True,0.5,0.5,0.0,0.0,2.0,0.6309297535714574,0.0,wait_cost,0,3,,,,pt3,3,2023-03-30_12h09.55.161,threat_forest,2021.2.3,59.59291074782687,
8,0,8,0,1,0,1,0,,,,,,,,,,right,1.9774539470672607,305.1133668422699,pt3,305.1133668422699,None,295.52988481521606,299.0393669605255,False,3,['r'],True,0.5,0.5,0.0,0.0,2.0,0.6309297535714574,0.0,wait_cost,0,2,303.8610608577728,None,3,pt3,3,2023-03-30_12h09.55.161,threat_forest,2021.2.3,59.59291074782687,
8,0,8,0,2,0,2,0,,,,,,,,,,right,0.9510748386383057,310.1613759994507,pt3,310.1613759994507,None,295.52988481521606,299.0393669605255,False,2,['r'],True,0.5,0.5,0.0,0.0,2.0,0.6309297535714574,-0.5,wait_cost,0,1,309.1173288822174,None,2,pt3,3,2023-03-30_12h09.55.161,threat_forest,2021.2.3,59.59291074782687,
8,0,8,0,3,0,3,0,,,,,,,,,,right,0.8192341327667236,314.20680499076843,pt3,311.14181780815125,313.15516996383667,314.20680499076843,None,True,1,['r'],False,0.4081632653061224,0.5714285714285714,0.2857142857142857,2.0,2.0,0.9885754083994552,0.4081632653061224,succ_gain,1,3,313.15516996383667,None,1,pt3,3,2023-03-30_12h09.55.161,threat_forest,2021.2.3,59.59291074782687,
8,0,8,0,4,0,4,0,,,,,,,,,,right,0.5784029960632324,317.6103858947754,pt3,311.14181780815125,313.15516996383667,317.6103858947754,None,True,3,['r'],False,0.4081632653061224,0.5714285714285714,0.2857142857142857,2.0,2.0,0.9885754083994552,-0.2857142857142857,succ_gain,1,5,317.0764088630676,None,3,pt3,3,2023-03-30_12h09.55.161,threat_forest,2021.2.3,59.59291074782687,
8,0,8,0,5,0,5,0,,,,,,,,,,left,1.553635835647583,322.6275758743286,pt3,311.14181780815125,313.15516996383667,322.6275758743286,None,False,5,['r'],False,0.4081632653061224,0.5714285714285714,0.2857142857142857,2.0,2.0,0.9885754083994552,0.0,wait_cost,1,4,320.22993183135986,None,5,pt3,3,2023-03-30_12h09.55.161,threat_forest,2021.2.3,59.59291074782687,
8,0,8,0,6,0,6,0,,,,,,,,,,left,0.7237081527709961,329.26624298095703,pt3,311.14181780815125,313.15516996383667,329.26624298095703,None,False,4,['r'],False,0.4081632653061224,0.5714285714285714,0.2857142857142857,2.0,2.0,0.9885754083994552,0.0,wait_cost,1,3,326.2193968296051,None,4,pt3,3,2023-03-30_12h09.55.161,threat_forest,2021.2.3,59.59291074782687,
8,0,8,0,7,0,7,0,,,,,,,,,,left,0.9838941097259521,335.62804985046387,pt3,311.14181780815125,313.15516996383667,335.62804985046387,None,False,3,['r'],False,0.4081632653061224,0.5714285714285714,0.2857142857142857,2.0,2.0,0.9885754083994552,-0.2857142857142857,wait_cost,1,2,332.0099108219147,None,3,pt3,3,2023-03-30_12h09.55.161,threat_forest,2021.2.3,59.59291074782687,
8,0,8,0,,,,,,,,,,,,,,,,,,,,,,,,,,,,,,,,,,,,338.653048992157,None,2,pt3,3,2023-03-30_12h09.55.161,threat_forest,2021.2.3,59.59291074782687,
9,0,9,0,0,0,0,0,,,,,,,342.4510087966919,345.9585738182068,None,right,0.6013550758361816,347.67024993896484,pt3,347.67024993896484,None,342.4510087966919,345.9585738182068,False,4,['r'],True,0.5,0.5,0.0,0.0,2.0,0.6309297535714574,0.0,wait_cost,0,3,,,,pt3,3,2023-03-30_12h09.55.161,threat_forest,2021.2.3,59.59291074782687,
9,0,9,0,1,0,1,0,,,,,,,,,,right,0.5412449836730957,352.18275594711304,pt3,348.29866790771484,350.3138928413391,352.18275594711304,None,True,3,['r'],False,0.2222222222222222,0.6666666666666666,0.6666666666666666,2.0,2.0,0.77250688571426,-0.6666666666666666,unsucc_cost,1,1,350.3138928413391,None,3,pt3,3,2023-03-30_12h09.55.161,threat_forest,2021.2.3,59.59291074782687,
9,0,9,0,2,0,2,0,,,,,,,,,,left,1.4462511539459229,357.3262429237366,pt3,357.3262429237366,None,352.76019978523254,354.76921486854553,True,1,['r'],True,0.5,0.5,0.0,0.0,2.0,0.6309297535714574,0.5,fight_cost,0,0,354.76921486854553,None,1,pt3,3,2023-03-30_12h09.55.161,threat_forest,2021.2.3,59.59291074782687,
9,0,9,0,,,,,,,,,,,,,,,,,,,,,,,,,,,,,,,,,,,,360.7938928604126,None,0,pt3,3,2023-03-30_12h09.55.161,threat_forest,2021.2.3,59.59291074782687,
10,0,10,0,0,0,0,0,,,,,,,364.53378081321716,368.0360038280487,None,left,0.8044929504394531,370.9000189304352,pt3,370.9000189304352,None,364.53378081321716,368.0360038280487,True,4,['r'],True,0.4444444444444445,0.6666666666666666,0.3333333333333333,1.0,2.0,0.9656336071428248,0.0,fight_cost,0,1,,,,pt3,3,2023-03-30_12h09.55.161,threat_forest,2021.2.3,59.59291074782687,
10,0,10,0,1,0,1,0,,,,,,,,,,left,0.7514359951019287,375.99382400512695,pt3,375.99382400512695,None,364.53378081321716,368.0360038280487,True,1,['r'],True,0.4444444444444445,0.6666666666666666,0.3333333333333333,1.0,2.0,0.9656336071428248,0.4444444444444444,unsucc_cost,0,0,373.7334108352661,None,1,pt3,3,2023-03-30_12h09.55.161,threat_forest,2021.2.3,59.59291074782687,
10,0,10,0,,,,,,,,,,,,,,,,,,,,,,,,,,,,,,,,,,,,378.7798578739166,None,0,pt3,3,2023-03-30_12h09.55.161,threat_forest,2021.2.3,59.59291074782687,
11,0,11,0,0,0,0,0,,,,,,,380.6387948989868,384.1517059803009,None,right,1.9125421047210693,387.78547191619873,pt3,387.78547191619873,None,380.6387948989868,384.1517059803009,False,4,['p'],True,0.25,0.25,0.0,0.0,2.0,0.5118595071429148,0.0,wait_cost,0,3,,,,pt3,3,2023-03-30_12h09.55.161,threat_forest,2021.2.3,59.59291074782687,
11,0,11,0,1,0,1,0,,,,,,,,,,right,1.3827180862426758,392.57997488975525,pt3,389.7298848628998,391.74409079551697,392.57997488975525,None,True,3,['p'],False,0.2040816326530612,0.2857142857142857,0.2857142857142857,2.0,2.0,0.9335459102197724,-0.2857142857142857,unsucc_cost,1,1,391.74409079551697,None,3,pt3,3,2023-03-30_12h09.55.161,threat_forest,2021.2.3,59.59291074782687,
11,0,11,0,2,0,2,0,,,,,,,,,,right,0.9654688835144043,396.59413290023804,pt3,389.7298848628998,391.74409079551697,396.59413290023804,None,True,1,['p'],False,0.2040816326530612,0.2857142857142857,0.2857142857142857,2.0,2.0,0.9335459102197724,0.2040816326530612,succ_gain,1,3,395.99148178100586,None,1,pt3,3,2023-03-30_12h09.55.161,threat_forest,2021.2.3,59.59291074782687,
11,0,11,0,3,0,3,0,,,,,,,,,,right,1.0376839637756348,400.6484978199005,pt3,389.7298848628998,391.74409079551697,400.6484978199005,None,True,3,['p'],False,0.2040816326530612,0.2857142857142857,0.2857142857142857,2.0,2.0,0.9335459102197724,-0.2857142857142857,unsucc_cost,1,1,399.6029357910156,None,3,pt3,3,2023-03-30_12h09.55.161,threat_forest,2021.2.3,59.59291074782687,
11,0,11,0,4,0,4,0,,,,,,,,,,left,0.5493581295013428,406.2647268772125,pt3,406.2647268772125,None,401.7105669975281,403.70753479003906,True,1,['p'],True,0.25,0.25,0.0,0.0,2.0,0.5118595071429148,0.25,unsucc_cost,0,0,403.70753479003906,None,1,pt3,3,2023-03-30_12h09.55.161,threat_forest,2021.2.3,59.59291074782687,
11,0,11,0,,,,,,,,,,,,,,,,,,,,,,,,,,,,,,,,,,,,408.84674286842346,None,0,pt3,3,2023-03-30_12h09.55.161,threat_forest,2021.2.3,59.59291074782687,
12,0,12,0,0,0,0,0,,,,,,,411.1350009441376,414.6361708641052,None,left,0.7667310237884521,416.6118338108063,pt3,411.1350009441376,414.6361708641052,416.6118338108063,None,False,4,['p'],False,0.4081632653061224,0.5714285714285714,0.2857142857142857,2.0,2.0,0.9885754083994552,0.0,wait_cost,1,3,,,,pt3,3,2023-03-30_12h09.55.161,threat_forest,2021.2.3,59.59291074782687,
12,0,12,0,1,0,1,0,,,,,,,,,,left,0.5825369358062744,421.11311388015747,pt3,421.11311388015747,None,417.41293478012085,419.4252178668976,True,3,['p'],True,0.5,0.5,0.0,0.0,2.0,0.6309297535714574,0.0,succ_gain,0,5,419.4252178668976,None,3,pt3,3,2023-03-30_12h09.55.161,threat_forest,2021.2.3,59.59291074782687,
12,0,12,0,2,0,2,0,,,,,,,,,,left,0.5450870990753174,424.3940749168396,pt3,424.3940749168396,None,417.41293478012085,419.4252178668976,True,5,['p'],True,0.5,0.5,0.0,0.0,2.0,0.6309297535714574,0.0,succ_gain,0,6,423.7466998100281,None,5,pt3,3,2023-03-30_12h09.55.161,threat_forest,2021.2.3,59.59291074782687,
12,0,12,0,3,0,3,0,,,,,,,,,,left,0.678778886795044,428.136775970459,pt3,424.9718999862671,426.9837028980255,428.136775970459,None,False,6,['p'],False,0.4081632653061224,0.5714285714285714,0.2857142857142857,2.0,2.0,0.9885754083994552,0.0,wait_cost,1,5,426.9837028980255,None,6,pt3,3,2023-03-30_12h09.55.161,threat_forest,2021.2.3,59.59291074782687,
12,0,12,0,4,0,4,0,,,,,,,,,,left,0.84722900390625,433.3247528076172,pt3,424.9718999862671,426.9837028980255,433.3247528076172,None,False,5,['p'],False,0.4081632653061224,0.5714285714285714,0.2857142857142857,2.0,2.0,0.9885754083994552,0.0,wait_cost,1,4,430.8544969558716,None,5,pt3,3,2023-03-30_12h09.55.161,threat_forest,2021.2.3,59.59291074782687,
12,0,12,0,5,0,5,0,,,,,,,,,,left,1.3101739883422852,439.413290977478,pt3,424.9718999862671,426.9837028980255,439.413290977478,None,False,4,['p'],False,0.4081632653061224,0.5714285714285714,0.2857142857142857,2.0,2.0,0.9885754083994552,0.0,wait_cost,1,3,436.21029782295227,None,4,pt3,3,2023-03-30_12h09.55.161,threat_forest,2021.2.3,59.59291074782687,
12,0,12,0,6,0,6,0,,,,,,,,,,right,0.9669649600982666,445.3717758655548,pt3,445.3717758655548,None,440.75291299819946,442.7588748931885,False,3,['p'],True,0.5,0.5,0.0,0.0,2.0,0.6309297535714574,0.0,wait_cost,0,2,442.7588748931885,None,3,pt3,3,2023-03-30_12h09.55.161,threat_forest,2021.2.3,59.59291074782687,
12,0,12,0,7,0,7,0,,,,,,,,,,left,0.9992671012878418,451.19678497314453,pt3,446.3640739917755,448.3744888305664,451.19678497314453,None,False,2,['p'],False,0.4081632653061224,0.5714285714285714,0.2857142857142857,2.0,2.0,0.9885754083994552,-0.5918367346938775,wait_cost,1,1,448.3744888305664,None,2,pt3,3,2023-03-30_12h09.55.161,threat_forest,2021.2.3,59.59291074782687,
12,0,12,0,,,,,,,,,,,,,,,,,,,,,,,,,,,,,,,,,,,,454.24785590171814,None,1,pt3,3,2023-03-30_12h09.55.161,threat_forest,2021.2.3,59.59291074782687,
13,0,13,0,0,0,0,0,,,,,,,455.0532748699188,458.5543088912964,None,left,1.6565430164337158,459.7153379917145,pt3,455.0532748699188,458.5543088912964,459.7153379917145,None,False,4,['p'],False,0.46875,0.625,0.25,2.0,2.0,0.9634951148421658,0.0,wait_cost,1,3,,,,pt3,3,2023-03-30_12h09.55.161,threat_forest,2021.2.3,59.59291074782687,
13,0,13,0,1,0,1,0,,,,,,,,,,left,0.9766290187835693,464.13242983818054,pt3,464.13242983818054,None,461.3942289352417,463.39745593070984,True,3,['p'],True,0.5714285714285714,0.5714285714285714,0.0,0.0,2.0,0.6216097450797566,0.0,succ_gain,0,5,463.39745593070984,None,3,pt3,3,2023-03-30_12h09.55.161,threat_forest,2021.2.3,59.59291074782687,
13,0,13,0,2,0,2,0,,,,,,,,,,left,1.036756992340088,470.38274097442627,pt3,470.38274097442627,None,461.3942289352417,463.39745593070984,True,5,['p'],True,0.5714285714285714,0.5714285714285714,0.0,0.0,2.0,0.6216097450797566,0.0,unsucc_cost,0,3,467.1457920074463,None,5,pt3,3,2023-03-30_12h09.55.161,threat_forest,2021.2.3,59.59291074782687,
13,0,13,0,3,0,3,0,,,,,,,,,,left,0.7469508647918701,475.05746579170227,pt3,475.05746579170227,None,461.3942289352417,463.39745593070984,True,3,['p'],True,0.5714285714285714,0.5714285714285714,0.0,0.0,2.0,0.6216097450797566,0.0,succ_gain,0,5,473.4527978897095,None,3,pt3,3,2023-03-30_12h09.55.161,threat_forest,2021.2.3,59.59291074782687,
13,0,13,0,4,0,4,0,,,,,,,,,,right,0.7355310916900635,478.7585229873657,pt3,478.7585229873657,None,461.3942289352417,463.39745593070984,False,5,['p'],True,0.5714285714285714,0.5714285714285714,0.0,0.0,2.0,0.6216097450797566,0.0,wait_cost,0,4,477.8408420085907,None,5,pt3,3,2023-03-30_12h09.55.161,threat_forest,2021.2.3,59.59291074782687,
13,0,13,0,5,0,5,0,,,,,,,,,,left,1.5134449005126953,482.63363885879517,pt3,479.5311858654022,481.54524397850037,482.63363885879517,None,False,4,['p'],False,0.46875,0.625,0.25,2.0,2.0,0.9634951148421658,0.0,wait_cost,1,3,481.54524397850037,None,4,pt3,3,2023-03-30_12h09.55.161,threat_forest,2021.2.3,59.59291074782687,
13,0,13,0,6,0,6,0,,,,,,,,,,left,1.021286964416504,487.81775093078613,pt3,479.5311858654022,481.54524397850037,487.81775093078613,None,False,3,['p'],False,0.46875,0.625,0.25,2.0,2.0,0.9634951148421658,-0.25,wait_cost,1,2,486.16666293144226,None,3,pt3,3,2023-03-30_12h09.55.161,threat_forest,2021.2.3,59.59291074782687,
13,0,13,0,7,0,7,0,,,,,,,,,,left,0.8669798374176025,493.9650688171387,pt3,479.5311858654022,481.54524397850037,493.9650688171387,None,False,2,['p'],False,0.46875,0.625,0.25,2.0,2.0,0.9634951148421658,-0.53125,wait_cost,1,1,490.8724319934845,None,2,pt3,3,2023-03-30_12h09.55.161,threat_forest,2021.2.3,59.59291074782687,
13,0,13,0,,,,,,,,,,,,,,,,,,,,,,,,,,,,,,,,,,,,496.86343693733215,None,1,pt3,3,2023-03-30_12h09.55.161,threat_forest,2021.2.3,59.59291074782687,
14,0,14,0,0,0,0,0,,,,,,,500.6400809288025,504.14644289016724,None,left,1.0295920372009277,507.8624448776245,pt3,507.8624448776245,None,500.6400809288025,504.14644289016724,True,5,['r'],True,0.2857142857142857,0.2857142857142857,0.0,0.0,2.0,0.5445684476282007,0.0,unsucc_cost,0,3,,,,pt3,3,2023-03-30_12h09.55.161,threat_forest,2021.2.3,59.59291074782687,
14,0,14,0,1,0,1,0,,,,,,,,,,left,1.0417239665985107,514.7456638813019,pt3,514.7456638813019,None,500.6400809288025,504.14644289016724,True,3,['r'],True,0.2857142857142857,0.2857142857142857,0.0,0.0,2.0,0.5445684476282007,0.0,unsucc_cost,0,1,510.9282648563385,None,3,pt3,3,2023-03-30_12h09.55.161,threat_forest,2021.2.3,59.59291074782687,
14,0,14,0,2,0,2,0,,,,,,,,,,right,0.6574280261993408,519.5445809364319,pt3,515.8202528953552,517.8194239139557,519.5445809364319,None,True,1,['r'],False,0.24,0.3,0.2,2.0,2.0,0.9003120349047065,0.24,succ_gain,1,3,517.8194239139557,None,1,pt3,3,2023-03-30_12h09.55.161,threat_forest,2021.2.3,59.59291074782687,
14,0,14,0,3,0,3,0,,,,,,,,,,right,1.0641939640045166,525.6956369876862,pt3,515.8202528953552,517.8194239139557,525.6956369876862,None,True,3,['r'],False,0.24,0.3,0.2,2.0,2.0,0.9003120349047065,-0.2,unsucc_cost,1,1,522.2411098480225,None,3,pt3,3,2023-03-30_12h09.55.161,threat_forest,2021.2.3,59.59291074782687,
14,0,14,0,4,0,4,0,,,,,,,,,,left,0.6225638389587402,532.1374809741974,pt3,532.1374809741974,None,526.7801229953766,528.7815999984741,True,1,['r'],True,0.2857142857142857,0.2857142857142857,0.0,0.0,2.0,0.5445684476282007,0.2857142857142857,unsucc_cost,0,0,528.7815999984741,None,1,pt3,3,2023-03-30_12h09.55.161,threat_forest,2021.2.3,59.59291074782687,
14,0,14,0,,,,,,,,,,,,,,,,,,,,,,,,,,,,,,,,,,,,534.7939178943634,None,0,pt3,3,2023-03-30_12h09.55.161,threat_forest,2021.2.3,59.59291074782687,
15,0,15,0,0,0,0,0,,,,,,,537.9450278282166,541.4457318782806,None,left,1.179847002029419,544.5787379741669,pt3,537.9450278282166,541.4457318782806,544.5787379741669,None,False,4,['r'],False,0.4081632653061224,0.5714285714285714,0.2857142857142857,2.0,1.0,0.9885754083994552,0.0,wait_cost,1,3,,,,pt3,3,2023-03-30_12h09.55.161,threat_forest,2021.2.3,59.59291074782687,
15,0,15,0,1,0,1,0,,,,,,,,,,left,0.8692991733551025,551.5444989204407,pt3,551.5444989204407,None,545.784126996994,547.7857768535614,True,3,['r'],True,0.5,0.5,0.0,0.0,1.0,0.6309297535714574,0.0,unsucc_cost,0,1,547.7857768535614,None,3,pt3,3,2023-03-30_12h09.55.161,threat_forest,2021.2.3,59.59291074782687,
15,0,15,0,2,0,2,0,,,,,,,,,,left,0.8437299728393555,558.1712148189545,pt3,552.4470958709717,554.4606828689575,558.1712148189545,None,False,1,['r'],False,0.4081632653061224,0.5714285714285714,0.2857142857142857,2.0,1.0,0.9885754083994552,0.4081632653061224,wait_cost,1,0,554.4606828689575,None,1,pt3,3,2023-03-30_12h09.55.161,threat_forest,2021.2.3,59.59291074782687,
15,0,15,0,,,,,,,,,,,,,,,,,,,,,,,,,,,,,,,,,,,,561.0514709949493,None,0,pt3,3,2023-03-30_12h09.55.161,threat_forest,2021.2.3,59.59291074782687,
16,0,16,0,0,0,0,0,,,,,,,562.1198658943176,565.623214006424,None,right,0.9243900775909424,567.3302919864655,pt3,562.1198658943176,565.623214006424,567.3302919864655,None,True,5,['r'],False,0.36,0.6,0.4,2.0,1.0,0.9801625908629508,0.0,unsucc_cost,1,3,,,,pt3,3,2023-03-30_12h09.55.161,threat_forest,2021.2.3,59.59291074782687,
16,0,16,0,1,0,1,0,,,,,,,,,,right,0.7401108741760254,573.992271900177,pt3,562.1198658943176,565.623214006424,573.992271900177,None,True,3,['r'],False,0.36,0.6,0.4,2.0,1.0,0.9801625908629508,-0.4,succ_gain,1,4,570.295432806015,None,3,pt3,3,2023-03-30_12h09.55.161,threat_forest,2021.2.3,59.59291074782687,
16,0,16,0,2,0,2,0,,,,,,,,,,right,1.0823209285736084,579.0387778282166,pt3,562.1198658943176,565.623214006424,579.0387778282166,None,True,4,['r'],False,0.36,0.6,0.4,2.0,1.0,0.9801625908629508,0.0,unsucc_cost,1,2,576.7530298233032,None,4,pt3,3,2023-03-30_12h09.55.161,threat_forest,2021.2.3,59.59291074782687,
16,0,16,0,3,0,3,0,,,,,,,,,,right,1.050232172012329,583.0023708343506,pt3,562.1198658943176,565.623214006424,583.0023708343506,None,True,2,['r'],False,0.36,0.6,0.4,2.0,1.0,0.9801625908629508,-0.64,unsucc_cost,1,0,582.1587188243866,None,2,pt3,3,2023-03-30_12h09.55.161,threat_forest,2021.2.3,59.59291074782687,
16,0,16,0,,,,,,,,,,,,,,,,,,,,,,,,,,,,,,,,,,,,586.1024827957153,None,0,pt3,3,2023-03-30_12h09.55.161,threat_forest,2021.2.3,59.59291074782687,
17,0,17,0,0,0,0,0,,,,,,,589.8203659057617,593.3208119869232,None,right,1.8358690738677979,594.6491129398346,pt3,594.6491129398346,None,589.8203659057617,593.3208119869232,False,5,['p'],True,0.24,0.4,0.4,2.0,2.0,0.9801625908629508,0.0,wait_cost,0,4,,,,pt3,3,2023-03-30_12h09.55.161,threat_forest,2021.2.3,59.59291074782687,
17,0,17,0,1,0,1,0,,,,,,,,,,right,1.4622828960418701,599.0633549690247,pt3,596.5146899223328,598.5270209312439,599.0633549690247,None,True,4,['p'],False,0.16,0.2,0.2,2.0,2.0,0.8198746470064713,0.0,succ_gain,1,6,598.5270209312439,None,4,pt3,3,2023-03-30_12h09.55.161,threat_forest,2021.2.3,59.59291074782687,
17,0,17,0,2,0,2,0,,,,,,,,,,left,1.3280291557312012,604.4202728271484,pt3,596.5146899223328,598.5270209312439,604.4202728271484,None,False,6,['p'],False,0.16,0.2,0.2,2.0,2.0,0.8198746470064713,0.0,wait_cost,1,5,602.5651497840881,None,6,pt3,3,2023-03-30_12h09.55.161,threat_forest,2021.2.3,59.59291074782687,
17,0,17,0,3,0,3,0,,,,,,,,,,right,0.9858291149139404,608.4725868701935,pt3,596.5146899223328,598.5270209312439,608.4725868701935,None,True,5,['p'],False,0.16,0.2,0.2,2.0,2.0,0.8198746470064713,0.0,fight_cost,1,2,607.7705688476562,None,5,pt3,3,2023-03-30_12h09.55.161,threat_forest,2021.2.3,59.59291074782687,
17,0,17,0,4,0,4,0,,,,,,,,,,right,1.4320969581604004,614.0128219127655,pt3,614.0128219127655,None,609.4925858974457,611.5080888271332,False,2,['p'],True,0.24,0.4,0.4,2.0,2.0,0.9801625908629508,-0.76,wait_cost,0,1,611.5080888271332,None,2,pt3,3,2023-03-30_12h09.55.161,threat_forest,2021.2.3,59.59291074782687,
17,0,17,0,5,0,5,0,,,,,,,,,,right,0.8000519275665283,617.9996387958527,pt3,615.4672269821167,617.4818248748779,617.9996387958527,None,True,1,['p'],False,0.16,0.2,0.2,2.0,2.0,0.8198746470064713,0.1599999999999999,fight_cost,1,0,617.4818248748779,None,1,pt3,3,2023-03-30_12h09.55.161,threat_forest,2021.2.3,59.59291074782687,
17,0,17,0,,,,,,,,,,,,,,,,,,,,,,,,,,,,,,,,,,,,620.8355848789215,None,0,pt3,3,2023-03-30_12h09.55.161,threat_forest,2021.2.3,59.59291074782687,
