miniblock.thisRepN,miniblock.thisTrialN,miniblock.thisN,miniblock.thisIndex,day.thisRepN,day.thisTrialN,day.thisN,day.thisIndex,welcoming.started,welcoming.stopped,key_resp_2.keys,key_resp_2.rt,key_resp_2.started,key_resp_2.stopped,forest.started,fixation_forest.started,fixation_forest.stopped,key_resp.keys,key_resp.rt,key_resp.started,Subject_ID,weather_left.started,weather_left.stopped,weather_right.started,weather_right.stopped,foraging T/F,in_LP,p/r heuristic,good_weather.T/F,p_succ_correct,p_succ_uncorrected,r_threat,n_oponents,gain_if_succ,weather_entropy,OP_value_difference,action_outcome,forest_side_L=0_R=1,out_LP,fixation_day.started,fixation_day.stopped,participant,session,date,expName,psychopyVersion,frameRate,
,,,,,,,,25.703447100007907,None,space,2.356844699999783,25.703447100007907,None,,,,,,,,,,,,,,,,,,,,,,,,,,,,xm15,1,2023-03-20_11h32.12.195,threat_forest,2021.2.3,59.997468115504944,
0,0,0,0,0,0,0,0,,,,,,,28.119590099988272,31.619989600003464,None,right,2.969297600007849,33.65342000001692,xm15,33.65342000001692,None,28.119590099988272,31.619989600003464,False,5,['p'],True,0.4444444444444445,0.6666666666666666,0.3333333333333333,1.0,1.0,0.9656336071428248,0.0,wait_cost,0,4,,,xm15,1,2023-03-20_11h32.12.195,threat_forest,2021.2.3,59.997468115504944,
0,0,0,0,1,0,1,0,,,,,,,,,,right,2.6574775999761187,42.443529300013324,xm15,42.443529300013324,None,28.119590099988272,31.619989600003464,False,4,['p'],True,0.4444444444444445,0.6666666666666666,0.3333333333333333,1.0,1.0,0.9656336071428248,0.0,wait_cost,0,3,38.663386100000935,None,xm15,1,2023-03-20_11h32.12.195,threat_forest,2021.2.3,59.997468115504944,
0,0,0,0,2,0,2,0,,,,,,,,,,right,1.168956999987131,50.819128300005104,xm15,45.12437959999079,47.1387437999947,50.819128300005104,None,True,3,['p'],False,0.2448979591836734,0.2857142857142857,0.1428571428571428,1.0,1.0,0.8400769154957735,-0.1428571428571428,succ_gain,1,4,47.1387437999947,None,xm15,1,2023-03-20_11h32.12.195,threat_forest,2021.2.3,59.997468115504944,
0,0,0,0,3,0,3,0,,,,,,,,,,right,1.8606550999975298,55.79778819999774,xm15,45.12437959999079,47.1387437999947,55.79778819999774,None,True,4,['p'],False,0.2448979591836734,0.2857142857142857,0.1428571428571428,1.0,1.0,0.8400769154957735,0.0,figh_cost,1,1,54.03240279998863,None,xm15,1,2023-03-20_11h32.12.195,threat_forest,2021.2.3,59.997468115504944,
0,0,0,0,4,0,4,0,,,,,,,,,,right,0.8742524999834131,61.209366399998544,xm15,45.12437959999079,47.1387437999947,61.209366399998544,None,True,1,['p'],False,0.2448979591836734,0.2857142857142857,0.1428571428571428,1.0,1.0,0.8400769154957735,0.2448979591836735,unsucc_cost,1,0,59.693796900013695,None,xm15,1,2023-03-20_11h32.12.195,threat_forest,2021.2.3,59.997468115504944,
0,0,0,0,,,,,,,,,,,,,,,,,,,,,,,,,,,,,,,,,,,,64.12847570001031,None,xm15,1,2023-03-20_11h32.12.195,threat_forest,2021.2.3,59.997468115504944,
1,0,1,0,0,0,0,0,,,,,,,66.23650450000423,69.75108109999564,None,None,,72.48408679998829,xm15,66.23650450000423,69.75108109999564,72.48408679998829,None,None,5,['p'],False,0.2,0.2,0.0,0.0,1.0,0.4554859150035951,0.0,wait_cost,1,4,,,xm15,1,2023-03-20_11h32.12.195,threat_forest,2021.2.3,59.997468115504944,
1,0,1,0,1,0,1,0,,,,,,,,,,left,1.4452165999973658,80.09206299998914,xm15,80.09206299998914,None,75.49618789998931,77.51049690000946,True,4,['p'],True,0.4444444444444445,0.6666666666666666,0.3333333333333333,1.0,1.0,0.9656336071428248,0.0,succ_gain,0,5,77.51049690000946,None,xm15,1,2023-03-20_11h32.12.195,threat_forest,2021.2.3,59.997468115504944,
1,0,1,0,2,0,2,0,,,,,,,,,,left,2.096198099985486,87.23700009999448,xm15,81.55700430000434,83.57140549999895,87.23700009999448,None,False,5,['p'],False,0.2,0.2,0.0,0.0,1.0,0.4554859150035951,0.0,wait_cost,1,4,83.57140549999895,None,xm15,1,2023-03-20_11h32.12.195,threat_forest,2021.2.3,59.997468115504944,
1,0,1,0,3,0,3,0,,,,,,,,,,left,0.9606977999792434,92.04712950001704,xm15,92.04712950001704,None,89.34973190000164,91.36422769998899,True,4,['p'],True,0.4444444444444445,0.6666666666666666,0.3333333333333333,1.0,1.0,0.9656336071428248,0.0,unsucc_cost,0,2,91.36422769998899,None,xm15,1,2023-03-20_11h32.12.195,threat_forest,2021.2.3,59.997468115504944,
1,0,1,0,4,0,4,0,,,,,,,,,,left,2.226480500015896,97.70893600001,xm15,97.70893600001,None,89.34973190000164,91.36422769998899,True,2,['p'],True,0.4444444444444445,0.6666666666666666,0.3333333333333333,1.0,1.0,0.9656336071428248,-0.5555555555555556,succ_gain,0,3,95.0440232999972,None,xm15,1,2023-03-20_11h32.12.195,threat_forest,2021.2.3,59.997468115504944,
1,0,1,0,5,0,5,0,,,,,,,,,,None,,103.24069790000794,xm15,99.95640450000064,101.97102890000679,103.24069790000794,None,None,3,['p'],False,0.2,0.2,0.0,0.0,1.0,0.4554859150035951,0.0,wait_cost,1,2,101.97102890000679,None,xm15,1,2023-03-20_11h32.12.195,threat_forest,2021.2.3,59.997468115504944,
1,0,1,0,6,0,6,0,,,,,,,,,,None,,111.8953446999949,xm15,99.95640450000064,101.97102890000679,111.8953446999949,None,None,2,['p'],False,0.2,0.2,0.0,0.0,1.0,0.4554859150035951,-0.8,wait_cost,1,1,108.26511710000341,None,xm15,1,2023-03-20_11h32.12.195,threat_forest,2021.2.3,59.997468115504944,
1,0,1,0,7,0,7,0,,,,,,,,,,left,0.868357199971797,118.77219920000061,xm15,118.77219920000061,None,114.90957019999041,116.92371400000411,True,1,['p'],True,0.4444444444444445,0.6666666666666666,0.3333333333333333,1.0,1.0,0.9656336071428248,0.4444444444444444,unsucc_cost,0,0,116.92371400000411,None,xm15,1,2023-03-20_11h32.12.195,threat_forest,2021.2.3,59.997468115504944,
1,0,1,0,,,,,,,,,,,,,,,,,,,,,,,,,,,,,,,,,,,,121.6860011999961,None,xm15,1,2023-03-20_11h32.12.195,threat_forest,2021.2.3,59.997468115504944,
2,0,2,0,0,0,0,0,,,,,,,124.44119509999291,127.94663570000557,None,left,0.9104192999948282,131.62740550001035,xm15,131.62740550001035,None,124.44119509999291,127.94663570000557,True,5,['r'],True,0.25,0.25,0.0,0.0,2.0,0.5118595071429148,0.0,succ_gain,0,6,,,xm15,1,2023-03-20_11h32.12.195,threat_forest,2021.2.3,59.997468115504944,
2,0,2,0,1,0,1,0,,,,,,,,,,None,,136.37243389998912,xm15,136.37243389998912,None,124.44119509999291,127.94663570000557,None,6,['r'],True,0.25,0.25,0.0,0.0,2.0,0.5118595071429148,0.0,wait_cost,0,5,134.573896899994,None,xm15,1,2023-03-20_11h32.12.195,threat_forest,2021.2.3,59.997468115504944,
2,0,2,0,2,0,2,0,,,,,,,,,,right,2.026342899975134,142.11714290000964,xm15,142.11714290000964,None,124.44119509999291,127.94663570000557,False,5,['r'],True,0.25,0.25,0.0,0.0,2.0,0.5118595071429148,0.0,wait_cost,0,4,141.40079770001466,None,xm15,1,2023-03-20_11h32.12.195,threat_forest,2021.2.3,59.997468115504944,
2,0,2,0,3,0,3,0,,,,,,,,,,left,2.2385960000101477,149.61039250000613,xm15,149.61039250000613,None,124.44119509999291,127.94663570000557,True,4,['r'],True,0.25,0.25,0.0,0.0,2.0,0.5118595071429148,0.0,unsucc_cost,0,2,146.17965579999145,None,xm15,1,2023-03-20_11h32.12.195,threat_forest,2021.2.3,59.997468115504944,
2,0,2,0,4,0,4,0,,,,,,,,,,None,,157.1031079000095,xm15,157.1031079000095,None,124.44119509999291,127.94663570000557,None,2,['r'],True,0.25,0.25,0.0,0.0,2.0,0.5118595071429148,-0.75,wait_cost,0,1,153.88907710000058,None,xm15,1,2023-03-20_11h32.12.195,threat_forest,2021.2.3,59.997468115504944,
2,0,2,0,5,0,5,0,,,,,,,,,,left,0.6775463000230957,164.41291439998895,xm15,164.41291439998895,None,124.44119509999291,127.94663570000557,True,1,['r'],True,0.25,0.25,0.0,0.0,2.0,0.5118595071429148,0.25,succ_gain,0,3,162.13153690000763,None,xm15,1,2023-03-20_11h32.12.195,threat_forest,2021.2.3,59.997468115504944,
2,0,2,0,6,0,6,0,,,,,,,,,,left,1.6440780999837443,169.9099300999951,xm15,165.11227099999087,167.12677450000774,169.9099300999951,None,False,3,['r'],False,0.2040816326530612,0.2857142857142857,0.2857142857142857,2.0,2.0,0.9335459102197724,-0.2857142857142857,wait_cost,1,2,167.12677450000774,None,xm15,1,2023-03-20_11h32.12.195,threat_forest,2021.2.3,59.997468115504944,
2,0,2,0,7,0,7,0,,,,,,,,,,left,1.145122200017795,175.98555750001105,xm15,165.11227099999087,167.12677450000774,175.98555750001105,None,False,2,['r'],False,0.2040816326530612,0.2857142857142857,0.2857142857142857,2.0,2.0,0.9335459102197724,-0.7959183673469388,wait_cost,1,1,173.5873939000012,None,xm15,1,2023-03-20_11h32.12.195,threat_forest,2021.2.3,59.997468115504944,
2,0,2,0,,,,,,,,,,,,,,,,,,,,,,,,,,,,,,,,,,,,179.1656040000089,None,xm15,1,2023-03-20_11h32.12.195,threat_forest,2021.2.3,59.997468115504944,
3,0,3,0,0,0,0,0,,,,,,,182.72324779999326,186.22556799999438,None,left,2.551406600017799,189.87413360000937,xm15,182.72324779999326,186.22556799999438,189.87413360000937,None,False,5,['p'],False,0.2222222222222222,0.2222222222222222,0.0,0.0,1.0,0.4821593609696809,0.0,wait_cost,1,4,,,xm15,1,2023-03-20_11h32.12.195,threat_forest,2021.2.3,59.997468115504944,
3,0,3,0,1,0,1,0,,,,,,,,,,left,0.818098599993391,197.78178600000683,xm15,197.78178600000683,None,192.45363629999338,194.46798720001243,True,4,['p'],True,0.4444444444444445,0.6666666666666666,0.3333333333333333,1.0,1.0,0.9656336071428248,0.0,succ_gain,0,5,194.46798720001243,None,xm15,1,2023-03-20_11h32.12.195,threat_forest,2021.2.3,59.997468115504944,
3,0,3,0,2,0,2,0,,,,,,,,,,left,2.972949899995001,204.12626710001496,xm15,204.12626710001496,None,192.45363629999338,194.46798720001243,True,5,['p'],True,0.4444444444444445,0.6666666666666666,0.3333333333333333,1.0,1.0,0.9656336071428248,0.0,unsucc_cost,0,3,200.64544100000057,None,xm15,1,2023-03-20_11h32.12.195,threat_forest,2021.2.3,59.997468115504944,
3,0,3,0,3,0,3,0,,,,,,,,,,left,1.865168700023787,210.3201440999983,xm15,207.1232541000063,209.13756000000285,210.3201440999983,None,False,3,['p'],False,0.2222222222222222,0.2222222222222222,0.0,0.0,1.0,0.4821593609696809,0.0,wait_cost,1,2,209.13756000000285,None,xm15,1,2023-03-20_11h32.12.195,threat_forest,2021.2.3,59.997468115504944,
3,0,3,0,4,0,4,0,,,,,,,,,,left,1.5141721999971196,216.33163780000177,xm15,216.33163780000177,None,212.20173060000525,214.21614689999842,True,2,['p'],True,0.4444444444444445,0.6666666666666666,0.3333333333333333,1.0,1.0,0.9656336071428248,-0.5555555555555556,unsucc_cost,0,0,214.21614689999842,None,xm15,1,2023-03-20_11h32.12.195,threat_forest,2021.2.3,59.997468115504944,
3,0,3,0,,,,,,,,,,,,,,,,,,,,,,,,,,,,,,,,,,,,219.87762700000894,None,xm15,1,2023-03-20_11h32.12.195,threat_forest,2021.2.3,59.997468115504944,
4,0,4,0,0,0,0,0,,,,,,,221.9194972999976,225.42233480000868,None,right,1.4547731000056956,228.47015939999255,xm15,221.9194972999976,225.42233480000868,228.47015939999255,None,True,5,['p'],False,0.24,0.3,0.2,2.0,2.0,0.9003120349047065,0.0,figh_cost,1,2,,,xm15,1,2023-03-20_11h32.12.195,threat_forest,2021.2.3,59.997468115504944,
4,0,4,0,1,0,1,0,,,,,,,,,,left,0.789525300002424,233.8034750999941,xm15,233.8034750999941,None,229.95209259999683,231.9662890000036,True,2,['p'],True,0.4444444444444445,0.6666666666666666,0.3333333333333333,1.0,2.0,0.9656336071428248,-0.5555555555555556,unsucc_cost,0,0,231.9662890000036,None,xm15,1,2023-03-20_11h32.12.195,threat_forest,2021.2.3,59.997468115504944,
4,0,4,0,,,,,,,,,,,,,,,,,,,,,,,,,,,,,,,,,,,,236.6287292999914,None,xm15,1,2023-03-20_11h32.12.195,threat_forest,2021.2.3,59.997468115504944,
5,0,5,0,0,0,0,0,,,,,,,238.96817579999333,242.47314260000712,None,right,2.119004500011215,245.67059180000797,xm15,238.96817579999333,242.47314260000712,245.67059180000797,None,True,4,['r'],False,0.36,0.6,0.4,2.0,1.0,0.9801625908629508,0.0,unsucc_cost,1,2,,,xm15,1,2023-03-20_11h32.12.195,threat_forest,2021.2.3,59.997468115504944,
5,0,5,0,1,0,1,0,,,,,,,,,,left,1.229617099976167,253.24781830000575,xm15,253.24781830000575,None,247.81838979999884,249.83288960001664,True,2,['r'],True,0.5,0.5,0.0,0.0,1.0,0.6309297535714574,-0.5,unsucc_cost,0,0,249.83288960001664,None,xm15,1,2023-03-20_11h32.12.195,threat_forest,2021.2.3,59.997468115504944,
5,0,5,0,,,,,,,,,,,,,,,,,,,,,,,,,,,,,,,,,,,,256.5101413000084,None,xm15,1,2023-03-20_11h32.12.195,threat_forest,2021.2.3,59.997468115504944,
6,0,6,0,0,0,0,0,,,,,,,258.5970469999884,262.10473200000706,None,left,2.2810820000013337,264.76945399999386,xm15,258.5970469999884,262.10473200000706,264.76945399999386,None,False,5,['r'],False,0.2222222222222222,0.6666666666666666,0.6666666666666666,2.0,2.0,0.77250688571426,0.0,wait_cost,1,4,,,xm15,1,2023-03-20_11h32.12.195,threat_forest,2021.2.3,59.997468115504944,
6,0,6,0,1,0,1,0,,,,,,,,,,None,,269.59812860001693,xm15,258.5970469999884,262.10473200000706,269.59812860001693,None,None,4,['r'],False,0.2222222222222222,0.6666666666666666,0.6666666666666666,2.0,2.0,0.77250688571426,0.0,wait_cost,1,3,269.08165259999805,None,xm15,1,2023-03-20_11h32.12.195,threat_forest,2021.2.3,59.997468115504944,
6,0,6,0,2,0,2,0,,,,,,,,,,right,2.292963099986082,276.608342099993,xm15,276.608342099993,None,272.61196840001503,274.626396800013,False,3,['r'],True,0.25,0.25,0.0,0.0,2.0,0.5118595071429148,0.0,wait_cost,0,2,274.626396800013,None,xm15,1,2023-03-20_11h32.12.195,threat_forest,2021.2.3,59.997468115504944,
6,0,6,0,3,0,3,0,,,,,,,,,,left,0.9959029000019655,283.58501139999134,xm15,283.58501139999134,None,272.61196840001503,274.626396800013,True,2,['r'],True,0.25,0.25,0.0,0.0,2.0,0.5118595071429148,-0.75,unsucc_cost,0,0,280.9372788000037,None,xm15,1,2023-03-20_11h32.12.195,threat_forest,2021.2.3,59.997468115504944,
6,0,6,0,,,,,,,,,,,,,,,,,,,,,,,,,,,,,,,,,,,,286.61533570001484,None,xm15,1,2023-03-20_11h32.12.195,threat_forest,2021.2.3,59.997468115504944,
7,0,7,0,0,0,0,0,,,,,,,287.336913200008,290.84459260001313,None,left,0.810627700004261,294.3084627999924,xm15,294.3084627999924,None,287.336913200008,290.84459260001313,True,4,['r'],True,0.3333333333333333,0.3333333333333333,0.0,0.0,2.0,0.5793801642856949,0.0,unsucc_cost,0,2,,,xm15,1,2023-03-20_11h32.12.195,threat_forest,2021.2.3,59.997468115504944,
7,0,7,0,1,0,1,0,,,,,,,,,,left,0.9592220000049565,298.1047811000026,xm15,298.1047811000026,None,287.336913200008,290.84459260001313,True,2,['r'],True,0.3333333333333333,0.3333333333333333,0.0,0.0,2.0,0.5793801642856949,-0.6666666666666667,unsucc_cost,0,0,297.1557651000039,None,xm15,1,2023-03-20_11h32.12.195,threat_forest,2021.2.3,59.997468115504944,
7,0,7,0,,,,,,,,,,,,,,,,,,,,,,,,,,,,,,,,,,,,301.10186660001636,None,xm15,1,2023-03-20_11h32.12.195,threat_forest,2021.2.3,59.997468115504944,
8,0,8,0,0,0,0,0,,,,,,,304.1712339000078,307.6789667000121,None,right,1.140783000009833,310.1769248000055,xm15,304.1712339000078,307.6789667000121,310.1769248000055,None,True,5,['r'],False,0.36,0.6,0.4,2.0,2.0,0.9801625908629508,0.0,succ_gain,1,6,,,xm15,1,2023-03-20_11h32.12.195,threat_forest,2021.2.3,59.997468115504944,
8,0,8,0,1,0,1,0,,,,,,,,,,right,2.8321972000121605,313.92743780001183,xm15,313.92743780001183,None,311.3425100000168,313.3569347000157,False,6,['r'],True,0.5,0.5,0.0,0.0,2.0,0.6309297535714574,0.0,wait_cost,0,5,313.3569347000157,None,xm15,1,2023-03-20_11h32.12.195,threat_forest,2021.2.3,59.997468115504944,
8,0,8,0,2,0,2,0,,,,,,,,,,right,1.8020885000005364,319.68460680000135,xm15,319.68460680000135,None,311.3425100000168,313.3569347000157,False,5,['r'],True,0.5,0.5,0.0,0.0,2.0,0.6309297535714574,0.0,wait_cost,0,4,318.8018002999888,None,xm15,1,2023-03-20_11h32.12.195,threat_forest,2021.2.3,59.997468115504944,
8,0,8,0,3,0,3,0,,,,,,,,,,left,1.3445911999733653,324.09711070000776,xm15,324.09711070000776,None,311.3425100000168,313.3569347000157,True,4,['r'],True,0.5,0.5,0.0,0.0,2.0,0.6309297535714574,0.0,figh_cost,0,1,323.53080740000587,None,xm15,1,2023-03-20_11h32.12.195,threat_forest,2021.2.3,59.997468115504944,
8,0,8,0,4,0,4,0,,,,,,,,,,right,1.7842977000109386,328.65949429999455,xm15,325.4626213000156,327.47713780001504,328.65949429999455,None,True,1,['r'],False,0.36,0.6,0.4,2.0,2.0,0.9801625908629508,0.36,succ_gain,1,3,327.47713780001504,None,xm15,1,2023-03-20_11h32.12.195,threat_forest,2021.2.3,59.997468115504944,
8,0,8,0,5,0,5,0,,,,,,,,,,None,,334.4541508000111,xm15,325.4626213000156,327.47713780001504,334.4541508000111,None,None,3,['r'],False,0.36,0.6,0.4,2.0,2.0,0.9801625908629508,-0.4,wait_cost,1,2,332.48920690000523,None,xm15,1,2023-03-20_11h32.12.195,threat_forest,2021.2.3,59.997468115504944,
8,0,8,0,6,0,6,0,,,,,,,,,,right,1.3312154000159353,341.3312189000135,xm15,341.3312189000135,None,337.4681042000011,339.48258680000436,False,2,['r'],True,0.5,0.5,0.0,0.0,2.0,0.6309297535714574,-0.5,wait_cost,0,1,339.48258680000436,None,xm15,1,2023-03-20_11h32.12.195,threat_forest,2021.2.3,59.997468115504944,
8,0,8,0,7,0,7,0,,,,,,,,,,left,0.7461015000008047,346.4097985000117,xm15,346.4097985000117,None,337.4681042000011,339.48258680000436,True,1,['r'],True,0.5,0.5,0.0,0.0,2.0,0.6309297535714574,0.5,succ_gain,0,3,344.6943447999947,None,xm15,1,2023-03-20_11h32.12.195,threat_forest,2021.2.3,59.997468115504944,
8,0,8,0,,,,,,,,,,,,,,,,,,,,,,,,,,,,,,,,,,,,349.1901472999889,None,xm15,1,2023-03-20_11h32.12.195,threat_forest,2021.2.3,59.997468115504944,
9,0,9,0,0,0,0,0,,,,,,,351.14855839998927,354.65182719999575,None,right,2.4625215000123717,355.37084759998834,xm15,355.37084759998834,None,351.14855839998927,354.65182719999575,False,5,['r'],True,0.5,0.5,0.0,0.0,1.0,0.6309297535714574,0.0,wait_cost,0,4,,,xm15,1,2023-03-20_11h32.12.195,threat_forest,2021.2.3,59.997468115504944,
9,0,9,0,1,0,1,0,,,,,,,,,,right,2.1517392999958247,363.06279530000756,xm15,357.8656917999906,359.88016850000713,363.06279530000756,None,True,4,['r'],False,0.4081632653061224,0.5714285714285714,0.2857142857142857,2.0,1.0,0.9885754083994552,0.0,unsucc_cost,1,2,359.88016850000713,None,xm15,1,2023-03-20_11h32.12.195,threat_forest,2021.2.3,59.997468115504944,
9,0,9,0,2,0,2,0,,,,,,,,,,right,2.4153157000255305,369.52209099999163,xm15,369.52209099999163,None,365.2421513000154,367.2567488999921,False,2,['r'],True,0.5,0.5,0.0,0.0,1.0,0.6309297535714574,-0.5,wait_cost,0,1,367.2567488999921,None,xm15,1,2023-03-20_11h32.12.195,threat_forest,2021.2.3,59.997468115504944,
9,0,9,0,3,0,3,0,,,,,,,,,,left,0.7556690000055823,375.3663471000036,xm15,375.3663471000036,None,365.2421513000154,367.2567488999921,True,1,['r'],True,0.5,0.5,0.0,0.0,1.0,0.6309297535714574,0.5,figh_cost,0,0,373.9836643000017,None,xm15,1,2023-03-20_11h32.12.195,threat_forest,2021.2.3,59.997468115504944,
9,0,9,0,,,,,,,,,,,,,,,,,,,,,,,,,,,,,,,,,,,,378.16327140000067,None,xm15,1,2023-03-20_11h32.12.195,threat_forest,2021.2.3,59.997468115504944,
10,0,10,0,0,0,0,0,,,,,,,379.71976589999394,383.22518080001464,None,None,,384.3936122000159,xm15,379.71976589999394,383.22518080001464,384.3936122000159,None,None,5,['r'],False,0.4081632653061224,0.5714285714285714,0.2857142857142857,2.0,2.0,0.9885754083994552,0.0,wait_cost,1,4,,,xm15,1,2023-03-20_11h32.12.195,threat_forest,2021.2.3,59.997468115504944,
10,0,10,0,1,0,1,0,,,,,,,,,,left,1.0935717000102159,392.6533139999956,xm15,392.6533139999956,None,387.40493839999544,389.4193701999902,True,4,['r'],True,0.5,0.5,0.0,0.0,2.0,0.6309297535714574,0.0,succ_gain,0,6,389.4193701999902,None,xm15,1,2023-03-20_11h32.12.195,threat_forest,2021.2.3,59.997468115504944,
10,0,10,0,2,0,2,0,,,,,,,,,,None,,398.2966818000132,xm15,393.76550710000447,395.77995799999917,398.2966818000132,None,None,6,['r'],False,0.4081632653061224,0.5714285714285714,0.2857142857142857,2.0,2.0,0.9885754083994552,0.0,wait_cost,1,5,395.77995799999917,None,xm15,1,2023-03-20_11h32.12.195,threat_forest,2021.2.3,59.997468115504944,
10,0,10,0,3,0,3,0,,,,,,,,,,left,1.296825199999148,404.4892641000042,xm15,393.76550710000447,395.77995799999917,404.4892641000042,None,False,5,['r'],False,0.4081632653061224,0.5714285714285714,0.2857142857142857,2.0,2.0,0.9885754083994552,0.0,wait_cost,1,4,403.3230586000136,None,xm15,1,2023-03-20_11h32.12.195,threat_forest,2021.2.3,59.997468115504944,
10,0,10,0,4,0,4,0,,,,,,,,,,None,,411.53278179999324,xm15,393.76550710000447,395.77995799999917,411.53278179999324,None,None,4,['r'],False,0.4081632653061224,0.5714285714285714,0.2857142857142857,2.0,2.0,0.9885754083994552,0.0,wait_cost,1,3,407.8188255999994,None,xm15,1,2023-03-20_11h32.12.195,threat_forest,2021.2.3,59.997468115504944,
10,0,10,0,5,0,5,0,,,,,,,,,,left,1.2267111999972258,418.35920259999693,xm15,418.35920259999693,None,414.54622779999045,416.5606441000127,True,3,['r'],True,0.5,0.5,0.0,0.0,2.0,0.6309297535714574,0.0,succ_gain,0,5,416.5606441000127,None,xm15,1,2023-03-20_11h32.12.195,threat_forest,2021.2.3,59.997468115504944,
10,0,10,0,6,0,6,0,,,,,,,,,,left,0.5605866999831051,422.3572975000134,xm15,419.6080290999962,421.62262810001266,422.3572975000134,None,False,5,['r'],False,0.4081632653061224,0.5714285714285714,0.2857142857142857,2.0,2.0,0.9885754083994552,0.0,wait_cost,1,4,421.62262810001266,None,xm15,1,2023-03-20_11h32.12.195,threat_forest,2021.2.3,59.997468115504944,
10,0,10,0,7,0,7,0,,,,,,,,,,right,0.7559860000037588,427.8669327000098,xm15,427.8669327000098,None,422.9384815999947,424.9527900000103,False,4,['r'],True,0.5,0.5,0.0,0.0,2.0,0.6309297535714574,0.0,wait_cost,0,3,424.9527900000103,None,xm15,1,2023-03-20_11h32.12.195,threat_forest,2021.2.3,59.997468115504944,
10,0,10,0,,,,,,,,,,,,,,,,,,,,,,,,,,,,,,,,,,,,430.6641714000143,None,xm15,1,2023-03-20_11h32.12.195,threat_forest,2021.2.3,59.997468115504944,
11,0,11,0,0,0,0,0,,,,,,,432.775435699994,436.275527299993,None,left,1.2793943999859039,439.74185650001164,xm15,432.775435699994,436.275527299993,439.74185650001164,None,False,5,['p'],False,0.1728395061728395,0.2222222222222222,0.2222222222222222,2.0,2.0,0.8571721972794328,0.0,wait_cost,1,4,,,xm15,1,2023-03-20_11h32.12.195,threat_forest,2021.2.3,59.997468115504944,
11,0,11,0,1,0,1,0,,,,,,,,,,left,1.0907281000108924,443.6357605000085,xm15,432.775435699994,436.275527299993,443.6357605000085,None,False,4,['p'],False,0.1728395061728395,0.2222222222222222,0.2222222222222222,2.0,2.0,0.8571721972794328,0.0,wait_cost,1,3,443.0525166000007,None,xm15,1,2023-03-20_11h32.12.195,threat_forest,2021.2.3,59.997468115504944,
11,0,11,0,2,0,2,0,,,,,,,,,,left,1.4369175999891013,448.98073979999754,xm15,432.775435699994,436.275527299993,448.98073979999754,None,False,3,['p'],False,0.1728395061728395,0.2222222222222222,0.2222222222222222,2.0,2.0,0.8571721972794328,-0.2222222222222222,wait_cost,1,2,446.7657257000101,None,xm15,1,2023-03-20_11h32.12.195,threat_forest,2021.2.3,59.997468115504944,
11,0,11,0,3,0,3,0,,,,,,,,,,left,0.8212641999998596,453.8446929999918,xm15,453.8446929999918,None,450.44958390001557,452.4603931000165,True,2,['p'],True,0.375,0.5,0.25,1.0,2.0,0.9850568223215076,-0.625,unsucc_cost,0,0,452.4603931000165,None,xm15,1,2023-03-20_11h32.12.195,threat_forest,2021.2.3,59.997468115504944,
11,0,11,0,,,,,,,,,,,,,,,,,,,,,,,,,,,,,,,,,,,,456.70651859999634,None,xm15,1,2023-03-20_11h32.12.195,threat_forest,2021.2.3,59.997468115504944,
12,0,12,0,0,0,0,0,,,,,,,458.11580659999163,461.6070233999926,None,left,1.7686435999930836,462.2683377999929,xm15,458.11580659999163,461.6070233999926,462.2683377999929,None,False,5,['p'],False,0.16,0.2,0.2,2.0,1.0,0.8198746470064713,0.0,wait_cost,1,4,,,xm15,1,2023-03-20_11h32.12.195,threat_forest,2021.2.3,59.997468115504944,
12,0,12,0,1,0,1,0,,,,,,,,,,right,1.7064329000131693,469.5121218000131,xm15,458.11580659999163,461.6070233999926,469.5121218000131,None,True,4,['p'],False,0.16,0.2,0.2,2.0,1.0,0.8198746470064713,0.0,unsucc_cost,1,2,466.0813288000063,None,xm15,1,2023-03-20_11h32.12.195,threat_forest,2021.2.3,59.997468115504944,
12,0,12,0,2,0,2,0,,,,,,,,,,right,1.7161096999770962,474.7138852000062,xm15,474.7138852000062,None,471.24317599998903,473.257649200008,False,2,['p'],True,0.375,0.5,0.25,1.0,1.0,0.9850568223215076,-0.625,wait_cost,0,1,473.257649200008,None,xm15,1,2023-03-20_11h32.12.195,threat_forest,2021.2.3,59.997468115504944,
12,0,12,0,3,0,3,0,,,,,,,,,,left,1.9695013999880757,479.7519356000121,xm15,479.7519356000121,None,471.24317599998903,473.257649200008,True,1,['p'],True,0.375,0.5,0.25,1.0,1.0,0.9850568223215076,0.375,unsucc_cost,0,0,478.46948100000736,None,xm15,1,2023-03-20_11h32.12.195,threat_forest,2021.2.3,59.997468115504944,
12,0,12,0,,,,,,,,,,,,,,,,,,,,,,,,,,,,,,,,,,,,483.76465160000953,None,xm15,1,2023-03-20_11h32.12.195,threat_forest,2021.2.3,59.997468115504944,
13,0,13,0,0,0,0,0,,,,,,,486.5049366999883,490.0087431000138,None,left,0.6831739000044763,491.9408264000085,xm15,491.9408264000085,None,486.5049366999883,490.0087431000138,True,4,['p'],True,0.4444444444444445,0.6666666666666666,0.3333333333333333,1.0,1.0,0.9656336071428248,0.0,figh_cost,0,1,,,xm15,1,2023-03-20_11h32.12.195,threat_forest,2021.2.3,59.997468115504944,
13,0,13,0,1,0,1,0,,,,,,,,,,right,2.0913600999920163,496.9713686000032,xm15,492.65674040000886,494.6710577000049,496.9713686000032,None,True,1,['p'],False,0.27,0.3,0.1,1.0,1.0,0.7963326591781347,0.27,figh_cost,1,0,494.6710577000049,None,xm15,1,2023-03-20_11h32.12.195,threat_forest,2021.2.3,59.997468115504944,
13,0,13,0,,,,,,,,,,,,,,,,,,,,,,,,,,,,,,,,,,,,501.0984343000164,None,xm15,1,2023-03-20_11h32.12.195,threat_forest,2021.2.3,59.997468115504944,
14,0,14,0,0,0,0,0,,,,,,,504.45369280001614,507.95860859999084,None,right,1.3347603000001982,509.4083830000018,xm15,509.4083830000018,None,504.45369280001614,507.95860859999084,False,5,['p'],True,0.375,0.5,0.25,1.0,2.0,0.9850568223215076,0.0,wait_cost,0,4,,,xm15,1,2023-03-20_11h32.12.195,threat_forest,2021.2.3,59.997468115504944,
14,0,14,0,1,0,1,0,,,,,,,,,,right,1.1282741000177339,515.3354384000122,xm15,515.3354384000122,None,504.45369280001614,507.95860859999084,False,4,['p'],True,0.375,0.5,0.25,1.0,2.0,0.9850568223215076,0.0,wait_cost,0,3,512.7875042000087,None,xm15,1,2023-03-20_11h32.12.195,threat_forest,2021.2.3,59.997468115504944,
14,0,14,0,2,0,2,0,,,,,,,,,,right,1.722677699988708,521.7132176000159,xm15,521.7132176000159,None,504.45369280001614,507.95860859999084,False,3,['p'],True,0.375,0.5,0.25,1.0,2.0,0.9850568223215076,-0.25,wait_cost,0,2,518.4990348000138,None,xm15,1,2023-03-20_11h32.12.195,threat_forest,2021.2.3,59.997468115504944,
14,0,14,0,3,0,3,0,,,,,,,,,,right,1.2335262999986298,526.4916033000045,xm15,523.4611936000001,525.4755861000158,526.4916033000045,None,True,2,['p'],False,0.2448979591836734,0.2857142857142857,0.1428571428571428,1.0,2.0,0.8400769154957735,-0.7551020408163265,figh_cost,1,0,525.4755861000158,None,xm15,1,2023-03-20_11h32.12.195,threat_forest,2021.2.3,59.997468115504944,
14,0,14,0,,,,,,,,,,,,,,,,,,,,,,,,,,,,,,,,,,,,529.7718257000088,None,xm15,1,2023-03-20_11h32.12.195,threat_forest,2021.2.3,59.997468115504944,
15,0,15,0,0,0,0,0,,,,,,,531.4239509000035,534.9333456000022,None,left,1.2545932999928482,537.9011905000079,xm15,537.9011905000079,None,531.4239509000035,534.9333456000022,True,5,['r'],True,0.5,0.5,0.0,0.0,1.0,0.6309297535714574,0.0,succ_gain,0,6,,,xm15,1,2023-03-20_11h32.12.195,threat_forest,2021.2.3,59.997468115504944,
15,0,15,0,1,0,1,0,,,,,,,,,,right,1.6234524000028614,543.093105900014,xm15,543.093105900014,None,531.4239509000035,534.9333456000022,False,6,['r'],True,0.5,0.5,0.0,0.0,1.0,0.6309297535714574,0.0,wait_cost,0,5,541.1942184999934,None,xm15,1,2023-03-20_11h32.12.195,threat_forest,2021.2.3,59.997468115504944,
15,0,15,0,2,0,2,0,,,,,,,,,,right,1.8547972000087611,549.2204429999983,xm15,549.2204429999983,None,531.4239509000035,534.9333456000022,False,5,['r'],True,0.5,0.5,0.0,0.0,1.0,0.6309297535714574,0.0,wait_cost,0,4,546.7557017999934,None,xm15,1,2023-03-20_11h32.12.195,threat_forest,2021.2.3,59.997468115504944,
15,0,15,0,3,0,3,0,,,,,,,,,,left,2.0360479000082705,556.4802788000088,xm15,556.4802788000088,None,531.4239509000035,534.9333456000022,True,4,['r'],True,0.5,0.5,0.0,0.0,1.0,0.6309297535714574,0.0,succ_gain,0,5,553.1164788000169,None,xm15,1,2023-03-20_11h32.12.195,threat_forest,2021.2.3,59.997468115504944,
15,0,15,0,4,0,4,0,,,,,,,,,,right,1.4091692000220064,562.6427126000053,xm15,562.6427126000053,None,531.4239509000035,534.9333456000022,False,5,['r'],True,0.5,0.5,0.0,0.0,1.0,0.6309297535714574,0.0,wait_cost,0,4,560.5594776000071,None,xm15,1,2023-03-20_11h32.12.195,threat_forest,2021.2.3,59.997468115504944,
15,0,15,0,5,0,5,0,,,,,,,,,,left,0.7548710000119172,569.7254551000078,xm15,564.0736053000146,566.0876441000146,569.7254551000078,None,False,4,['r'],False,0.4081632653061224,0.5714285714285714,0.2857142857142857,2.0,1.0,0.9885754083994552,0.0,wait_cost,1,3,566.0876441000146,None,xm15,1,2023-03-20_11h32.12.195,threat_forest,2021.2.3,59.997468115504944,
15,0,15,0,6,0,6,0,,,,,,,,,,right,1.4343022000102792,575.9631932000048,xm15,575.9631932000048,None,570.5005797999911,572.5149571000075,False,3,['r'],True,0.5,0.5,0.0,0.0,1.0,0.6309297535714574,0.0,wait_cost,0,2,572.5149571000075,None,xm15,1,2023-03-20_11h32.12.195,threat_forest,2021.2.3,59.997468115504944,
15,0,15,0,7,0,7,0,,,,,,,,,,left,1.031935400009388,581.7234151000157,xm15,577.4275403000065,579.4419122000108,581.7234151000157,None,False,2,['r'],False,0.4081632653061224,0.5714285714285714,0.2857142857142857,2.0,1.0,0.9885754083994552,-0.5918367346938775,wait_cost,1,1,579.4419122000108,None,xm15,1,2023-03-20_11h32.12.195,threat_forest,2021.2.3,59.997468115504944,
15,0,15,0,,,,,,,,,,,,,,,,,,,,,,,,,,,,,,,,,,,,584.7870048999903,None,xm15,1,2023-03-20_11h32.12.195,threat_forest,2021.2.3,59.997468115504944,
16,0,16,0,0,0,0,0,,,,,,,587.2090198000078,590.7147608000087,None,right,0.9373892999719828,593.6806524000131,xm15,593.6806524000131,None,587.2090198000078,590.7147608000087,False,5,['p'],True,0.4444444444444445,0.6666666666666666,0.3333333333333333,1.0,2.0,0.9656336071428248,0.0,wait_cost,0,4,,,xm15,1,2023-03-20_11h32.12.195,threat_forest,2021.2.3,59.997468115504944,
16,0,16,0,1,0,1,0,,,,,,,,,,right,1.6455952000105754,598.7575007000123,xm15,594.6447286999901,596.6591865000082,598.7575007000123,None,True,4,['p'],False,0.2040816326530612,0.2857142857142857,0.2857142857142857,2.0,2.0,0.9335459102197724,0.0,unsucc_cost,1,2,596.6591865000082,None,xm15,1,2023-03-20_11h32.12.195,threat_forest,2021.2.3,59.997468115504944,
16,0,16,0,2,0,2,0,,,,,,,,,,right,1.623892400006298,603.6364142000093,xm15,603.6364142000093,None,600.422619399993,602.4371639000019,False,2,['p'],True,0.4444444444444445,0.6666666666666666,0.3333333333333333,1.0,2.0,0.9656336071428248,-0.5555555555555556,wait_cost,0,1,602.4371639000019,None,xm15,1,2023-03-20_11h32.12.195,threat_forest,2021.2.3,59.997468115504944,
16,0,16,0,3,0,3,0,,,,,,,,,,right,0.7551884000131395,610.0806040999887,xm15,605.2847610999888,607.29918490001,610.0806040999887,None,True,1,['p'],False,0.2040816326530612,0.2857142857142857,0.2857142857142857,2.0,2.0,0.9335459102197724,0.2040816326530612,figh_cost,1,0,607.29918490001,None,xm15,1,2023-03-20_11h32.12.195,threat_forest,2021.2.3,59.997468115504944,
16,0,16,0,,,,,,,,,,,,,,,,,,,,,,,,,,,,,,,,,,,,612.8775097999896,None,xm15,1,2023-03-20_11h32.12.195,threat_forest,2021.2.3,59.997468115504944,
17,0,17,0,0,0,0,0,,,,,,,614.5045978999988,617.9954481000022,None,right,0.8703968999907374,620.3734534000105,xm15,620.3734534000105,None,614.5045978999988,617.9954481000022,False,5,['p'],True,0.4166666666666667,0.5,0.1666666666666666,1.0,2.0,0.9358932809493992,0.0,wait_cost,0,4,,,xm15,1,2023-03-20_11h32.12.195,threat_forest,2021.2.3,59.997468115504944,
17,0,17,0,1,0,1,0,,,,,,,,,,right,0.7757879999990109,626.8812975999899,xm15,621.269995700015,623.2844822999905,626.8812975999899,None,True,4,['p'],False,0.2962962962962963,0.3333333333333333,0.1111111111111111,1.0,2.0,0.8325252476189534,0.0,figh_cost,1,1,623.2844822999905,None,xm15,1,2023-03-20_11h32.12.195,threat_forest,2021.2.3,59.997468115504944,
17,0,17,0,2,0,2,0,,,,,,,,,,right,0.6336719999962952,632.8090406999981,xm15,621.269995700015,623.2844822999905,632.8090406999981,None,True,1,['p'],False,0.2962962962962963,0.3333333333333333,0.1111111111111111,1.0,2.0,0.8325252476189534,0.2962962962962963,succ_gain,1,3,629.6949427000072,None,xm15,1,2023-03-20_11h32.12.195,threat_forest,2021.2.3,59.997468115504944,
17,0,17,0,3,0,3,0,,,,,,,,,,right,2.2865850999951363,639.0698496999976,xm15,621.269995700015,623.2844822999905,639.0698496999976,None,True,3,['p'],False,0.2962962962962963,0.3333333333333333,0.1111111111111111,1.0,2.0,0.8325252476189534,-0.1111111111111111,unsucc_cost,1,1,635.4729308999958,None,xm15,1,2023-03-20_11h32.12.195,threat_forest,2021.2.3,59.997468115504944,
17,0,17,0,4,0,4,0,,,,,,,,,,None,,644.4818382000085,xm15,644.4818382000085,None,641.3842996000021,643.398786500009,None,1,['p'],True,0.4166666666666667,0.5,0.1666666666666666,1.0,2.0,0.9358932809493992,0.4166666666666667,wait_cost,0,0,643.398786500009,None,xm15,1,2023-03-20_11h32.12.195,threat_forest,2021.2.3,59.997468115504944,
17,0,17,0,,,,,,,,,,,,,,,,,,,,,,,,,,,,,,,,,,,,649.5098875999975,None,xm15,1,2023-03-20_11h32.12.195,threat_forest,2021.2.3,59.997468115504944,
