miniblock.thisRepN,miniblock.thisTrialN,miniblock.thisN,miniblock.thisIndex,day.thisRepN,day.thisTrialN,day.thisN,day.thisIndex,welcoming.started,welcoming.stopped,key_resp_2.keys,key_resp_2.rt,key_resp_2.started,key_resp_2.stopped,forest.started,fixation_forest.started,fixation_forest.stopped,key_resp.keys,key_resp.rt,key_resp.started,Subject_ID,weather_left.started,weather_left.stopped,weather_right.started,weather_right.stopped,foraging T/F,in_LP,p/r heuristic,good_weather.T/F,p_succ_correct,p_succ_uncorrected,r_threat,n_oponents,gain_if_succ,weather_entropy,OP_value_difference,action_outcome,forest_side_L=0_R=1,out_LP,fixation_day.started,fixation_day.stopped,n_day-1.out_LP.,participant,session,date,expName,psychopyVersion,frameRate,
,,,,,,,,10.414243100000022,None,space,3.1957016999995176,10.414243100000022,None,,,,,,,,,,,,,,,,,,,,,,,,,,,,,wp8,4,2023-04-18_11h54.27.407,threat_forest,2021.2.3,60.030387381984646,
0,0,0,0,0,0,0,0,,,,,,,13.678928999999698,17.188263000000006,None,right,1.086506599999666,18.98686910000015,wp8,13.678928999999698,17.188263000000006,18.98686910000015,None,True,4,['r'],False,0.24,0.4,0.4,2.0,1.0,0.9801625908629508,0.0,succ_gain,1,5,,,,wp8,4,2023-04-18_11h54.27.407,threat_forest,2021.2.3,60.030387381984646,
0,0,0,0,1,0,1,0,,,,,,,,,,right,1.058766099999957,25.897056499999962,wp8,25.897056499999962,None,20.10251309999967,22.117033800000172,False,5,['r'],True,0.3333333333333333,0.3333333333333333,0.0,0.0,1.0,0.5793801642856949,0.0,wait_cost,0,4,22.117033800000172,None,5,wp8,4,2023-04-18_11h54.27.407,threat_forest,2021.2.3,60.030387381984646,
0,0,0,0,2,0,2,0,,,,,,,,,,right,0.9058567000001858,30.379811300000256,wp8,26.979464400000325,28.993804800000362,30.379811300000256,None,True,4,['r'],False,0.24,0.4,0.4,2.0,1.0,0.9801625908629508,0.0,unsucc_cost,1,2,28.993804800000362,None,4,wp8,4,2023-04-18_11h54.27.407,threat_forest,2021.2.3,60.030387381984646,
0,0,0,0,3,0,3,0,,,,,,,,,,right,1.4308171000002403,33.88994259999981,wp8,26.979464400000325,28.993804800000362,33.88994259999981,None,True,2,['r'],False,0.24,0.4,0.4,2.0,1.0,0.9801625908629508,-0.76,succ_gain,1,3,33.323310599999786,None,2,wp8,4,2023-04-18_11h54.27.407,threat_forest,2021.2.3,60.030387381984646,
0,0,0,0,4,0,4,0,,,,,,,,,,right,1.306239800000185,40.167115500000364,wp8,26.979464400000325,28.993804800000362,40.167115500000364,None,True,3,['r'],False,0.24,0.4,0.4,2.0,1.0,0.9801625908629508,-0.4,fight_cost,1,0,37.352761799999826,None,3,wp8,4,2023-04-18_11h54.27.407,threat_forest,2021.2.3,60.030387381984646,
0,0,0,0,,,,,,,,,,,,,,,,,,,,,,,,,,,,,,,,,,,,43.51753689999987,None,0,wp8,4,2023-04-18_11h54.27.407,threat_forest,2021.2.3,60.030387381984646,
1,0,1,0,0,0,0,0,,,,,,,44.54239820000021,48.04275469999993,None,left,1.3882187999997768,51.34139140000025,wp8,51.34139140000025,None,44.54239820000021,48.04275469999993,True,5,['r'],True,0.5,0.5,0.0,0.0,1.0,0.6309297535714574,0.0,succ_gain,0,6,,,,wp8,4,2023-04-18_11h54.27.407,threat_forest,2021.2.3,60.030387381984646,
1,0,1,0,1,0,1,0,,,,,,,,,,left,1.364883700000064,58.31683940000039,wp8,52.75548020000042,54.76980970000022,58.31683940000039,None,False,6,['r'],False,0.4081632653061224,0.5714285714285714,0.2857142857142857,2.0,1.0,0.9885754083994552,0.0,wait_cost,1,5,54.76980970000022,None,6,wp8,4,2023-04-18_11h54.27.407,threat_forest,2021.2.3,60.030387381984646,
1,0,1,0,2,0,2,0,,,,,,,,,,left,0.6818948000000091,64.56154640000022,wp8,52.75548020000042,54.76980970000022,64.56154640000022,None,False,5,['r'],False,0.4081632653061224,0.5714285714285714,0.2857142857142857,2.0,1.0,0.9885754083994552,0.0,wait_cost,1,4,61.713357200000246,None,5,wp8,4,2023-04-18_11h54.27.407,threat_forest,2021.2.3,60.030387381984646,
1,0,1,0,3,0,3,0,,,,,,,,,,left,0.6661495999996987,68.84023630000047,wp8,52.75548020000042,54.76980970000022,68.84023630000047,None,False,4,['r'],False,0.4081632653061224,0.5714285714285714,0.2857142857142857,2.0,1.0,0.9885754083994552,0.0,wait_cost,1,3,67.27472089999992,None,4,wp8,4,2023-04-18_11h54.27.407,threat_forest,2021.2.3,60.030387381984646,
1,0,1,0,4,0,4,0,,,,,,,,,,left,0.5207452000004196,72.43689379999978,wp8,52.75548020000042,54.76980970000022,72.43689379999978,None,False,3,['r'],False,0.4081632653061224,0.5714285714285714,0.2857142857142857,2.0,1.0,0.9885754083994552,-0.2857142857142857,wait_cost,1,2,71.5374154000001,None,3,wp8,4,2023-04-18_11h54.27.407,threat_forest,2021.2.3,60.030387381984646,
1,0,1,0,5,0,5,0,,,,,,,,,,right,0.537395800000013,76.10072750000018,wp8,52.75548020000042,54.76980970000022,76.10072750000018,None,True,2,['r'],False,0.4081632653061224,0.5714285714285714,0.2857142857142857,2.0,1.0,0.9885754083994552,-0.5918367346938775,unsucc_cost,1,0,75.00086650000048,None,2,wp8,4,2023-04-18_11h54.27.407,threat_forest,2021.2.3,60.030387381984646,
1,0,1,0,,,,,,,,,,,,,,,,,,,,,,,,,,,,,,,,,,,,78.68079829999988,None,0,wp8,4,2023-04-18_11h54.27.407,threat_forest,2021.2.3,60.030387381984646,
2,0,2,0,0,0,0,0,,,,,,,79.70378439999968,83.20987090000017,None,left,1.7574984999992012,84.7753730000004,wp8,84.7753730000004,None,79.70378439999968,83.20987090000017,True,4,['p'],True,0.4444444444444445,0.6666666666666666,0.3333333333333333,1.0,2.0,0.9656336071428248,0.0,succ_gain,0,6,,,,wp8,4,2023-04-18_11h54.27.407,threat_forest,2021.2.3,60.030387381984646,
2,0,2,0,1,0,1,0,,,,,,,,,,left,0.4956081999998787,91.90210360000037,wp8,86.55709019999995,88.57152200000019,91.90210360000037,None,False,6,['p'],False,0.2448979591836734,0.2857142857142857,0.1428571428571428,1.0,2.0,0.8400769154957735,0.0,wait_cost,1,5,88.57152200000019,None,6,wp8,4,2023-04-18_11h54.27.407,threat_forest,2021.2.3,60.030387381984646,
2,0,2,0,2,0,2,0,,,,,,,,,,right,1.5077009000006,97.21376220000002,wp8,86.55709019999995,88.57152200000019,97.21376220000002,None,True,5,['p'],False,0.2448979591836734,0.2857142857142857,0.1428571428571428,1.0,2.0,0.8400769154957735,0.0,succ_gain,1,6,94.43276030000015,None,5,wp8,4,2023-04-18_11h54.27.407,threat_forest,2021.2.3,60.030387381984646,
2,0,2,0,3,0,3,0,,,,,,,,,,right,0.8001632000004975,103.84118930000022,wp8,103.84118930000022,None,98.74564340000052,100.76014579999992,False,6,['p'],True,0.4444444444444445,0.6666666666666666,0.3333333333333333,1.0,2.0,0.9656336071428248,0.0,wait_cost,0,5,100.76014579999992,None,6,wp8,4,2023-04-18_11h54.27.407,threat_forest,2021.2.3,60.030387381984646,
2,0,2,0,4,0,4,0,,,,,,,,,,right,0.9458567000001494,110.41826109999965,wp8,110.41826109999965,None,98.74564340000052,100.76014579999992,False,5,['p'],True,0.4444444444444445,0.6666666666666666,0.3333333333333333,1.0,2.0,0.9656336071428248,0.0,wait_cost,0,4,106.68791890000011,None,5,wp8,4,2023-04-18_11h54.27.407,threat_forest,2021.2.3,60.030387381984646,
2,0,2,0,5,0,5,0,,,,,,,,,,right,1.1341734999996333,114.26451830000042,wp8,114.26451830000042,None,98.74564340000052,100.76014579999992,False,4,['p'],True,0.4444444444444445,0.6666666666666666,0.3333333333333333,1.0,2.0,0.9656336071428248,0.0,wait_cost,0,3,113.39830170000005,None,4,wp8,4,2023-04-18_11h54.27.407,threat_forest,2021.2.3,60.030387381984646,
2,0,2,0,6,0,6,0,,,,,,,,,,right,0.4734417999998186,118.91008030000012,wp8,115.43018370000027,117.44452910000018,118.91008030000012,None,True,3,['p'],False,0.2448979591836734,0.2857142857142857,0.1428571428571428,1.0,2.0,0.8400769154957735,-0.1428571428571428,unsucc_cost,1,1,117.44452910000018,None,3,wp8,4,2023-04-18_11h54.27.407,threat_forest,2021.2.3,60.030387381984646,
2,0,2,0,7,0,7,0,,,,,,,,,,left,1.7914914000002682,123.07294040000033,wp8,123.07294040000033,None,119.40966660000049,121.42411609999999,True,1,['p'],True,0.4444444444444445,0.6666666666666666,0.3333333333333333,1.0,2.0,0.9656336071428248,0.4444444444444444,unsucc_cost,0,0,121.42411609999999,None,1,wp8,4,2023-04-18_11h54.27.407,threat_forest,2021.2.3,60.030387381984646,
2,0,2,0,,,,,,,,,,,,,,,,,,,,,,,,,,,,,,,,,,,,126.90248400000019,None,0,wp8,4,2023-04-18_11h54.27.407,threat_forest,2021.2.3,60.030387381984646,
3,0,3,0,0,0,0,0,,,,,,,130.40829209999993,133.9124529999999,None,right,1.8403154000006907,134.51476430000002,wp8,130.40829209999993,133.9124529999999,134.51476430000002,None,True,4,['r'],False,0.2592592592592592,0.3333333333333333,0.2222222222222222,2.0,2.0,0.9327883776363324,0.0,succ_gain,1,6,,,,wp8,4,2023-04-18_11h54.27.407,threat_forest,2021.2.3,60.030387381984646,
3,0,3,0,1,0,1,0,,,,,,,,,,left,0.3853960000005827,141.20616040000004,wp8,130.40829209999993,133.9124529999999,141.20616040000004,None,False,6,['r'],False,0.2592592592592592,0.3333333333333333,0.2222222222222222,2.0,2.0,0.9327883776363324,0.0,wait_cost,1,5,138.3916965999997,None,6,wp8,4,2023-04-18_11h54.27.407,threat_forest,2021.2.3,60.030387381984646,
3,0,3,0,2,0,2,0,,,,,,,,,,left,0.7673670000003767,145.55207150000024,wp8,130.40829209999993,133.9124529999999,145.55207150000024,None,False,5,['r'],False,0.2592592592592592,0.3333333333333333,0.2222222222222222,2.0,2.0,0.9327883776363324,0.0,wait_cost,1,4,143.63673300000028,None,5,wp8,4,2023-04-18_11h54.27.407,threat_forest,2021.2.3,60.030387381984646,
3,0,3,0,3,0,3,0,,,,,,,,,,left,1.4040662000006705,150.68057169999975,wp8,150.68057169999975,None,146.35126709999986,148.36564100000032,True,4,['r'],True,0.4444444444444445,0.6666666666666666,0.3333333333333333,1.0,2.0,0.9656336071428248,0.0,fight_cost,0,1,148.36564100000032,None,4,wp8,4,2023-04-18_11h54.27.407,threat_forest,2021.2.3,60.030387381984646,
3,0,3,0,4,0,4,0,,,,,,,,,,left,1.413729500000045,154.62666739999986,wp8,154.62666739999986,None,146.35126709999986,148.36564100000032,True,1,['r'],True,0.4444444444444445,0.6666666666666666,0.3333333333333333,1.0,2.0,0.9656336071428248,0.4444444444444444,succ_gain,0,3,154.12688210000033,None,1,wp8,4,2023-04-18_11h54.27.407,threat_forest,2021.2.3,60.030387381984646,
3,0,3,0,5,0,5,0,,,,,,,,,,left,1.594130700000278,161.7367777999998,wp8,161.7367777999998,None,146.35126709999986,148.36564100000032,True,3,['r'],True,0.4444444444444445,0.6666666666666666,0.3333333333333333,1.0,2.0,0.9656336071428248,-0.3333333333333333,fight_cost,0,0,158.0730923000001,None,3,wp8,4,2023-04-18_11h54.27.407,threat_forest,2021.2.3,60.030387381984646,
3,0,3,0,,,,,,,,,,,,,,,,,,,,,,,,,,,,,,,,,,,,165.36634330000015,None,0,wp8,4,2023-04-18_11h54.27.407,threat_forest,2021.2.3,60.030387381984646,
4,0,4,0,0,0,0,0,,,,,,,167.4876266000001,170.99442720000025,None,right,1.8531994000004488,171.76110440000048,wp8,167.4876266000001,170.99442720000025,171.76110440000048,None,True,4,['p'],False,0.2222222222222222,0.6666666666666666,0.6666666666666666,2.0,1.0,0.77250688571426,0.0,unsucc_cost,1,2,,,,wp8,4,2023-04-18_11h54.27.407,threat_forest,2021.2.3,60.030387381984646,
4,0,4,0,1,0,1,0,,,,,,,,,,right,1.456176300000152,178.92102450000039,wp8,167.4876266000001,170.99442720000025,178.92102450000039,None,True,2,['p'],False,0.2222222222222222,0.6666666666666666,0.6666666666666666,2.0,1.0,0.77250688571426,-0.7777777777777778,fight_cost,1,0,175.65672950000044,None,2,wp8,4,2023-04-18_11h54.27.407,threat_forest,2021.2.3,60.030387381984646,
4,0,4,0,,,,,,,,,,,,,,,,,,,,,,,,,,,,,,,,,,,,182.41709189999983,None,0,wp8,4,2023-04-18_11h54.27.407,threat_forest,2021.2.3,60.030387381984646,
5,0,5,0,0,0,0,0,,,,,,,183.35344669999995,186.8629302999998,None,left,1.7563623000005464,188.14739660000032,wp8,188.14739660000032,None,183.35344669999995,186.8629302999998,True,4,['p'],True,0.5,0.5,0.0,0.0,2.0,0.6309297535714574,0.0,succ_gain,0,6,,,,wp8,4,2023-04-18_11h54.27.407,threat_forest,2021.2.3,60.030387381984646,
5,0,5,0,1,0,1,0,,,,,,,,,,left,0.6540306999995664,193.80710360000012,wp8,189.92717790000006,191.94143480000002,193.80710360000012,None,False,6,['p'],False,0.36,0.6,0.4,2.0,2.0,0.9801625908629508,0.0,wait_cost,1,5,191.94143480000002,None,6,wp8,4,2023-04-18_11h54.27.407,threat_forest,2021.2.3,60.030387381984646,
5,0,5,0,2,0,2,0,,,,,,,,,,left,1.6139315000000352,199.7693680000002,wp8,199.7693680000002,None,194.4893245000003,196.50377509999998,True,5,['p'],True,0.5,0.5,0.0,0.0,2.0,0.6309297535714574,0.0,fight_cost,0,2,196.50377509999998,None,5,wp8,4,2023-04-18_11h54.27.407,threat_forest,2021.2.3,60.030387381984646,
5,0,5,0,3,0,3,0,,,,,,,,,,right,1.2607386999998198,204.39670130000013,wp8,201.4163626999998,203.4307399999998,204.39670130000013,None,True,2,['p'],False,0.36,0.6,0.4,2.0,2.0,0.9801625908629508,-0.64,succ_gain,1,4,203.4307399999998,None,2,wp8,4,2023-04-18_11h54.27.407,threat_forest,2021.2.3,60.030387381984646,
5,0,5,0,4,0,4,0,,,,,,,,,,right,0.7553365000003396,210.25798550000036,wp8,201.4163626999998,203.4307399999998,210.25798550000036,None,True,4,['p'],False,0.36,0.6,0.4,2.0,2.0,0.9801625908629508,0.0,unsucc_cost,1,2,207.69341020000047,None,4,wp8,4,2023-04-18_11h54.27.407,threat_forest,2021.2.3,60.030387381984646,
5,0,5,0,5,0,5,0,,,,,,,,,,left,1.962956999999733,215.02017220000016,wp8,215.02017220000016,None,211.04337680000026,213.0550217,True,2,['p'],True,0.5,0.5,0.0,0.0,2.0,0.6309297535714574,-0.5,fight_cost,0,0,213.0550217,None,2,wp8,4,2023-04-18_11h54.27.407,threat_forest,2021.2.3,60.030387381984646,
5,0,5,0,,,,,,,,,,,,,,,,,,,,,,,,,,,,,,,,,,,,219.01618640000015,None,0,wp8,4,2023-04-18_11h54.27.407,threat_forest,2021.2.3,60.030387381984646,
6,0,6,0,0,0,0,0,,,,,,,221.1927579000003,224.6892938000001,None,right,1.4786819999999352,228.21172170000045,wp8,221.1927579000003,224.6892938000001,228.21172170000045,None,True,4,['r'],False,0.16,0.2,0.2,2.0,2.0,0.8198746470064713,0.0,succ_gain,1,6,,,,wp8,4,2023-04-18_11h54.27.407,threat_forest,2021.2.3,60.030387381984646,
6,0,6,0,1,0,1,0,,,,,,,,,,right,0.6064775999993799,235.45232839999971,wp8,235.45232839999971,None,229.72332019999976,231.73763140000028,False,6,['r'],True,0.24,0.4,0.4,2.0,2.0,0.9801625908629508,0.0,wait_cost,0,5,231.73763140000028,None,6,wp8,4,2023-04-18_11h54.27.407,threat_forest,2021.2.3,60.030387381984646,
6,0,6,0,2,0,2,0,,,,,,,,,,right,1.6595342999999048,239.01751760000025,wp8,236.0839904000004,238.09834020000017,239.01751760000025,None,True,5,['r'],False,0.16,0.2,0.2,2.0,2.0,0.8198746470064713,0.0,succ_gain,1,6,238.09834020000017,None,5,wp8,4,2023-04-18_11h54.27.407,threat_forest,2021.2.3,60.030387381984646,
6,0,6,0,3,0,3,0,,,,,,,,,,right,0.5852356000004875,246.0913811999999,wp8,246.0913811999999,None,240.69641930000034,242.71062530000017,False,6,['r'],True,0.24,0.4,0.4,2.0,2.0,0.9801625908629508,0.0,wait_cost,0,5,242.71062530000017,None,6,wp8,4,2023-04-18_11h54.27.407,threat_forest,2021.2.3,60.030387381984646,
6,0,6,0,4,0,4,0,,,,,,,,,,left,0.6660431000000244,251.85560690000057,wp8,246.7072962000002,248.72177179999926,251.85560690000057,None,False,5,['r'],False,0.16,0.2,0.2,2.0,2.0,0.8198746470064713,0.0,wait_cost,1,4,248.72177179999926,None,5,wp8,4,2023-04-18_11h54.27.407,threat_forest,2021.2.3,60.030387381984646,
6,0,6,0,5,0,5,0,,,,,,,,,,right,0.48044060000029276,258.36505249999936,wp8,258.36505249999936,None,252.55188129999988,254.56619689999934,False,4,['r'],True,0.24,0.4,0.4,2.0,2.0,0.9801625908629508,0.0,wait_cost,0,3,254.56619689999934,None,4,wp8,4,2023-04-18_11h54.27.407,threat_forest,2021.2.3,60.030387381984646,
6,0,6,0,6,0,6,0,,,,,,,,,,left,0.3918043999983638,263.61050109999996,wp8,258.86262499999975,260.87703599999986,263.61050109999996,None,False,3,['r'],False,0.16,0.2,0.2,2.0,2.0,0.8198746470064713,-0.2,wait_cost,1,2,260.87703599999986,None,3,wp8,4,2023-04-18_11h54.27.407,threat_forest,2021.2.3,60.030387381984646,
6,0,6,0,7,0,7,0,,,,,,,,,,left,0.6690557999991142,269.3527319999994,wp8,258.86262499999975,260.87703599999986,269.3527319999994,None,False,2,['r'],False,0.16,0.2,0.2,2.0,2.0,0.8198746470064713,-0.8400000000000001,wait_cost,1,1,266.0388896000004,None,2,wp8,4,2023-04-18_11h54.27.407,threat_forest,2021.2.3,60.030387381984646,
6,0,6,0,,,,,,,,,,,,,,,,,,,,,,,,,,,,,,,,,,,,272.0666146000003,None,1,wp8,4,2023-04-18_11h54.27.407,threat_forest,2021.2.3,60.030387381984646,
7,0,7,0,0,0,0,0,,,,,,,273.29086199999983,276.7953952000007,None,left,1.3773823999999877,279.5267093000002,wp8,279.5267093000002,None,273.29086199999983,276.7953952000007,True,4,['p'],True,0.32,0.4,0.2,1.0,1.0,0.9455672104350704,0.0,unsucc_cost,0,2,,,,wp8,4,2023-04-18_11h54.27.407,threat_forest,2021.2.3,60.030387381984646,
7,0,7,0,1,0,1,0,,,,,,,,,,left,1.4478617000004306,286.5033934000003,wp8,286.5033934000003,None,273.29086199999983,276.7953952000007,True,2,['p'],True,0.32,0.4,0.2,1.0,1.0,0.9455672104350704,-0.6799999999999999,unsucc_cost,0,0,282.93976719999955,None,2,wp8,4,2023-04-18_11h54.27.407,threat_forest,2021.2.3,60.030387381984646,
7,0,7,0,,,,,,,,,,,,,,,,,,,,,,,,,,,,,,,,,,,,289.98317230000066,None,0,wp8,4,2023-04-18_11h54.27.407,threat_forest,2021.2.3,60.030387381984646,
8,0,8,0,0,0,0,0,,,,,,,291.95917250000093,295.4504252000006,None,right,1.9480707999991864,295.97797229999924,wp8,291.95917250000093,295.4504252000006,295.97797229999924,None,True,4,['p'],False,0.2,0.2,0.0,0.0,2.0,0.4554859150035951,0.0,unsucc_cost,1,2,,,,wp8,4,2023-04-18_11h54.27.407,threat_forest,2021.2.3,60.030387381984646,
8,0,8,0,1,0,1,0,,,,,,,,,,right,1.336165599999731,301.2229776000004,wp8,291.95917250000093,295.4504252000006,301.2229776000004,None,True,2,['p'],False,0.2,0.2,0.0,0.0,2.0,0.4554859150035951,-0.8,unsucc_cost,1,0,299.9570870000007,None,2,wp8,4,2023-04-18_11h54.27.407,threat_forest,2021.2.3,60.030387381984646,
8,0,8,0,,,,,,,,,,,,,,,,,,,,,,,,,,,,,,,,,,,,304.6028698000009,None,0,wp8,4,2023-04-18_11h54.27.407,threat_forest,2021.2.3,60.030387381984646,
9,0,9,0,0,0,0,0,,,,,,,307.37282009999944,310.88028379999923,None,left,0.8824811000013142,313.26223109999955,wp8,313.26223109999955,None,307.37282009999944,310.88028379999923,True,5,['r'],True,0.3333333333333333,0.3333333333333333,0.0,0.0,2.0,0.5793801642856949,0.0,succ_gain,0,6,,,,wp8,4,2023-04-18_11h54.27.407,threat_forest,2021.2.3,60.030387381984646,
9,0,9,0,1,0,1,0,,,,,,,,,,right,1.2823960000005172,317.0914066999994,wp8,317.0914066999994,None,307.37282009999944,310.88028379999923,False,6,['r'],True,0.3333333333333333,0.3333333333333333,0.0,0.0,2.0,0.5793801642856949,0.0,wait_cost,0,5,316.1920148999998,None,6,wp8,4,2023-04-18_11h54.27.407,threat_forest,2021.2.3,60.030387381984646,
9,0,9,0,2,0,2,0,,,,,,,,,,right,1.4949367999997776,323.1191553999997,wp8,318.4068385999999,320.4213660000005,323.1191553999997,None,True,5,['r'],False,0.25,0.5,0.5,2.0,2.0,0.9463946303571862,0.0,succ_gain,1,6,320.4213660000005,None,5,wp8,4,2023-04-18_11h54.27.407,threat_forest,2021.2.3,60.030387381984646,
9,0,9,0,3,0,3,0,,,,,,,,,,left,0.7010382000007667,327.1986699000008,wp8,318.4068385999999,320.4213660000005,327.1986699000008,None,False,6,['r'],False,0.25,0.5,0.5,2.0,2.0,0.9463946303571862,0.0,wait_cost,1,5,326.64884709999933,None,6,wp8,4,2023-04-18_11h54.27.407,threat_forest,2021.2.3,60.030387381984646,
9,0,9,0,4,0,4,0,,,,,,,,,,left,0.6477452000017365,330.9288483,wp8,318.4068385999999,320.4213660000005,330.9288483,None,False,5,['r'],False,0.25,0.5,0.5,2.0,2.0,0.9463946303571862,0.0,wait_cost,1,4,329.94569460000093,None,5,wp8,4,2023-04-18_11h54.27.407,threat_forest,2021.2.3,60.030387381984646,
9,0,9,0,5,0,5,0,,,,,,,,,,right,1.1241450999987137,336.889631,wp8,336.889631,None,331.5949247000008,333.6089131000008,False,4,['r'],True,0.3333333333333333,0.3333333333333333,0.0,0.0,2.0,0.5793801642856949,0.0,wait_cost,0,3,333.6089131000008,None,4,wp8,4,2023-04-18_11h54.27.407,threat_forest,2021.2.3,60.030387381984646,
9,0,9,0,6,0,6,0,,,,,,,,,,right,0.8371038999994198,343.849692400001,wp8,343.849692400001,None,331.5949247000008,333.6089131000008,False,3,['r'],True,0.3333333333333333,0.3333333333333333,0.0,0.0,2.0,0.5793801642856949,0.0,wait_cost,0,2,340.05302400000073,None,3,wp8,4,2023-04-18_11h54.27.407,threat_forest,2021.2.3,60.030387381984646,
9,0,9,0,7,0,7,0,,,,,,,,,,right,0.6128626999998232,349.11125080000056,wp8,349.11125080000056,None,331.5949247000008,333.6089131000008,False,2,['r'],True,0.3333333333333333,0.3333333333333333,0.0,0.0,2.0,0.5793801642856949,-0.6666666666666667,wait_cost,0,1,346.73005250000097,None,2,wp8,4,2023-04-18_11h54.27.407,threat_forest,2021.2.3,60.030387381984646,
9,0,9,0,,,,,,,,,,,,,,,,,,,,,,,,,,,,,,,,,,,,351.75866750000023,None,1,wp8,4,2023-04-18_11h54.27.407,threat_forest,2021.2.3,60.030387381984646,
10,0,10,0,0,0,0,0,,,,,,,352.60248669999964,356.09306130000004,None,left,1.0442168999998103,358.669306400001,wp8,358.669306400001,None,352.60248669999964,356.09306130000004,True,4,['r'],True,0.5714285714285714,0.5714285714285714,0.0,0.0,2.0,0.6216097450797566,0.0,succ_gain,0,6,,,,wp8,4,2023-04-18_11h54.27.407,threat_forest,2021.2.3,60.030387381984646,
10,0,10,0,1,0,1,0,,,,,,,,,,right,0.5856493999999657,362.44925630000034,wp8,362.44925630000034,None,352.60248669999964,356.09306130000004,False,6,['r'],True,0.5714285714285714,0.5714285714285714,0.0,0.0,2.0,0.6216097450797566,0.0,wait_cost,0,5,361.73269849999997,None,6,wp8,4,2023-04-18_11h54.27.407,threat_forest,2021.2.3,60.030387381984646,
10,0,10,0,2,0,2,0,,,,,,,,,,left,1.010970699999234,367.9938818999999,wp8,367.9938818999999,None,352.60248669999964,356.09306130000004,True,5,['r'],True,0.5714285714285714,0.5714285714285714,0.0,0.0,2.0,0.6216097450797566,0.0,succ_gain,0,6,365.1129034000005,None,5,wp8,4,2023-04-18_11h54.27.407,threat_forest,2021.2.3,60.030387381984646,
10,0,10,0,3,0,3,0,,,,,,,,,,left,0.5904159000001528,374.17472409999937,wp8,369.0262894999996,371.0407338999994,374.17472409999937,None,False,6,['r'],False,0.46875,0.625,0.25,2.0,2.0,0.9634951148421658,0.0,wait_cost,1,5,371.0407338999994,None,6,wp8,4,2023-04-18_11h54.27.407,threat_forest,2021.2.3,60.030387381984646,
10,0,10,0,4,0,4,0,,,,,,,,,,left,0.5569722000000183,378.86705339999935,wp8,369.0262894999996,371.0407338999994,378.86705339999935,None,False,5,['r'],False,0.46875,0.625,0.25,2.0,2.0,0.9634951148421658,0.0,wait_cost,1,4,376.8018936999997,None,5,wp8,4,2023-04-18_11h54.27.407,threat_forest,2021.2.3,60.030387381984646,
10,0,10,0,5,0,5,0,,,,,,,,,,right,0.6576052000000345,384.04720909999924,wp8,384.04720909999924,None,379.44979779999994,381.46423739999955,False,4,['r'],True,0.5714285714285714,0.5714285714285714,0.0,0.0,2.0,0.6216097450797566,0.0,wait_cost,0,3,381.46423739999955,None,4,wp8,4,2023-04-18_11h54.27.407,threat_forest,2021.2.3,60.030387381984646,
10,0,10,0,6,0,6,0,,,,,,,,,,left,0.6482914999996865,388.46025519999966,wp8,384.7282369000004,386.74267280000095,388.46025519999966,None,False,3,['r'],False,0.46875,0.625,0.25,2.0,2.0,0.9634951148421658,-0.25,wait_cost,1,2,386.74267280000095,None,3,wp8,4,2023-04-18_11h54.27.407,threat_forest,2021.2.3,60.030387381984646,
10,0,10,0,7,0,7,0,,,,,,,,,,right,0.8189096999994945,394.3691624000003,wp8,394.3691624000003,None,389.14076120000027,391.15508880000016,False,2,['r'],True,0.5714285714285714,0.5714285714285714,0.0,0.0,2.0,0.6216097450797566,-0.4285714285714286,wait_cost,0,1,391.15508880000016,None,2,wp8,4,2023-04-18_11h54.27.407,threat_forest,2021.2.3,60.030387381984646,
10,0,10,0,,,,,,,,,,,,,,,,,,,,,,,,,,,,,,,,,,,,397.232852000001,None,1,wp8,4,2023-04-18_11h54.27.407,threat_forest,2021.2.3,60.030387381984646,
11,0,11,0,0,0,0,0,,,,,,,399.7398606000006,403.243967800001,None,right,1.0545978999998624,405.3257329999997,wp8,399.7398606000006,403.243967800001,405.3257329999997,None,True,5,['r'],False,0.3333333333333333,0.5,0.3333333333333333,2.0,2.0,1.0,0.0,unsucc_cost,1,3,,,,wp8,4,2023-04-18_11h54.27.407,threat_forest,2021.2.3,60.030387381984646,
11,0,11,0,1,0,1,0,,,,,,,,,,left,1.5762953000012203,409.2218735999995,wp8,409.2218735999995,None,406.4078733000006,408.42240239999956,True,3,['r'],True,0.4,0.4,0.0,0.0,2.0,0.6126016192893442,0.0,succ_gain,0,5,408.42240239999956,None,3,wp8,4,2023-04-18_11h54.27.407,threat_forest,2021.2.3,60.030387381984646,
11,0,11,0,2,0,2,0,,,,,,,,,,left,1.4847797000002174,414.25063279999995,wp8,414.25063279999995,None,406.4078733000006,408.42240239999956,True,5,['r'],True,0.4,0.4,0.0,0.0,2.0,0.6126016192893442,0.0,unsucc_cost,0,3,412.8348263000007,None,5,wp8,4,2023-04-18_11h54.27.407,threat_forest,2021.2.3,60.030387381984646,
11,0,11,0,3,0,3,0,,,,,,,,,,left,1.5479426000001695,419.72936690000097,wp8,419.72936690000097,None,406.4078733000006,408.42240239999956,True,3,['r'],True,0.4,0.4,0.0,0.0,2.0,0.6126016192893442,0.0,unsucc_cost,0,1,417.78027010000005,None,3,wp8,4,2023-04-18_11h54.27.407,threat_forest,2021.2.3,60.030387381984646,
11,0,11,0,4,0,4,0,,,,,,,,,,right,1.0337180999995326,424.9406562999993,wp8,421.2938642000008,423.3083740000002,424.9406562999993,None,True,1,['r'],False,0.3333333333333333,0.5,0.3333333333333333,2.0,2.0,1.0,0.3333333333333332,unsucc_cost,1,0,423.3083740000002,None,1,wp8,4,2023-04-18_11h54.27.407,threat_forest,2021.2.3,60.030387381984646,
11,0,11,0,,,,,,,,,,,,,,,,,,,,,,,,,,,,,,,,,,,,428.02113740000095,None,0,wp8,4,2023-04-18_11h54.27.407,threat_forest,2021.2.3,60.030387381984646,
12,0,12,0,0,0,0,0,,,,,,,430.60843080000086,434.1149351999993,None,right,1.2303695000009611,434.6488515000001,wp8,430.60843080000086,434.1149351999993,434.6488515000001,None,True,4,['p'],False,0.4444444444444445,0.6666666666666666,0.3333333333333333,2.0,2.0,0.9656336071428248,0.0,unsucc_cost,1,2,,,,wp8,4,2023-04-18_11h54.27.407,threat_forest,2021.2.3,60.030387381984646,
12,0,12,0,1,0,1,0,,,,,,,,,,left,1.504807899998923,440.1596608,wp8,440.1596608,None,435.8970577,437.91150109999944,True,2,['p'],True,0.6,0.6,0.0,0.0,2.0,0.6126016192893442,-0.4,succ_gain,0,4,437.91150109999944,None,2,wp8,4,2023-04-18_11h54.27.407,threat_forest,2021.2.3,60.030387381984646,
12,0,12,0,2,0,2,0,,,,,,,,,,right,0.8174302000006719,446.4038694999999,wp8,441.6915269000001,443.7060755000002,446.4038694999999,None,True,4,['p'],False,0.4444444444444445,0.6666666666666666,0.3333333333333333,2.0,2.0,0.9656336071428248,0.0,succ_gain,1,6,443.7060755000002,None,4,wp8,4,2023-04-18_11h54.27.407,threat_forest,2021.2.3,60.030387381984646,
12,0,12,0,3,0,3,0,,,,,,,,,,right,0.733133199999429,450.46798950000084,wp8,450.46798950000084,None,447.25306420000015,449.2674683999994,False,6,['p'],True,0.6,0.6,0.0,0.0,2.0,0.6126016192893442,0.0,wait_cost,0,5,449.2674683999994,None,6,wp8,4,2023-04-18_11h54.27.407,threat_forest,2021.2.3,60.030387381984646,
12,0,12,0,4,0,4,0,,,,,,,,,,right,0.4077488999992056,456.5276967000009,wp8,456.5276967000009,None,447.25306420000015,449.2674683999994,False,5,['p'],True,0.6,0.6,0.0,0.0,2.0,0.6126016192893442,0.0,wait_cost,0,4,453.24703220000083,None,5,wp8,4,2023-04-18_11h54.27.407,threat_forest,2021.2.3,60.030387381984646,
12,0,12,0,5,0,5,0,,,,,,,,,,right,0.36672750000070664,460.42421529999956,wp8,456.9606559999993,458.97498000000087,460.42421529999956,None,True,4,['p'],False,0.4444444444444445,0.6666666666666666,0.3333333333333333,2.0,2.0,0.9656336071428248,0.0,unsucc_cost,1,2,458.97498000000087,None,4,wp8,4,2023-04-18_11h54.27.407,threat_forest,2021.2.3,60.030387381984646,
12,0,12,0,6,0,6,0,,,,,,,,,,right,0.7491454999999405,466.50171059999957,wp8,456.9606559999993,458.97498000000087,466.50171059999957,None,True,2,['p'],False,0.4444444444444445,0.6666666666666666,0.3333333333333333,2.0,2.0,0.9656336071428248,-0.5555555555555556,succ_gain,1,4,462.82155539999985,None,2,wp8,4,2023-04-18_11h54.27.407,threat_forest,2021.2.3,60.030387381984646,
12,0,12,0,7,0,7,0,,,,,,,,,,right,0.9774431000005279,472.9304955000007,wp8,472.9304955000007,None,467.26759370000036,469.2821770999999,False,4,['p'],True,0.6,0.6,0.0,0.0,2.0,0.6126016192893442,0.0,wait_cost,0,3,469.2821770999999,None,4,wp8,4,2023-04-18_11h54.27.407,threat_forest,2021.2.3,60.030387381984646,
12,0,12,0,,,,,,,,,,,,,,,,,,,,,,,,,,,,,,,,,,,,475.9425341999995,None,3,wp8,4,2023-04-18_11h54.27.407,threat_forest,2021.2.3,60.030387381984646,
13,0,13,0,0,0,0,0,,,,,,,477.2003208999995,480.70479180000075,None,left,1.2610419000011461,481.6888811000008,wp8,481.6888811000008,None,477.2003208999995,480.70479180000075,True,5,['p'],True,0.4444444444444445,0.6666666666666666,0.3333333333333333,1.0,2.0,0.9656336071428248,0.0,unsucc_cost,0,3,,,,wp8,4,2023-04-18_11h54.27.407,threat_forest,2021.2.3,60.030387381984646,
13,0,13,0,1,0,1,0,,,,,,,,,,right,1.092779900000096,485.8670511,wp8,482.96976539999923,484.98402779999924,485.8670511,None,True,3,['p'],False,0.2222222222222222,0.2222222222222222,0.0,0.0,2.0,0.4821593609696809,0.0,succ_gain,1,5,484.98402779999924,None,3,wp8,4,2023-04-18_11h54.27.407,threat_forest,2021.2.3,60.030387381984646,
13,0,13,0,2,0,2,0,,,,,,,,,,right,2.0027612000012596,490.4630894000002,wp8,482.96976539999923,484.98402779999924,490.4630894000002,None,True,5,['p'],False,0.2222222222222222,0.2222222222222222,0.0,0.0,2.0,0.4821593609696809,0.0,fight_cost,1,2,488.996998300001,None,5,wp8,4,2023-04-18_11h54.27.407,threat_forest,2021.2.3,60.030387381984646,
13,0,13,0,3,0,3,0,,,,,,,,,,right,2.797991900000852,496.3071464000004,wp8,482.96976539999923,484.98402779999924,496.3071464000004,None,True,2,['p'],False,0.2222222222222222,0.2222222222222222,0.0,0.0,2.0,0.4821593609696809,-0.7777777777777778,succ_gain,1,4,494.50858230000085,None,2,wp8,4,2023-04-18_11h54.27.407,threat_forest,2021.2.3,60.030387381984646,
13,0,13,0,4,0,4,0,,,,,,,,,,left,1.1981269999996584,504.6840329000006,wp8,504.6840329000006,None,499.13784289999967,501.15222150000045,True,4,['p'],True,0.4444444444444445,0.6666666666666666,0.3333333333333333,1.0,2.0,0.9656336071428248,0.0,succ_gain,0,6,501.15222150000045,None,4,wp8,4,2023-04-18_11h54.27.407,threat_forest,2021.2.3,60.030387381984646,
13,0,13,0,5,0,5,0,,,,,,,,,,right,1.3750479000009364,510.4273453000005,wp8,510.4273453000005,None,499.13784289999967,501.15222150000045,False,6,['p'],True,0.4444444444444445,0.6666666666666666,0.3333333333333333,1.0,2.0,0.9656336071428248,0.0,wait_cost,0,5,507.9293125000004,None,6,wp8,4,2023-04-18_11h54.27.407,threat_forest,2021.2.3,60.030387381984646,
13,0,13,0,6,0,6,0,,,,,,,,,,right,0.556508900001063,515.5059968999994,wp8,515.5059968999994,None,499.13784289999967,501.15222150000045,False,5,['p'],True,0.4444444444444445,0.6666666666666666,0.3333333333333333,1.0,2.0,0.9656336071428248,0.0,wait_cost,0,4,513.8403804999998,None,5,wp8,4,2023-04-18_11h54.27.407,threat_forest,2021.2.3,60.030387381984646,
13,0,13,0,7,0,7,0,,,,,,,,,,right,0.5921954000004916,519.5688172000009,wp8,519.5688172000009,None,499.13784289999967,501.15222150000045,False,4,['p'],True,0.4444444444444445,0.6666666666666666,0.3333333333333333,1.0,2.0,0.9656336071428248,0.0,wait_cost,0,3,518.087818,None,4,wp8,4,2023-04-18_11h54.27.407,threat_forest,2021.2.3,60.030387381984646,
13,0,13,0,,,,,,,,,,,,,,,,,,,,,,,,,,,,,,,,,,,,522.1993698000006,None,3,wp8,4,2023-04-18_11h54.27.407,threat_forest,2021.2.3,60.030387381984646,
14,0,14,0,0,0,0,0,,,,,,,524.2416615000002,527.7378833000002,None,left,1.4229643999988184,530.6287893000008,wp8,530.6287893000008,None,524.2416615000002,527.7378833000002,True,5,['p'],True,0.375,0.5,0.25,1.0,1.0,0.9850568223215076,0.0,unsucc_cost,0,3,,,,wp8,4,2023-04-18_11h54.27.407,threat_forest,2021.2.3,60.030387381984646,
14,0,14,0,1,0,1,0,,,,,,,,,,right,1.5458576999990328,536.5694703999998,wp8,532.0739426,534.0881747999993,536.5694703999998,None,True,3,['p'],False,0.24,0.3,0.2,2.0,1.0,0.9003120349047065,-0.2,unsucc_cost,1,1,534.0881747999993,None,3,wp8,4,2023-04-18_11h54.27.407,threat_forest,2021.2.3,60.030387381984646,
14,0,14,0,2,0,2,0,,,,,,,,,,right,0.7723588000008021,540.9985981000009,wp8,532.0739426,534.0881747999993,540.9985981000009,None,True,1,['p'],False,0.24,0.3,0.2,2.0,1.0,0.9003120349047065,0.24,unsucc_cost,1,0,540.1491621999994,None,1,wp8,4,2023-04-18_11h54.27.407,threat_forest,2021.2.3,60.030387381984646,
14,0,14,0,,,,,,,,,,,,,,,,,,,,,,,,,,,,,,,,,,,,543.8125022999993,None,0,wp8,4,2023-04-18_11h54.27.407,threat_forest,2021.2.3,60.030387381984646,
15,0,15,0,0,0,0,0,,,,,,,546.6945106000003,550.2065158000005,None,right,1.2426448999995046,553.1710808000007,wp8,546.6945106000003,550.2065158000005,553.1710808000007,None,True,4,['r'],False,0.4081632653061224,0.5714285714285714,0.2857142857142857,2.0,2.0,0.9885754083994552,0.0,succ_gain,1,6,,,,wp8,4,2023-04-18_11h54.27.407,threat_forest,2021.2.3,60.030387381984646,
15,0,15,0,1,0,1,0,,,,,,,,,,left,0.6139442000003328,559.7646705000006,wp8,546.6945106000003,550.2065158000005,559.7646705000006,None,False,6,['r'],False,0.4081632653061224,0.5714285714285714,0.2857142857142857,2.0,2.0,0.9885754083994552,0.0,wait_cost,1,5,556.4339013000008,None,6,wp8,4,2023-04-18_11h54.27.407,threat_forest,2021.2.3,60.030387381984646,
15,0,15,0,2,0,2,0,,,,,,,,,,left,2.236814300000333,563.5277060000008,wp8,546.6945106000003,550.2065158000005,563.5277060000008,None,False,5,['r'],False,0.4081632653061224,0.5714285714285714,0.2857142857142857,2.0,2.0,0.9885754083994552,0.0,wait_cost,1,4,562.4117091999997,None,5,wp8,4,2023-04-18_11h54.27.407,threat_forest,2021.2.3,60.030387381984646,
15,0,15,0,3,0,3,0,,,,,,,,,,left,1.117237099999329,568.3577987999997,wp8,568.3577987999997,None,565.7922123000008,567.8066376000006,True,4,['r'],True,0.5,0.5,0.0,0.0,2.0,0.6309297535714574,0.0,succ_gain,0,6,567.8066376000006,None,4,wp8,4,2023-04-18_11h54.27.407,threat_forest,2021.2.3,60.030387381984646,
15,0,15,0,4,0,4,0,,,,,,,,,,left,0.49999169999864534,572.9549475999993,wp8,569.5054992000005,571.5198686000003,572.9549475999993,None,False,6,['r'],False,0.4081632653061224,0.5714285714285714,0.2857142857142857,2.0,2.0,0.9885754083994552,0.0,wait_cost,1,5,571.5198686000003,None,6,wp8,4,2023-04-18_11h54.27.407,threat_forest,2021.2.3,60.030387381984646,
15,0,15,0,5,0,5,0,,,,,,,,,,left,0.44804190000104427,577.9642141000004,wp8,569.5054992000005,571.5198686000003,577.9642141000004,None,False,5,['r'],False,0.4081632653061224,0.5714285714285714,0.2857142857142857,2.0,2.0,0.9885754083994552,0.0,wait_cost,1,4,575.4994771000001,None,5,wp8,4,2023-04-18_11h54.27.407,threat_forest,2021.2.3,60.030387381984646,
15,0,15,0,6,0,6,0,,,,,,,,,,right,0.6302845999998681,582.7098535999994,wp8,582.7098535999994,None,578.4304202000003,580.4449421999998,False,4,['r'],True,0.5,0.5,0.0,0.0,2.0,0.6309297535714574,0.0,wait_cost,0,3,580.4449421999998,None,4,wp8,4,2023-04-18_11h54.27.407,threat_forest,2021.2.3,60.030387381984646,
15,0,15,0,7,0,7,0,,,,,,,,,,right,0.6721785000008822,588.4378667000001,wp8,588.4378667000001,None,578.4304202000003,580.4449421999998,False,3,['r'],True,0.5,0.5,0.0,0.0,2.0,0.6309297535714574,0.0,wait_cost,0,2,585.3734488999999,None,3,wp8,4,2023-04-18_11h54.27.407,threat_forest,2021.2.3,60.030387381984646,
15,0,15,0,,,,,,,,,,,,,,,,,,,,,,,,,,,,,,,,,,,,591.1518340000002,None,2,wp8,4,2023-04-18_11h54.27.407,threat_forest,2021.2.3,60.030387381984646,
16,0,16,0,0,0,0,0,,,,,,,594.2898478000006,597.7954298000004,None,right,0.3695036999997683,600.4109375999997,wp8,594.2898478000006,597.7954298000004,600.4109375999997,None,True,5,['p'],False,0.4081632653061224,0.5714285714285714,0.2857142857142857,2.0,2.0,0.9885754083994552,0.0,succ_gain,1,6,,,,wp8,4,2023-04-18_11h54.27.407,threat_forest,2021.2.3,60.030387381984646,
16,0,16,0,1,0,1,0,,,,,,,,,,left,0.6540095999989717,606.0213743000004,wp8,594.2898478000006,597.7954298000004,606.0213743000004,None,False,6,['p'],False,0.4081632653061224,0.5714285714285714,0.2857142857142857,2.0,2.0,0.9885754083994552,0.0,wait_cost,1,5,602.8239432000009,None,6,wp8,4,2023-04-18_11h54.27.407,threat_forest,2021.2.3,60.030387381984646,
16,0,16,0,2,0,2,0,,,,,,,,,,right,1.4193205999999918,612.3986958000005,wp8,594.2898478000006,597.7954298000004,612.3986958000005,None,True,5,['p'],False,0.4081632653061224,0.5714285714285714,0.2857142857142857,2.0,2.0,0.9885754083994552,0.0,succ_gain,1,6,608.7183590999994,None,5,wp8,4,2023-04-18_11h54.27.407,threat_forest,2021.2.3,60.030387381984646,
16,0,16,0,3,0,3,0,,,,,,,,,,left,0.43838159999904747,619.1589690000001,wp8,594.2898478000006,597.7954298000004,619.1589690000001,None,False,6,['p'],False,0.4081632653061224,0.5714285714285714,0.2857142857142857,2.0,2.0,0.9885754083994552,0.0,wait_cost,1,5,615.8617319000004,None,6,wp8,4,2023-04-18_11h54.27.407,threat_forest,2021.2.3,60.030387381984646,
16,0,16,0,4,0,4,0,,,,,,,,,,right,0.7456610000008368,622.5224479000008,wp8,622.5224479000008,None,619.6253068999995,621.6396368999995,False,5,['p'],True,0.5,0.5,0.0,0.0,2.0,0.6309297535714574,0.0,wait_cost,0,4,621.6396368999995,None,5,wp8,4,2023-04-18_11h54.27.407,threat_forest,2021.2.3,60.030387381984646,
16,0,16,0,5,0,5,0,,,,,,,,,,left,0.6444902000002912,626.1555955000003,wp8,623.2884173000002,625.3028787999992,626.1555955000003,None,False,4,['p'],False,0.4081632653061224,0.5714285714285714,0.2857142857142857,2.0,2.0,0.9885754083994552,0.0,wait_cost,1,3,625.3028787999992,None,4,wp8,4,2023-04-18_11h54.27.407,threat_forest,2021.2.3,60.030387381984646,
16,0,16,0,6,0,6,0,,,,,,,,,,left,0.47130140000081155,631.5643780000009,wp8,623.2884173000002,625.3028787999992,631.5643780000009,None,False,3,['p'],False,0.4081632653061224,0.5714285714285714,0.2857142857142857,2.0,2.0,0.9885754083994552,-0.2857142857142857,wait_cost,1,2,628.8328844000007,None,3,wp8,4,2023-04-18_11h54.27.407,threat_forest,2021.2.3,60.030387381984646,
16,0,16,0,7,0,7,0,,,,,,,,,,right,0.5741629000003741,636.9427314999994,wp8,636.9427314999994,None,632.0636340000001,634.078085000001,False,2,['p'],True,0.5,0.5,0.0,0.0,2.0,0.6309297535714574,-0.5,wait_cost,0,1,634.078085000001,None,2,wp8,4,2023-04-18_11h54.27.407,threat_forest,2021.2.3,60.030387381984646,
16,0,16,0,,,,,,,,,,,,,,,,,,,,,,,,,,,,,,,,,,,,639.5562413000007,None,1,wp8,4,2023-04-18_11h54.27.407,threat_forest,2021.2.3,60.030387381984646,
17,0,17,0,0,0,0,0,,,,,,,640.3986093999993,643.9021493,None,right,1.3145387999993545,645.1346883000006,wp8,640.3986093999993,643.9021493,645.1346883000006,None,True,4,['r'],False,0.2962962962962963,0.3333333333333333,0.1111111111111111,1.0,1.0,0.8325252476189534,0.0,unsucc_cost,1,2,,,,wp8,4,2023-04-18_11h54.27.407,threat_forest,2021.2.3,60.030387381984646,
17,0,17,0,1,0,1,0,,,,,,,,,,left,1.1783838999999716,651.4651606000007,wp8,651.4651606000007,None,646.4667329000004,648.4812122999992,True,2,['r'],True,0.48,0.6,0.2,1.0,1.0,0.9455672104350704,-0.52,unsucc_cost,0,0,648.4812122999992,None,2,wp8,4,2023-04-18_11h54.27.407,threat_forest,2021.2.3,60.030387381984646,
17,0,17,0,,,,,,,,,,,,,,,,,,,,,,,,,,,,,,,,,,,,654.6755168,None,0,wp8,4,2023-04-18_11h54.27.407,threat_forest,2021.2.3,60.030387381984646,
