miniblock.thisRepN,miniblock.thisTrialN,miniblock.thisN,miniblock.thisIndex,day.thisRepN,day.thisTrialN,day.thisN,day.thisIndex,welcoming.started,welcoming.stopped,key_resp_2.keys,key_resp_2.rt,key_resp_2.started,key_resp_2.stopped,forest.started,fixation_forest.started,fixation_forest.stopped,key_resp.keys,key_resp.rt,key_resp.started,Subject_ID,weather_left.started,weather_left.stopped,weather_right.started,weather_right.stopped,foraging T/F,in_LP,p/r heuristic,good_weather.T/F,p_succ_correct,p_succ_uncorrected,r_threat,n_oponents,gain_if_succ,weather_entropy,OP_value_difference,action_outcome,forest_side_L=0_R=1,out_LP,fixation_day.started,fixation_day.stopped,n_day-1.out_LP.,participant,session,date,expName,psychopyVersion,frameRate,
,,,,,,,,9.880659000016749,None,space,6.254267600364983,9.880659000016749,None,,,,,,,,,,,,,,,,,,,,,,,,,,,,,ox19,4,2022-05-11_15h06.40.358,threat_forest,2021.2.3,59.8974914753506,
0,0,0,0,0,0,0,0,,,,,,,16.196037400048226,19.70722830016166,None,right,1.906221100129187,22.138401300180703,ox19,16.196037400048226,19.70722830016166,22.138401300180703,None,True,5,['p'],False,0.46875,0.625,0.25,2.0,1.0,0.9634951148421658,0.0,succ_gain,1,6,,,,ox19,4,2022-05-11_15h06.40.358,threat_forest,2021.2.3,59.8974914753506,
0,0,0,0,1,0,1,0,,,,,,,,,,left,2.4049277999438345,27.345883999951184,ox19,27.345883999951184,None,24.07438619993627,26.07401299988851,True,6,['p'],True,0.6,0.6,0.0,0.0,1.0,0.6126016192893442,0.0,succ_gain,0,6,26.07401299988851,None,6,ox19,4,2022-05-11_15h06.40.358,threat_forest,2021.2.3,59.8974914753506,
0,0,0,0,2,0,2,0,,,,,,,,,,right,0.9968968997709453,34.44122669985518,ox19,29.77444150019437,31.77425550017506,34.44122669985518,None,True,6,['p'],False,0.46875,0.625,0.25,2.0,1.0,0.9634951148421658,0.0,unsucc_cost,1,4,31.77425550017506,None,6,ox19,4,2022-05-11_15h06.40.358,threat_forest,2021.2.3,59.8974914753506,
0,0,0,0,3,0,3,0,,,,,,,,,,right,0.6695615001954138,39.24168119998649,ox19,29.77444150019437,31.77425550017506,39.24168119998649,None,True,4,['p'],False,0.46875,0.625,0.25,2.0,1.0,0.9634951148421658,0.0,succ_gain,1,5,37.45761810010299,None,4,ox19,4,2022-05-11_15h06.40.358,threat_forest,2021.2.3,59.8974914753506,
0,0,0,0,4,0,4,0,,,,,,,,,,left,0.6365935001522303,44.15797859989107,ox19,29.77444150019437,31.77425550017506,44.15797859989107,None,False,5,['p'],False,0.46875,0.625,0.25,2.0,1.0,0.9634951148421658,0.0,wait_cost,1,4,41.941056199837476,None,5,ox19,4,2022-05-11_15h06.40.358,threat_forest,2021.2.3,59.8974914753506,
0,0,0,0,5,0,5,0,,,,,,,,,,left,0.6665917001664639,50.10862059984356,ox19,29.77444150019437,31.77425550017506,50.10862059984356,None,False,4,['p'],False,0.46875,0.625,0.25,2.0,1.0,0.9634951148421658,0.0,wait_cost,1,3,46.824537499807775,None,4,ox19,4,2022-05-11_15h06.40.358,threat_forest,2021.2.3,59.8974914753506,
0,0,0,0,6,0,6,0,,,,,,,,,,right,1.0348413004539907,53.52632399974391,ox19,53.52632399974391,None,50.80802970007062,52.80786870000884,False,3,['p'],True,0.6,0.6,0.0,0.0,1.0,0.6126016192893442,0.0,wait_cost,0,2,52.80786870000884,None,3,ox19,4,2022-05-11_15h06.40.358,threat_forest,2021.2.3,59.8974914753506,
0,0,0,0,7,0,7,0,,,,,,,,,,right,1.1725177001208067,59.60855389991775,ox19,59.60855389991775,None,50.80802970007062,52.80786870000884,False,2,['p'],True,0.6,0.6,0.0,0.0,1.0,0.6126016192893442,-0.4,wait_cost,0,1,56.59128289995715,None,2,ox19,4,2022-05-11_15h06.40.358,threat_forest,2021.2.3,59.8974914753506,
0,0,0,0,,,,,,,,,,,,,,,,,,,,,,,,,,,,,,,,,,,,62.807964799925685,None,1,ox19,4,2022-05-11_15h06.40.358,threat_forest,2021.2.3,59.8974914753506,
1,0,1,0,0,0,0,0,,,,,,,66.26946760015562,69.7747069997713,None,None,,73.07625810010359,ox19,73.07625810010359,None,66.26946760015562,69.7747069997713,None,5,['r'],True,0.25,0.25,0.0,0.0,2.0,0.5118595071429148,0.0,wait_cost,0,4,,,,ox19,4,2022-05-11_15h06.40.358,threat_forest,2021.2.3,59.8974914753506,
1,0,1,0,1,0,1,0,,,,,,,,,,right,2.5141729000024498,78.99182339990512,ox19,78.99182339990512,None,66.26946760015562,69.7747069997713,False,4,['r'],True,0.25,0.25,0.0,0.0,2.0,0.5118595071429148,0.0,wait_cost,0,3,78.09156000008807,None,4,ox19,4,2022-05-11_15h06.40.358,threat_forest,2021.2.3,59.8974914753506,
1,0,1,0,2,0,2,0,,,,,,,,,,right,1.9931086995638907,84.09191629989073,ox19,81.52520109992474,83.5248565999791,84.09191629989073,None,True,3,['r'],False,0.2040816326530612,0.2857142857142857,0.2857142857142857,2.0,2.0,0.9335459102197724,-0.2857142857142857,unsucc_cost,1,1,83.5248565999791,None,3,ox19,4,2022-05-11_15h06.40.358,threat_forest,2021.2.3,59.8974914753506,
1,0,1,0,3,0,3,0,,,,,,,,,,left,1.129810499958694,89.70879480009899,ox19,89.70879480009899,None,86.10859070019796,88.10857910010964,True,1,['r'],True,0.25,0.25,0.0,0.0,2.0,0.5118595071429148,0.25,unsucc_cost,0,0,88.10857910010964,None,1,ox19,4,2022-05-11_15h06.40.358,threat_forest,2021.2.3,59.8974914753506,
1,0,1,0,,,,,,,,,,,,,,,,,,,,,,,,,,,,,,,,,,,,92.85843149991706,None,0,ox19,4,2022-05-11_15h06.40.358,threat_forest,2021.2.3,59.8974914753506,
2,0,2,0,0,0,0,0,,,,,,,94.51915710000321,98.01096000010148,None,right,2.1857817000709474,99.72613319987431,ox19,99.72613319987431,None,94.51915710000321,98.01096000010148,False,4,['r'],True,0.2857142857142857,0.2857142857142857,0.0,0.0,2.0,0.5445684476282007,0.0,wait_cost,0,3,,,,ox19,4,2022-05-11_15h06.40.358,threat_forest,2021.2.3,59.8974914753506,
2,0,2,0,1,0,1,0,,,,,,,,,,right,2.2052397998049855,106.95928320009261,ox19,106.95928320009261,None,94.51915710000321,98.01096000010148,False,3,['r'],True,0.2857142857142857,0.2857142857142857,0.0,0.0,2.0,0.5445684476282007,0.0,wait_cost,0,2,103.94189919997007,None,3,ox19,4,2022-05-11_15h06.40.358,threat_forest,2021.2.3,59.8974914753506,
2,0,2,0,2,0,2,0,,,,,,,,,,left,1.617266200017184,111.69232439994812,ox19,111.69232439994812,None,94.51915710000321,98.01096000010148,True,2,['r'],True,0.2857142857142857,0.2857142857142857,0.0,0.0,2.0,0.5445684476282007,-0.7142857142857143,unsucc_cost,0,0,111.19207039987668,None,2,ox19,4,2022-05-11_15h06.40.358,threat_forest,2021.2.3,59.8974914753506,
2,0,2,0,,,,,,,,,,,,,,,,,,,,,,,,,,,,,,,,,,,,115.3422249997966,None,0,ox19,4,2022-05-11_15h06.40.358,threat_forest,2021.2.3,59.8974914753506,
3,0,3,0,0,0,0,0,,,,,,,118.16264940006658,121.67550709983334,None,left,1.4411821998655796,124.15917850006372,ox19,118.16264940006658,121.67550709983334,124.15917850006372,None,False,5,['p'],False,0.24,0.4,0.4,2.0,1.0,0.9801625908629508,0.0,wait_cost,1,4,,,,ox19,4,2022-05-11_15h06.40.358,threat_forest,2021.2.3,59.8974914753506,
3,0,3,0,1,0,1,0,,,,,,,,,,right,1.9836122998967767,131.25952860014513,ox19,131.25952860014513,None,125.62586069991812,127.62576470011845,False,4,['p'],True,0.3333333333333333,0.3333333333333333,0.0,0.0,1.0,0.5793801642856949,0.0,wait_cost,0,3,127.62576470011845,None,4,ox19,4,2022-05-11_15h06.40.358,threat_forest,2021.2.3,59.8974914753506,
3,0,3,0,2,0,2,0,,,,,,,,,,right,2.493001400027424,136.90968709997833,ox19,136.90968709997833,None,125.62586069991812,127.62576470011845,False,3,['p'],True,0.3333333333333333,0.3333333333333333,0.0,0.0,1.0,0.5793801642856949,0.0,wait_cost,0,2,135.27868579979986,None,3,ox19,4,2022-05-11_15h06.40.358,threat_forest,2021.2.3,59.8974914753506,
3,0,3,0,3,0,3,0,,,,,,,,,,left,2.314279300160706,142.0766154997982,ox19,142.0766154997982,None,125.62586069991812,127.62576470011845,True,2,['p'],True,0.3333333333333333,0.3333333333333333,0.0,0.0,1.0,0.5793801642856949,-0.6666666666666667,fight_cost,0,0,141.42585919983685,None,2,ox19,4,2022-05-11_15h06.40.358,threat_forest,2021.2.3,59.8974914753506,
3,0,3,0,,,,,,,,,,,,,,,,,,,,,,,,,,,,,,,,,,,,146.40935020009056,None,0,ox19,4,2022-05-11_15h06.40.358,threat_forest,2021.2.3,59.8974914753506,
4,0,4,0,0,0,0,0,,,,,,,149.96617749985307,153.4759929999709,None,right,2.172544900327921,156.7434391998686,ox19,156.7434391998686,None,149.96617749985307,153.4759929999709,False,5,['p'],True,0.4,0.4,0.0,0.0,1.0,0.6126016192893442,0.0,wait_cost,0,4,,,,ox19,4,2022-05-11_15h06.40.358,threat_forest,2021.2.3,59.8974914753506,
4,0,4,0,1,0,1,0,,,,,,,,,,right,2.4988775001838803,164.24332799995318,ox19,164.24332799995318,None,149.96617749985307,153.4759929999709,False,4,['p'],True,0.4,0.4,0.0,0.0,1.0,0.6126016192893442,0.0,wait_cost,0,3,160.94275199994445,None,4,ox19,4,2022-05-11_15h06.40.358,threat_forest,2021.2.3,59.8974914753506,
4,0,4,0,2,0,2,0,,,,,,,,,,right,2.80701640015468,171.6267698998563,ox19,166.75985419983044,168.75957140000537,171.6267698998563,None,True,3,['p'],False,0.3061224489795918,0.4285714285714285,0.2857142857142857,2.0,1.0,0.9885754083994552,-0.2857142857142857,unsucc_cost,1,1,168.75957140000537,None,3,ox19,4,2022-05-11_15h06.40.358,threat_forest,2021.2.3,59.8974914753506,
4,0,4,0,3,0,3,0,,,,,,,,,,right,1.2573363999836147,179.27707020007074,ox19,166.75985419983044,168.75957140000537,179.27707020007074,None,True,1,['p'],False,0.3061224489795918,0.4285714285714285,0.2857142857142857,2.0,1.0,0.9885754083994552,0.3061224489795917,succ_gain,1,2,176.45960790012032,None,1,ox19,4,2022-05-11_15h06.40.358,threat_forest,2021.2.3,59.8974914753506,
4,0,4,0,4,0,4,0,,,,,,,,,,left,1.7974535999819636,183.66028989991173,ox19,183.66028989991173,None,180.56007529981434,182.55974239995703,True,2,['p'],True,0.4,0.4,0.0,0.0,1.0,0.6126016192893442,-0.6,succ_gain,0,3,182.55974239995703,None,2,ox19,4,2022-05-11_15h06.40.358,threat_forest,2021.2.3,59.8974914753506,
4,0,4,0,5,0,5,0,,,,,,,,,,left,0.926398599985987,188.32714729988948,ox19,188.32714729988948,None,180.56007529981434,182.55974239995703,True,3,['p'],True,0.4,0.4,0.0,0.0,1.0,0.6126016192893442,0.0,succ_gain,0,4,187.4764439999126,None,3,ox19,4,2022-05-11_15h06.40.358,threat_forest,2021.2.3,59.8974914753506,
4,0,4,0,6,0,6,0,,,,,,,,,,left,0.7876833002083004,193.62847109977156,ox19,189.27698280010372,191.276601199992,193.62847109977156,None,False,4,['p'],False,0.3061224489795918,0.4285714285714285,0.2857142857142857,2.0,1.0,0.9885754083994552,0.0,wait_cost,1,3,191.276601199992,None,4,ox19,4,2022-05-11_15h06.40.358,threat_forest,2021.2.3,59.8974914753506,
4,0,4,0,7,0,7,0,,,,,,,,,,right,1.0169373000971973,199.16040370007977,ox19,199.16040370007977,None,194.44356840010732,196.44332289975137,False,3,['p'],True,0.4,0.4,0.0,0.0,1.0,0.6126016192893442,0.0,wait_cost,0,2,196.44332289975137,None,3,ox19,4,2022-05-11_15h06.40.358,threat_forest,2021.2.3,59.8974914753506,
4,0,4,0,,,,,,,,,,,,,,,,,,,,,,,,,,,,,,,,,,,,202.21020229998976,None,2,ox19,4,2022-05-11_15h06.40.358,threat_forest,2021.2.3,59.8974914753506,
5,0,5,0,0,0,0,0,,,,,,,203.16683619981632,206.67682599974796,None,left,2.0564564000815153,208.6106325997971,ox19,208.6106325997971,None,203.16683619981632,206.67682599974796,True,5,['r'],True,0.375,0.5,0.25,1.0,2.0,0.9850568223215076,0.0,succ_gain,0,6,,,,ox19,4,2022-05-11_15h06.40.358,threat_forest,2021.2.3,59.8974914753506,
5,0,5,0,1,0,1,0,,,,,,,,,,left,1.38241899991408,216.4124261001125,ox19,210.69381870003417,212.6936768000014,216.4124261001125,None,False,6,['r'],False,0.2448979591836734,0.2857142857142857,0.1428571428571428,1.0,2.0,0.8400769154957735,0.0,wait_cost,1,5,212.6936768000014,None,6,ox19,4,2022-05-11_15h06.40.358,threat_forest,2021.2.3,59.8974914753506,
5,0,5,0,2,0,2,0,,,,,,,,,,left,1.3084072996862233,221.4445022,ox19,210.69381870003417,212.6936768000014,221.4445022,None,False,5,['r'],False,0.2448979591836734,0.2857142857142857,0.1428571428571428,1.0,2.0,0.8400769154957735,0.0,wait_cost,1,4,219.82697599986568,None,5,ox19,4,2022-05-11_15h06.40.358,threat_forest,2021.2.3,59.8974914753506,
5,0,5,0,3,0,3,0,,,,,,,,,,left,1.0357623999007046,226.91069749975577,ox19,226.91069749975577,None,222.77723630005494,224.77714949985966,True,4,['r'],True,0.375,0.5,0.25,1.0,2.0,0.9850568223215076,0.0,succ_gain,0,6,224.77714949985966,None,4,ox19,4,2022-05-11_15h06.40.358,threat_forest,2021.2.3,59.8974914753506,
5,0,5,0,4,0,4,0,,,,,,,,,,right,0.9912245003506541,233.4444591999054,ox19,233.4444591999054,None,222.77723630005494,224.77714949985966,False,6,['r'],True,0.375,0.5,0.25,1.0,2.0,0.9850568223215076,0.0,wait_cost,0,5,229.97712189983577,None,6,ox19,4,2022-05-11_15h06.40.358,threat_forest,2021.2.3,59.8974914753506,
5,0,5,0,5,0,5,0,,,,,,,,,,left,1.1094666998833418,238.9782552998513,ox19,234.46087840013206,236.46066770004109,238.9782552998513,None,False,5,['r'],False,0.2448979591836734,0.2857142857142857,0.1428571428571428,1.0,2.0,0.8400769154957735,0.0,wait_cost,1,4,236.46066770004109,None,5,ox19,4,2022-05-11_15h06.40.358,threat_forest,2021.2.3,59.8974914753506,
5,0,5,0,6,0,6,0,,,,,,,,,,left,1.510735800024122,243.9444931000471,ox19,234.46087840013206,236.46066770004109,243.9444931000471,None,False,4,['r'],False,0.2448979591836734,0.2857142857142857,0.1428571428571428,1.0,2.0,0.8400769154957735,0.0,wait_cost,1,3,242.110704400111,None,4,ox19,4,2022-05-11_15h06.40.358,threat_forest,2021.2.3,59.8974914753506,
5,0,5,0,7,0,7,0,,,,,,,,,,left,1.0484557999297976,251.01151409978047,ox19,234.46087840013206,236.46066770004109,251.01151409978047,None,False,3,['r'],False,0.2448979591836734,0.2857142857142857,0.1428571428571428,1.0,2.0,0.8400769154957735,-0.1428571428571428,wait_cost,1,2,247.47740750014782,None,3,ox19,4,2022-05-11_15h06.40.358,threat_forest,2021.2.3,59.8974914753506,
5,0,5,0,,,,,,,,,,,,,,,,,,,,,,,,,,,,,,,,,,,,254.07757350010797,None,2,ox19,4,2022-05-11_15h06.40.358,threat_forest,2021.2.3,59.8974914753506,
6,0,6,0,0,0,0,0,,,,,,,256.38379759993404,259.8943059002049,None,right,2.464967400301248,263.4281965000555,ox19,263.4281965000555,None,256.38379759993404,259.8943059002049,False,5,['p'],True,0.4,0.4,0.0,0.0,1.0,0.6126016192893442,0.0,wait_cost,0,4,,,,ox19,4,2022-05-11_15h06.40.358,threat_forest,2021.2.3,59.8974914753506,
6,0,6,0,1,0,1,0,,,,,,,,,,left,1.1539151999168098,268.92831349978223,ox19,265.9112570001744,267.9110106998123,268.92831349978223,None,False,4,['p'],False,0.3333333333333333,0.5,0.3333333333333333,2.0,1.0,1.0,0.0,wait_cost,1,3,267.9110106998123,None,4,ox19,4,2022-05-11_15h06.40.358,threat_forest,2021.2.3,59.8974914753506,
6,0,6,0,2,0,2,0,,,,,,,,,,left,1.218587199691683,275.1786511000246,ox19,275.1786511000246,None,270.1112665999681,272.1111885001883,True,3,['p'],True,0.4,0.4,0.0,0.0,1.0,0.6126016192893442,0.0,unsucc_cost,0,1,272.1111885001883,None,3,ox19,4,2022-05-11_15h06.40.358,threat_forest,2021.2.3,59.8974914753506,
6,0,6,0,3,0,3,0,,,,,,,,,,left,1.0941456002183259,279.4781825998798,ox19,279.4781825998798,None,270.1112665999681,272.1111885001883,True,1,['p'],True,0.4,0.4,0.0,0.0,1.0,0.6126016192893442,0.4,unsucc_cost,0,0,278.4279553000815,None,1,ox19,4,2022-05-11_15h06.40.358,threat_forest,2021.2.3,59.8974914753506,
6,0,6,0,,,,,,,,,,,,,,,,,,,,,,,,,,,,,,,,,,,,282.5947507000528,None,0,ox19,4,2022-05-11_15h06.40.358,threat_forest,2021.2.3,59.8974914753506,
7,0,7,0,0,0,0,0,,,,,,,283.25403930014,286.7613594997674,None,right,1.5702841999009252,290.19540470000356,ox19,283.25403930014,286.7613594997674,290.19540470000356,None,True,5,['r'],False,0.4081632653061224,0.5714285714285714,0.2857142857142857,2.0,1.0,0.9885754083994552,0.0,unsucc_cost,1,3,,,,ox19,4,2022-05-11_15h06.40.358,threat_forest,2021.2.3,59.8974914753506,
7,0,7,0,1,0,1,0,,,,,,,,,,left,1.0060219997540116,297.03012940008193,ox19,297.03012940008193,None,291.7950339000672,293.7947173998691,True,3,['r'],True,0.5,0.5,0.0,0.0,1.0,0.6309297535714574,0.0,succ_gain,0,4,293.7947173998691,None,3,ox19,4,2022-05-11_15h06.40.358,threat_forest,2021.2.3,59.8974914753506,
7,0,7,0,2,0,2,0,,,,,,,,,,left,2.0709715001285076,303.3123749997467,ox19,303.3123749997467,None,291.7950339000672,293.7947173998691,True,4,['r'],True,0.5,0.5,0.0,0.0,1.0,0.6309297535714574,0.0,unsucc_cost,0,2,300.06142329983413,None,4,ox19,4,2022-05-11_15h06.40.358,threat_forest,2021.2.3,59.8974914753506,
7,0,7,0,3,0,3,0,,,,,,,,,,left,0.973373900167644,309.07891729986295,ox19,309.07891729986295,None,291.7950339000672,293.7947173998691,True,2,['r'],True,0.5,0.5,0.0,0.0,1.0,0.6309297535714574,-0.5,succ_gain,0,3,307.4117048000917,None,2,ox19,4,2022-05-11_15h06.40.358,threat_forest,2021.2.3,59.8974914753506,
7,0,7,0,4,0,4,0,,,,,,,,,,left,1.4534223000518978,314.245581000112,ox19,314.245581000112,None,291.7950339000672,293.7947173998691,True,3,['r'],True,0.5,0.5,0.0,0.0,1.0,0.6309297535714574,0.0,succ_gain,0,4,312.07839709986,None,3,ox19,4,2022-05-11_15h06.40.358,threat_forest,2021.2.3,59.8974914753506,
7,0,7,0,5,0,5,0,,,,,,,,,,left,0.9996492001228034,320.5958740999922,ox19,315.72873670002446,317.72840530006215,320.5958740999922,None,False,4,['r'],False,0.4081632653061224,0.5714285714285714,0.2857142857142857,2.0,1.0,0.9885754083994552,0.0,wait_cost,1,3,317.72840530006215,None,4,ox19,4,2022-05-11_15h06.40.358,threat_forest,2021.2.3,59.8974914753506,
7,0,7,0,6,0,6,0,,,,,,,,,,right,0.7608953998424113,325.9635895001702,ox19,325.9635895001702,None,321.6121212998405,323.6121106999926,False,3,['r'],True,0.5,0.5,0.0,0.0,1.0,0.6309297535714574,0.0,wait_cost,0,2,323.6121106999926,None,3,ox19,4,2022-05-11_15h06.40.358,threat_forest,2021.2.3,59.8974914753506,
7,0,7,0,7,0,7,0,,,,,,,,,,right,0.9524706001393497,329.5122668999247,ox19,329.5122668999247,None,321.6121212998405,323.6121106999926,False,2,['r'],True,0.5,0.5,0.0,0.0,1.0,0.6309297535714574,-0.5,wait_cost,0,1,328.74533629976213,None,2,ox19,4,2022-05-11_15h06.40.358,threat_forest,2021.2.3,59.8974914753506,
7,0,7,0,,,,,,,,,,,,,,,,,,,,,,,,,,,,,,,,,,,,332.495431299787,None,1,ox19,4,2022-05-11_15h06.40.358,threat_forest,2021.2.3,59.8974914753506,
8,0,8,0,0,0,0,0,,,,,,,336.063967499882,339.57881349977106,None,left,1.5461697997525334,343.37956100003794,ox19,336.063967499882,339.57881349977106,343.37956100003794,None,False,5,['r'],False,0.2222222222222222,0.6666666666666666,0.6666666666666666,2.0,1.0,0.77250688571426,0.0,wait_cost,1,4,,,,ox19,4,2022-05-11_15h06.40.358,threat_forest,2021.2.3,59.8974914753506,
8,0,8,0,1,0,1,0,,,,,,,,,,left,1.0331313000060618,348.1127730999142,ox19,348.1127730999142,None,344.9457914000377,346.94590830011293,True,4,['r'],True,0.5,0.5,0.0,0.0,1.0,0.6309297535714574,0.0,fight_cost,0,1,346.94590830011293,None,4,ox19,4,2022-05-11_15h06.40.358,threat_forest,2021.2.3,59.8974914753506,
8,0,8,0,2,0,2,0,,,,,,,,,,left,0.8801327999681234,353.4295272999443,ox19,353.4295272999443,None,344.9457914000377,346.94590830011293,True,1,['r'],True,0.5,0.5,0.0,0.0,1.0,0.6309297535714574,0.5,fight_cost,0,0,351.16228869976476,None,1,ox19,4,2022-05-11_15h06.40.358,threat_forest,2021.2.3,59.8974914753506,
8,0,8,0,,,,,,,,,,,,,,,,,,,,,,,,,,,,,,,,,,,,356.3290874999948,None,0,ox19,4,2022-05-11_15h06.40.358,threat_forest,2021.2.3,59.8974914753506,
9,0,9,0,0,0,0,0,,,,,,,358.76392629975453,362.2791666998528,None,right,1.5168765000998974,363.1139453998767,ox19,363.1139453998767,None,358.76392629975453,362.2791666998528,False,4,['p'],True,0.3333333333333333,0.3333333333333333,0.0,0.0,1.0,0.5793801642856949,0.0,wait_cost,0,3,,,,ox19,4,2022-05-11_15h06.40.358,threat_forest,2021.2.3,59.8974914753506,
9,0,9,0,1,0,1,0,,,,,,,,,,left,1.2781253000721335,369.2628210000694,ox19,369.2628210000694,None,358.76392629975453,362.2791666998528,True,3,['p'],True,0.3333333333333333,0.3333333333333333,0.0,0.0,1.0,0.5793801642856949,0.0,unsucc_cost,0,1,366.662541099824,None,3,ox19,4,2022-05-11_15h06.40.358,threat_forest,2021.2.3,59.8974914753506,
9,0,9,0,2,0,2,0,,,,,,,,,,left,0.8447068999521434,375.31292010005563,ox19,375.31292010005563,None,358.76392629975453,362.2791666998528,True,1,['p'],True,0.3333333333333333,0.3333333333333333,0.0,0.0,1.0,0.5793801642856949,0.3333333333333332,fight_cost,0,0,372.5626288000494,None,1,ox19,4,2022-05-11_15h06.40.358,threat_forest,2021.2.3,59.8974914753506,
9,0,9,0,,,,,,,,,,,,,,,,,,,,,,,,,,,,,,,,,,,,378.17941930005327,None,0,ox19,4,2022-05-11_15h06.40.358,threat_forest,2021.2.3,59.8974914753506,
10,0,10,0,0,0,0,0,,,,,,,379.58238629996777,383.0960486000404,None,right,1.0972441998310387,385.0968944001943,ox19,379.58238629996777,383.0960486000404,385.0968944001943,None,True,4,['p'],False,0.36,0.6,0.4,2.0,2.0,0.9801625908629508,0.0,unsucc_cost,1,2,,,,ox19,4,2022-05-11_15h06.40.358,threat_forest,2021.2.3,59.8974914753506,
10,0,10,0,1,0,1,0,,,,,,,,,,right,0.8258528001606464,389.61328190006316,ox19,379.58238629996777,383.0960486000404,389.61328190006316,None,True,2,['p'],False,0.36,0.6,0.4,2.0,2.0,0.9801625908629508,-0.64,succ_gain,1,4,388.21283609978855,None,2,ox19,4,2022-05-11_15h06.40.358,threat_forest,2021.2.3,59.8974914753506,
10,0,10,0,2,0,2,0,,,,,,,,,,right,1.2672385000623763,395.4970015999861,ox19,379.58238629996777,383.0960486000404,395.4970015999861,None,True,4,['p'],False,0.36,0.6,0.4,2.0,2.0,0.9801625908629508,0.0,fight_cost,1,1,392.46296790009364,None,4,ox19,4,2022-05-11_15h06.40.358,threat_forest,2021.2.3,59.8974914753506,
10,0,10,0,3,0,3,0,,,,,,,,,,right,1.2398700001649559,402.46321160020307,ox19,379.58238629996777,383.0960486000404,402.46321160020307,None,True,1,['p'],False,0.36,0.6,0.4,2.0,2.0,0.9801625908629508,0.36,fight_cost,1,0,398.7963606999256,None,1,ox19,4,2022-05-11_15h06.40.358,threat_forest,2021.2.3,59.8974914753506,
10,0,10,0,,,,,,,,,,,,,,,,,,,,,,,,,,,,,,,,,,,,405.7299811998382,None,0,ox19,4,2022-05-11_15h06.40.358,threat_forest,2021.2.3,59.8974914753506,
11,0,11,0,0,0,0,0,,,,,,,409.3178563998081,412.82991580013186,None,left,1.3459502002224326,415.7306596999988,ox19,415.7306596999988,None,409.3178563998081,412.82991580013186,True,4,['p'],True,0.3333333333333333,0.3333333333333333,0.0,0.0,2.0,0.5793801642856949,0.0,succ_gain,0,6,,,,ox19,4,2022-05-11_15h06.40.358,threat_forest,2021.2.3,59.8974914753506,
11,0,11,0,1,0,1,0,,,,,,,,,,left,1.7606709003448486,419.6806771000847,ox19,419.6806771000847,None,409.3178563998081,412.82991580013186,True,6,['p'],True,0.3333333333333333,0.3333333333333333,0.0,0.0,2.0,0.5793801642856949,0.0,fight_cost,0,3,419.0967385000549,None,6,ox19,4,2022-05-11_15h06.40.358,threat_forest,2021.2.3,59.8974914753506,
11,0,11,0,2,0,2,0,,,,,,,,,,left,0.7158407000824809,427.2303216997534,ox19,427.2303216997534,None,409.3178563998081,412.82991580013186,True,3,['p'],True,0.3333333333333333,0.3333333333333333,0.0,0.0,2.0,0.5793801642856949,0.0,succ_gain,0,5,423.46331040002406,None,3,ox19,4,2022-05-11_15h06.40.358,threat_forest,2021.2.3,59.8974914753506,
11,0,11,0,3,0,3,0,,,,,,,,,,left,2.0642963997088373,430.9302953998558,ox19,430.9302953998558,None,409.3178563998081,412.82991580013186,True,5,['p'],True,0.3333333333333333,0.3333333333333333,0.0,0.0,2.0,0.5793801642856949,0.0,succ_gain,0,6,429.9635145999491,None,5,ox19,4,2022-05-11_15h06.40.358,threat_forest,2021.2.3,59.8974914753506,
11,0,11,0,4,0,4,0,,,,,,,,,,left,0.82683049980551,438.2138312999159,ox19,433.0139584997669,435.0138738001697,438.2138312999159,None,False,6,['p'],False,0.25,0.5,0.5,2.0,2.0,0.9463946303571862,0.0,wait_cost,1,5,435.0138738001697,None,6,ox19,4,2022-05-11_15h06.40.358,threat_forest,2021.2.3,59.8974914753506,
11,0,11,0,5,0,5,0,,,,,,,,,,left,0.7723122001625597,443.53096859995276,ox19,433.0139584997669,435.0138738001697,443.53096859995276,None,False,5,['p'],False,0.25,0.5,0.5,2.0,2.0,0.9463946303571862,0.0,wait_cost,1,4,441.06378060020506,None,5,ox19,4,2022-05-11_15h06.40.358,threat_forest,2021.2.3,59.8974914753506,
11,0,11,0,6,0,6,0,,,,,,,,,,left,0.6038604001514614,447.4806026997976,ox19,433.0139584997669,435.0138738001697,447.4806026997976,None,False,4,['p'],False,0.25,0.5,0.5,2.0,2.0,0.9463946303571862,0.0,wait_cost,1,3,446.33029920002446,None,4,ox19,4,2022-05-11_15h06.40.358,threat_forest,2021.2.3,59.8974914753506,
11,0,11,0,7,0,7,0,,,,,,,,,,right,0.8404417000710964,450.93058500019833,ox19,450.93058500019833,None,448.1138865998946,450.11369579983875,False,3,['p'],True,0.3333333333333333,0.3333333333333333,0.0,0.0,2.0,0.5793801642856949,0.0,wait_cost,0,2,450.11369579983875,None,3,ox19,4,2022-05-11_15h06.40.358,threat_forest,2021.2.3,59.8974914753506,
11,0,11,0,,,,,,,,,,,,,,,,,,,,,,,,,,,,,,,,,,,,453.79716739989817,None,2,ox19,4,2022-05-11_15h06.40.358,threat_forest,2021.2.3,59.8974914753506,
12,0,12,0,0,0,0,0,,,,,,,456.9868227997795,460.497234699782,None,left,1.4803729997947812,463.81427970016375,ox19,456.9868227997795,460.497234699782,463.81427970016375,None,False,4,['p'],False,0.2448979591836734,0.2857142857142857,0.1428571428571428,1.0,1.0,0.8400769154957735,0.0,wait_cost,1,3,,,,ox19,4,2022-05-11_15h06.40.358,threat_forest,2021.2.3,59.8974914753506,
12,0,12,0,1,0,1,0,,,,,,,,,,left,2.1788685000501573,468.49811939988285,ox19,456.9868227997795,460.497234699782,468.49811939988285,None,False,3,['p'],False,0.2448979591836734,0.2857142857142857,0.1428571428571428,1.0,1.0,0.8400769154957735,-0.1428571428571428,wait_cost,1,2,467.3140119998716,None,3,ox19,4,2022-05-11_15h06.40.358,threat_forest,2021.2.3,59.8974914753506,
12,0,12,0,2,0,2,0,,,,,,,,,,left,2.31433210009709,473.86447559995577,ox19,473.86447559995577,None,470.69762180000544,472.6974484999664,True,2,['p'],True,0.375,0.5,0.25,1.0,1.0,0.9850568223215076,-0.625,unsucc_cost,0,0,472.6974484999664,None,2,ox19,4,2022-05-11_15h06.40.358,threat_forest,2021.2.3,59.8974914753506,
12,0,12,0,,,,,,,,,,,,,,,,,,,,,,,,,,,,,,,,,,,,478.197539600078,None,0,ox19,4,2022-05-11_15h06.40.358,threat_forest,2021.2.3,59.8974914753506,
13,0,13,0,0,0,0,0,,,,,,,481.5586888999678,485.0643298998475,None,left,1.8569716000929475,486.2483259001747,ox19,486.2483259001747,None,481.5586888999678,485.0643298998475,True,5,['r'],True,0.2777777777777778,0.3333333333333333,0.1666666666666666,1.0,2.0,0.8929352898779304,0.0,unsucc_cost,0,3,,,,ox19,4,2022-05-11_15h06.40.358,threat_forest,2021.2.3,59.8974914753506,
13,0,13,0,1,0,1,0,,,,,,,,,,left,1.0768675999715924,492.7647588001564,ox19,488.1313038999215,490.1310654999688,492.7647588001564,None,False,3,['r'],False,0.2,0.2,0.0,0.0,2.0,0.4554859150035951,0.0,wait_cost,1,2,490.1310654999688,None,3,ox19,4,2022-05-11_15h06.40.358,threat_forest,2021.2.3,59.8974914753506,
13,0,13,0,2,0,2,0,,,,,,,,,,left,1.7191123003140092,497.9484844999388,ox19,497.9484844999388,None,493.86472020018846,495.86454629991204,True,2,['r'],True,0.2777777777777778,0.3333333333333333,0.1666666666666666,1.0,2.0,0.8929352898779304,-0.7222222222222223,succ_gain,0,4,495.86454629991204,None,2,ox19,4,2022-05-11_15h06.40.358,threat_forest,2021.2.3,59.8974914753506,
13,0,13,0,3,0,3,0,,,,,,,,,,left,1.278413999825716,504.414813300129,ox19,499.698116700165,501.69803409976885,504.414813300129,None,False,4,['r'],False,0.2,0.2,0.0,0.0,2.0,0.4554859150035951,0.0,wait_cost,1,3,501.69803409976885,None,4,ox19,4,2022-05-11_15h06.40.358,threat_forest,2021.2.3,59.8974914753506,
13,0,13,0,4,0,4,0,,,,,,,,,,None,,509.7318250001408,ox19,499.698116700165,501.69803409976885,509.7318250001408,None,None,3,['r'],False,0.2,0.2,0.0,0.0,2.0,0.4554859150035951,0.0,wait_cost,1,2,507.71458340017125,None,3,ox19,4,2022-05-11_15h06.40.358,threat_forest,2021.2.3,59.8974914753506,
13,0,13,0,5,0,5,0,,,,,,,,,,left,1.2379828002303839,516.865077899769,ox19,516.865077899769,None,512.7317786999047,514.7314245998859,True,2,['r'],True,0.2777777777777778,0.3333333333333333,0.1666666666666666,1.0,2.0,0.8929352898779304,-0.7222222222222223,unsucc_cost,0,0,514.7314245998859,None,2,ox19,4,2022-05-11_15h06.40.358,threat_forest,2021.2.3,59.8974914753506,
13,0,13,0,,,,,,,,,,,,,,,,,,,,,,,,,,,,,,,,,,,,520.1315696998499,None,0,ox19,4,2022-05-11_15h06.40.358,threat_forest,2021.2.3,59.8974914753506,
14,0,14,0,0,0,0,0,,,,,,,522.5553967999294,526.0649485997856,None,right,1.220590699929744,526.7485412000678,ox19,522.5553967999294,526.0649485997856,526.7485412000678,None,True,5,['r'],False,0.2222222222222222,0.2222222222222222,0.0,0.0,2.0,0.4821593609696809,0.0,fight_cost,1,2,,,,ox19,4,2022-05-11_15h06.40.358,threat_forest,2021.2.3,59.8974914753506,
14,0,14,0,1,0,1,0,,,,,,,,,,right,2.215526199899614,531.3653083001263,ox19,531.3653083001263,None,527.9986104997806,529.998252000194,False,2,['r'],True,0.4444444444444445,0.6666666666666666,0.3333333333333333,1.0,2.0,0.9656336071428248,-0.5555555555555556,wait_cost,0,1,529.998252000194,None,2,ox19,4,2022-05-11_15h06.40.358,threat_forest,2021.2.3,59.8974914753506,
14,0,14,0,2,0,2,0,,,,,,,,,,right,1.602207699790597,537.3156162998639,ox19,533.5985440001823,535.5983744999394,537.3156162998639,None,True,1,['r'],False,0.2222222222222222,0.2222222222222222,0.0,0.0,2.0,0.4821593609696809,0.2222222222222222,fight_cost,1,0,535.5983744999394,None,1,ox19,4,2022-05-11_15h06.40.358,threat_forest,2021.2.3,59.8974914753506,
14,0,14,0,,,,,,,,,,,,,,,,,,,,,,,,,,,,,,,,,,,,540.9485069001094,None,0,ox19,4,2022-05-11_15h06.40.358,threat_forest,2021.2.3,59.8974914753506,
15,0,15,0,0,0,0,0,,,,,,,542.5918243001215,546.0984550002031,None,left,2.2584339999593794,548.6157852998003,ox19,548.6157852998003,None,542.5918243001215,546.0984550002031,True,4,['r'],True,0.2777777777777778,0.3333333333333333,0.1666666666666666,1.0,2.0,0.8929352898779304,0.0,unsucc_cost,0,2,,,,ox19,4,2022-05-11_15h06.40.358,threat_forest,2021.2.3,59.8974914753506,
15,0,15,0,1,0,1,0,,,,,,,,,,left,2.6461105002090335,555.2661418998614,ox19,555.2661418998614,None,542.5918243001215,546.0984550002031,True,2,['r'],True,0.2777777777777778,0.3333333333333333,0.1666666666666666,1.0,2.0,0.8929352898779304,-0.7222222222222223,unsucc_cost,0,0,552.8986860997975,None,2,ox19,4,2022-05-11_15h06.40.358,threat_forest,2021.2.3,59.8974914753506,
15,0,15,0,,,,,,,,,,,,,,,,,,,,,,,,,,,,,,,,,,,,559.9322123997845,None,0,ox19,4,2022-05-11_15h06.40.358,threat_forest,2021.2.3,59.8974914753506,
16,0,16,0,0,0,0,0,,,,,,,561.4896550998092,564.9988150000572,None,left,1.102171199861914,566.0339925000444,ox19,561.4896550998092,564.9988150000572,566.0339925000444,None,False,5,['p'],False,0.1975308641975308,0.2222222222222222,0.1111111111111111,1.0,1.0,0.7461067557824965,0.0,wait_cost,1,4,,,,ox19,4,2022-05-11_15h06.40.358,threat_forest,2021.2.3,59.8974914753506,
16,0,16,0,1,0,1,0,,,,,,,,,,left,1.266463799867779,570.6823942000046,ox19,570.6823942000046,None,567.1657636999153,569.1655075000599,True,4,['p'],True,0.4444444444444445,0.6666666666666666,0.3333333333333333,1.0,1.0,0.9656336071428248,0.0,fight_cost,0,1,569.1655075000599,None,4,ox19,4,2022-05-11_15h06.40.358,threat_forest,2021.2.3,59.8974914753506,
16,0,16,0,2,0,2,0,,,,,,,,,,left,0.8762875003740191,574.6339659001678,ox19,574.6339659001678,None,567.1657636999153,569.1655075000599,True,1,['p'],True,0.4444444444444445,0.6666666666666666,0.3333333333333333,1.0,1.0,0.9656336071428248,0.4444444444444444,succ_gain,0,2,573.9655006001703,None,1,ox19,4,2022-05-11_15h06.40.358,threat_forest,2021.2.3,59.8974914753506,
16,0,16,0,3,0,3,0,,,,,,,,,,left,1.2603851002641022,581.1333568999544,ox19,575.5326169999316,577.5322106000967,581.1333568999544,None,False,2,['p'],False,0.1975308641975308,0.2222222222222222,0.1111111111111111,1.0,1.0,0.7461067557824965,-0.8024691358024691,wait_cost,1,1,577.5322106000967,None,2,ox19,4,2022-05-11_15h06.40.358,threat_forest,2021.2.3,59.8974914753506,
16,0,16,0,4,0,4,0,,,,,,,,,,right,1.2011384000070393,586.9496765001677,ox19,575.5326169999316,577.5322106000967,586.9496765001677,None,True,1,['p'],False,0.1975308641975308,0.2222222222222222,0.1111111111111111,1.0,1.0,0.7461067557824965,0.1975308641975308,unsucc_cost,1,0,584.4158071000129,None,1,ox19,4,2022-05-11_15h06.40.358,threat_forest,2021.2.3,59.8974914753506,
16,0,16,0,,,,,,,,,,,,,,,,,,,,,,,,,,,,,,,,,,,,590.1827250998467,None,0,ox19,4,2022-05-11_15h06.40.358,threat_forest,2021.2.3,59.8974914753506,
17,0,17,0,0,0,0,0,,,,,,,592.0897037000395,595.5993093000725,None,right,2.6848887000232935,598.5336433001794,ox19,598.5336433001794,None,592.0897037000395,595.5993093000725,False,5,['p'],True,0.25,0.25,0.0,0.0,1.0,0.5118595071429148,0.0,wait_cost,0,4,,,,ox19,4,2022-05-11_15h06.40.358,threat_forest,2021.2.3,59.8974914753506,
17,0,17,0,1,0,1,0,,,,,,,,,,left,1.919420899823308,606.7163923000917,ox19,601.2495948998258,603.2493794001639,606.7163923000917,None,False,4,['p'],False,0.2040816326530612,0.2857142857142857,0.2857142857142857,2.0,1.0,0.9335459102197724,0.0,wait_cost,1,3,603.2493794001639,None,4,ox19,4,2022-05-11_15h06.40.358,threat_forest,2021.2.3,59.8974914753506,
17,0,17,0,2,0,2,0,,,,,,,,,,None,,611.3333948999643,ox19,601.2495948998258,603.2493794001639,611.3333948999643,None,None,3,['p'],False,0.2040816326530612,0.2857142857142857,0.2857142857142857,2.0,1.0,0.9335459102197724,-0.2857142857142857,wait_cost,1,2,610.6661916999146,None,3,ox19,4,2022-05-11_15h06.40.358,threat_forest,2021.2.3,59.8974914753506,
17,0,17,0,3,0,3,0,,,,,,,,,,right,2.6155450004152954,618.0165658998303,ox19,618.0165658998303,None,614.333166200202,616.3330299998634,False,2,['p'],True,0.25,0.25,0.0,0.0,1.0,0.5118595071429148,-0.75,wait_cost,0,1,616.3330299998634,None,2,ox19,4,2022-05-11_15h06.40.358,threat_forest,2021.2.3,59.8974914753506,
17,0,17,0,4,0,4,0,,,,,,,,,,left,2.0694317002780735,625.2665138999,ox19,625.2665138999,None,614.333166200202,616.3330299998634,True,1,['p'],True,0.25,0.25,0.0,0.0,1.0,0.5118595071429148,0.25,fight_cost,0,0,622.6496713999659,None,1,ox19,4,2022-05-11_15h06.40.358,threat_forest,2021.2.3,59.8974914753506,
17,0,17,0,,,,,,,,,,,,,,,,,,,,,,,,,,,,,,,,,,,,629.3665662999265,None,0,ox19,4,2022-05-11_15h06.40.358,threat_forest,2021.2.3,59.8974914753506,
