miniblock.thisRepN,miniblock.thisTrialN,miniblock.thisN,miniblock.thisIndex,day.thisRepN,day.thisTrialN,day.thisN,day.thisIndex,welcoming.started,welcoming.stopped,key_resp_2.keys,key_resp_2.rt,key_resp_2.started,key_resp_2.stopped,forest.started,fixation_forest.started,fixation_forest.stopped,key_resp.keys,key_resp.rt,key_resp.started,Subject_ID,weather_left.started,weather_left.stopped,weather_right.started,weather_right.stopped,foraging T/F,in_LP,p/r heuristic,good_weather.T/F,p_succ_correct,p_succ_uncorrected,r_threat,n_oponents,gain_if_succ,weather_entropy,OP_value_difference,action_outcome,forest_side_L=0_R=1,out_LP,fixation_day.started,fixation_day.stopped,participant,session,date,expName,psychopyVersion,frameRate,
,,,,,,,,26.613005999999586,None,space,1.1401082999946084,26.613005999999586,None,,,,,,,,,,,,,,,,,,,,,,,,,,,,or1,1,2022-04-29_14h28.47.259,threat_forest,2021.2.3,60.12621695150609,
0,0,0,0,0,0,0,0,,,,,,,27.819637099993997,31.31999150000047,None,left,0.9318346000072779,34.061004500006675,or1,34.061004500006675,None,27.819637099993997,31.31999150000047,True,5,['r'],True,0.4,0.4,0.0,0.0,2.0,0.6126016192893442,0.0,figh_cost,0,2,,,or1,1,2022-04-29_14h28.47.259,threat_forest,2021.2.3,60.12621695150609,
0,0,0,0,1,0,1,0,,,,,,,,,,left,1.31708599999547,39.19041900000593,or1,39.19041900000593,None,27.819637099993997,31.31999150000047,True,2,['r'],True,0.4,0.4,0.0,0.0,2.0,0.6126016192893442,-0.6,figh_cost,0,0,37.03296739999496,None,or1,1,2022-04-29_14h28.47.259,threat_forest,2021.2.3,60.12621695150609,
0,0,0,0,,,,,,,,,,,,,,,,,,,,,,,,,,,,,,,,,,,,42.552800000004936,None,or1,1,2022-04-29_14h28.47.259,threat_forest,2021.2.3,60.12621695150609,
1,0,1,0,0,0,0,0,,,,,,,44.86906349999481,48.36207899999863,None,left,0.6815989000024274,51.1294923999958,or1,51.1294923999958,None,44.86906349999481,48.36207899999863,True,4,['p'],True,0.4166666666666667,0.5,0.1666666666666666,1.0,1.0,0.9358932809493992,0.0,unsucc_cost,0,2,,,or1,1,2022-04-29_14h28.47.259,threat_forest,2021.2.3,60.12621695150609,
1,0,1,0,1,0,1,0,,,,,,,,,,left,1.5655724000098417,55.675379099993734,or1,51.83622670000477,53.85061009999481,55.675379099993734,None,False,2,['p'],False,0.27,0.3,0.1,1.0,1.0,0.7963326591781347,-0.73,wait_cost,1,1,53.85061009999481,None,or1,1,2022-04-29_14h28.47.259,threat_forest,2021.2.3,60.12621695150609,
1,0,1,0,2,0,2,0,,,,,,,,,,left,0.6980422000051476,62.84015560000262,or1,62.84015560000262,None,57.26475869999558,59.279054099999485,True,1,['p'],True,0.4166666666666667,0.5,0.1666666666666666,1.0,1.0,0.9358932809493992,0.4166666666666667,figh_cost,0,0,59.279054099999485,None,or1,1,2022-04-29_14h28.47.259,threat_forest,2021.2.3,60.12621695150609,
1,0,1,0,,,,,,,,,,,,,,,,,,,,,,,,,,,,,,,,,,,,65.57314649999898,None,or1,1,2022-04-29_14h28.47.259,threat_forest,2021.2.3,60.12621695150609,
2,0,2,0,0,0,0,0,,,,,,,69.2357830999972,72.7351098999934,None,left,1.2279720999940764,73.65873379999539,or1,69.2357830999972,72.7351098999934,73.65873379999539,None,False,5,['r'],False,0.3333333333333333,0.5,0.3333333333333333,2.0,1.0,1.0,0.0,wait_cost,1,4,,,or1,1,2022-04-29_14h28.47.259,threat_forest,2021.2.3,60.12621695150609,
2,0,2,0,1,0,1,0,,,,,,,,,,left,1.446533599999384,78.49620419999701,or1,69.2357830999972,72.7351098999934,78.49620419999701,None,False,4,['r'],False,0.3333333333333333,0.5,0.3333333333333333,2.0,1.0,1.0,0.0,wait_cost,1,3,76.92903250000381,None,or1,1,2022-04-29_14h28.47.259,threat_forest,2021.2.3,60.12621695150609,
2,0,2,0,2,0,2,0,,,,,,,,,,left,0.705447100001038,83.40569719999621,or1,83.40569719999621,None,79.96018979999644,81.97433729999466,True,3,['r'],True,0.4,0.4,0.0,0.0,1.0,0.6126016192893442,0.0,unsucc_cost,0,1,81.97433729999466,None,or1,1,2022-04-29_14h28.47.259,threat_forest,2021.2.3,60.12621695150609,
2,0,2,0,3,0,3,0,,,,,,,,,,left,1.044953999997233,88.45631209999556,or1,88.45631209999556,None,79.96018979999644,81.97433729999466,True,1,['r'],True,0.4,0.4,0.0,0.0,1.0,0.6126016192893442,0.4,unsucc_cost,0,0,86.1537815000047,None,or1,1,2022-04-29_14h28.47.259,threat_forest,2021.2.3,60.12621695150609,
2,0,2,0,,,,,,,,,,,,,,,,,,,,,,,,,,,,,,,,,,,,91.53218530000595,None,or1,1,2022-04-29_14h28.47.259,threat_forest,2021.2.3,60.12621695150609,
3,0,3,0,0,0,0,0,,,,,,,94.24453419999918,97.75959390000207,None,left,0.6489946000074269,101.38232089999656,or1,101.38232089999656,None,94.24453419999918,97.75959390000207,True,4,['p'],True,0.4444444444444445,0.6666666666666666,0.3333333333333333,1.0,1.0,0.9656336071428248,0.0,unsucc_cost,0,2,,,or1,1,2022-04-29_14h28.47.259,threat_forest,2021.2.3,60.12621695150609,
3,0,3,0,1,0,1,0,,,,,,,,,,left,1.4796264999895357,106.46014399999694,or1,102.05594109999947,104.07037909999781,106.46014399999694,None,False,2,['p'],False,0.2448979591836734,0.2857142857142857,0.1428571428571428,1.0,1.0,0.8400769154957735,-0.7551020408163265,wait_cost,1,1,104.07037909999781,None,or1,1,2022-04-29_14h28.47.259,threat_forest,2021.2.3,60.12621695150609,
3,0,3,0,2,0,2,0,,,,,,,,,,left,0.5207910000026459,112.35029519999807,or1,112.35029519999807,None,107.96717920000083,109.98151260000304,True,1,['p'],True,0.4444444444444445,0.6666666666666666,0.3333333333333333,1.0,1.0,0.9656336071428248,0.4444444444444444,succ_gain,0,2,109.98151260000304,None,or1,1,2022-04-29_14h28.47.259,threat_forest,2021.2.3,60.12621695150609,
3,0,3,0,3,0,3,0,,,,,,,,,,left,0.6524647000042023,116.76099310000427,or1,116.76099310000427,None,107.96717920000083,109.98151260000304,True,2,['p'],True,0.4444444444444445,0.6666666666666666,0.3333333333333333,1.0,1.0,0.9656336071428248,-0.5555555555555556,unsucc_cost,0,0,114.91024219999963,None,or1,1,2022-04-29_14h28.47.259,threat_forest,2021.2.3,60.12621695150609,
3,0,3,0,,,,,,,,,,,,,,,,,,,,,,,,,,,,,,,,,,,,119.45625079999445,None,or1,1,2022-04-29_14h28.47.259,threat_forest,2021.2.3,60.12621695150609,
4,0,4,0,0,0,0,0,,,,,,,122.35402169999725,125.85481970000546,None,right,1.4321978999942075,126.55163099999481,or1,126.55163099999481,None,122.35402169999725,125.85481970000546,False,5,['p'],True,0.375,0.5,0.25,1.0,2.0,0.9850568223215076,0.0,wait_cost,0,4,,,or1,1,2022-04-29_14h28.47.259,threat_forest,2021.2.3,60.12621695150609,
4,0,4,0,1,0,1,0,,,,,,,,,,right,0.8967374000058044,132.52188770000066,or1,128.01531770000292,130.02937699999893,132.52188770000066,None,True,4,['p'],False,0.1728395061728395,0.2222222222222222,0.2222222222222222,2.0,2.0,0.8571721972794328,0.0,unsucc_cost,1,2,130.02937699999893,None,or1,1,2022-04-29_14h28.47.259,threat_forest,2021.2.3,60.12621695150609,
4,0,4,0,2,0,2,0,,,,,,,,,,right,0.6842215999931796,138.77240760000132,or1,128.01531770000292,130.02937699999893,138.77240760000132,None,True,2,['p'],False,0.1728395061728395,0.2222222222222222,0.2222222222222222,2.0,2.0,0.8571721972794328,-0.8271604938271605,unsucc_cost,1,0,135.45768459999817,None,or1,1,2022-04-29_14h28.47.259,threat_forest,2021.2.3,60.12621695150609,
4,0,4,0,,,,,,,,,,,,,,,,,,,,,,,,,,,,,,,,,,,,141.50218670000322,None,or1,1,2022-04-29_14h28.47.259,threat_forest,2021.2.3,60.12621695150609,
5,0,5,0,0,0,0,0,,,,,,,142.95567969999684,146.45033140000305,None,right,0.7445169999991776,149.7559215999936,or1,142.95567969999684,146.45033140000305,149.7559215999936,None,True,4,['r'],False,0.4081632653061224,0.5714285714285714,0.2857142857142857,2.0,2.0,0.9885754083994552,0.0,unsucc_cost,1,2,,,or1,1,2022-04-29_14h28.47.259,threat_forest,2021.2.3,60.12621695150609,
5,0,5,0,1,0,1,0,,,,,,,,,,left,0.6743556000001263,155.92901279999933,or1,155.92901279999933,None,150.52749170000607,152.54175760000362,True,2,['r'],True,0.5,0.5,0.0,0.0,2.0,0.6309297535714574,-0.5,unsucc_cost,0,0,152.54175760000362,None,or1,1,2022-04-29_14h28.47.259,threat_forest,2021.2.3,60.12621695150609,
5,0,5,0,,,,,,,,,,,,,,,,,,,,,,,,,,,,,,,,,,,,158.63757399999304,None,or1,1,2022-04-29_14h28.47.259,threat_forest,2021.2.3,60.12621695150609,
6,0,6,0,0,0,0,0,,,,,,,160.83475300000282,164.3353677999985,None,right,0.9244134999898961,167.08728690000135,or1,160.83475300000282,164.3353677999985,167.08728690000135,None,True,5,['p'],False,0.2222222222222222,0.2222222222222222,0.0,0.0,2.0,0.4821593609696809,0.0,succ_gain,1,6,,,or1,1,2022-04-29_14h28.47.259,threat_forest,2021.2.3,60.12621695150609,
6,0,6,0,1,0,1,0,,,,,,,,,,left,1.4693463000003248,171.6930013999954,or1,160.83475300000282,164.3353677999985,171.6930013999954,None,False,6,['p'],False,0.2222222222222222,0.2222222222222222,0.0,0.0,2.0,0.4821593609696809,0.0,wait_cost,1,5,170.05869330000132,None,or1,1,2022-04-29_14h28.47.259,threat_forest,2021.2.3,60.12621695150609,
6,0,6,0,2,0,2,0,,,,,,,,,,right,0.9338312999898335,177.53877480000665,or1,160.83475300000282,164.3353677999985,177.53877480000665,None,True,5,['p'],False,0.2222222222222222,0.2222222222222222,0.0,0.0,2.0,0.4821593609696809,0.0,succ_gain,1,6,175.20377259999805,None,or1,1,2022-04-29_14h28.47.259,threat_forest,2021.2.3,60.12621695150609,
6,0,6,0,3,0,3,0,,,,,,,,,,right,1.392617199991946,181.19851129999734,or1,181.19851129999734,None,178.50123530000565,180.51558819999627,False,6,['p'],True,0.4444444444444445,0.6666666666666666,0.3333333333333333,1.0,2.0,0.9656336071428248,0.0,wait_cost,0,5,180.51558819999627,None,or1,1,2022-04-29_14h28.47.259,threat_forest,2021.2.3,60.12621695150609,
6,0,6,0,4,0,4,0,,,,,,,,,,left,0.6123618999990867,185.703350900003,or1,182.61423849999846,184.62819049999234,185.703350900003,None,False,5,['p'],False,0.2222222222222222,0.2222222222222222,0.0,0.0,2.0,0.4821593609696809,0.0,wait_cost,1,4,184.62819049999234,None,or1,1,2022-04-29_14h28.47.259,threat_forest,2021.2.3,60.12621695150609,
6,0,6,0,5,0,5,0,,,,,,,,,,right,0.4794982000021264,191.1016144000023,or1,191.1016144000023,None,186.3436159999983,188.35821000000578,False,4,['p'],True,0.4444444444444445,0.6666666666666666,0.3333333333333333,1.0,2.0,0.9656336071428248,0.0,wait_cost,0,3,188.35821000000578,None,or1,1,2022-04-29_14h28.47.259,threat_forest,2021.2.3,60.12621695150609,
6,0,6,0,6,0,6,0,,,,,,,,,,left,0.5234787999943364,195.3156924000068,or1,191.60596709999663,193.6198371000064,195.3156924000068,None,False,3,['p'],False,0.2222222222222222,0.2222222222222222,0.0,0.0,2.0,0.4821593609696809,0.0,wait_cost,1,2,193.6198371000064,None,or1,1,2022-04-29_14h28.47.259,threat_forest,2021.2.3,60.12621695150609,
6,0,6,0,7,0,7,0,,,,,,,,,,left,0.6142972999950871,200.81451870000456,or1,191.60596709999663,193.6198371000064,200.81451870000456,None,False,2,['p'],False,0.2222222222222222,0.2222222222222222,0.0,0.0,2.0,0.4821593609696809,-0.7777777777777778,wait_cost,1,1,197.88249489999725,None,or1,1,2022-04-29_14h28.47.259,threat_forest,2021.2.3,60.12621695150609,
6,0,6,0,,,,,,,,,,,,,,,,,,,,,,,,,,,,,,,,,,,,203.46082979999483,None,or1,1,2022-04-29_14h28.47.259,threat_forest,2021.2.3,60.12621695150609,
7,0,7,0,0,0,0,0,,,,,,,205.29875669999456,208.79215079999994,None,left,0.8267261000000872,210.68446770000446,or1,205.29875669999456,208.79215079999994,210.68446770000446,None,False,4,['p'],False,0.2040816326530612,0.2857142857142857,0.2857142857142857,2.0,2.0,0.9335459102197724,0.0,wait_cost,1,3,,,or1,1,2022-04-29_14h28.47.259,threat_forest,2021.2.3,60.12621695150609,
7,0,7,0,1,0,1,0,,,,,,,,,,left,0.6545926999970106,215.00535579999269,or1,205.29875669999456,208.79215079999994,215.00535579999269,None,False,3,['p'],False,0.2040816326530612,0.2857142857142857,0.2857142857142857,2.0,2.0,0.9335459102197724,-0.2857142857142857,wait_cost,1,2,213.55138879999868,None,or1,1,2022-04-29_14h28.47.259,threat_forest,2021.2.3,60.12621695150609,
7,0,7,0,2,0,2,0,,,,,,,,,,left,1.0258392999967327,220.65263769999729,or1,220.65263769999729,None,215.68329390000144,217.6975364999962,True,2,['p'],True,0.4444444444444445,0.6666666666666666,0.3333333333333333,1.0,2.0,0.9656336071428248,-0.5555555555555556,figh_cost,0,0,217.6975364999962,None,or1,1,2022-04-29_14h28.47.259,threat_forest,2021.2.3,60.12621695150609,
7,0,7,0,,,,,,,,,,,,,,,,,,,,,,,,,,,,,,,,,,,,223.72536070000206,None,or1,1,2022-04-29_14h28.47.259,threat_forest,2021.2.3,60.12621695150609,
8,0,8,0,0,0,0,0,,,,,,,226.92193379999662,230.43564979999792,None,right,1.1984711999975843,231.74486399999296,or1,226.92193379999662,230.43564979999792,231.74486399999296,None,True,4,['r'],False,0.36,0.6,0.4,2.0,1.0,0.9801625908629508,0.0,succ_gain,1,5,,,or1,1,2022-04-29_14h28.47.259,threat_forest,2021.2.3,60.12621695150609,
8,0,8,0,1,0,1,0,,,,,,,,,,left,0.7579887000028975,235.66995419999876,or1,226.92193379999662,230.43564979999792,235.66995419999876,None,False,5,['r'],False,0.36,0.6,0.4,2.0,1.0,0.9801625908629508,0.0,wait_cost,1,4,234.9814452999999,None,or1,1,2022-04-29_14h28.47.259,threat_forest,2021.2.3,60.12621695150609,
8,0,8,0,2,0,2,0,,,,,,,,,,left,0.711148400005186,241.38127529999474,or1,226.92193379999662,230.43564979999792,241.38127529999474,None,False,4,['r'],False,0.36,0.6,0.4,2.0,1.0,0.9801625908629508,0.0,wait_cost,1,3,238.46155279999948,None,or1,1,2022-04-29_14h28.47.259,threat_forest,2021.2.3,60.12621695150609,
8,0,8,0,3,0,3,0,,,,,,,,,,left,0.7506483000033768,245.64977999999246,or1,245.64977999999246,None,242.1251684000017,244.13945560000138,True,3,['r'],True,0.5,0.5,0.0,0.0,1.0,0.6309297535714574,0.0,unsucc_cost,0,1,244.13945560000138,None,or1,1,2022-04-29_14h28.47.259,threat_forest,2021.2.3,60.12621695150609,
8,0,8,0,4,0,4,0,,,,,,,,,,left,0.5973629000072833,250.66949129999557,or1,250.66949129999557,None,242.1251684000017,244.13945560000138,True,1,['r'],True,0.5,0.5,0.0,0.0,1.0,0.6309297535714574,0.5,unsucc_cost,0,0,248.4355510000023,None,or1,1,2022-04-29_14h28.47.259,threat_forest,2021.2.3,60.12621695150609,
8,0,8,0,,,,,,,,,,,,,,,,,,,,,,,,,,,,,,,,,,,,253.29781400000502,None,or1,1,2022-04-29_14h28.47.259,threat_forest,2021.2.3,60.12621695150609,
9,0,9,0,0,0,0,0,,,,,,,254.2653594000003,257.7678581999935,None,left,0.9241871999984141,260.08592399999907,or1,260.08592399999907,None,254.2653594000003,257.7678581999935,True,5,['p'],True,0.4444444444444445,0.6666666666666666,0.3333333333333333,1.0,1.0,0.9656336071428248,0.0,succ_gain,0,6,,,or1,1,2022-04-29_14h28.47.259,threat_forest,2021.2.3,60.12621695150609,
9,0,9,0,1,0,1,0,,,,,,,,,,left,0.6030503000074532,266.59963169999537,or1,261.0407678000047,263.05525900000066,266.59963169999537,None,False,6,['p'],False,0.2222222222222222,0.2222222222222222,0.0,0.0,1.0,0.4821593609696809,0.0,wait_cost,1,5,263.05525900000066,None,or1,1,2022-04-29_14h28.47.259,threat_forest,2021.2.3,60.12621695150609,
9,0,9,0,2,0,2,0,,,,,,,,,,left,0.5584965000016382,270.10493089999363,or1,261.0407678000047,263.05525900000066,270.10493089999363,None,False,5,['p'],False,0.2222222222222222,0.2222222222222222,0.0,0.0,1.0,0.4821593609696809,0.0,wait_cost,1,4,269.23269849999633,None,or1,1,2022-04-29_14h28.47.259,threat_forest,2021.2.3,60.12621695150609,
9,0,9,0,3,0,3,0,,,,,,,,,,left,1.1133754000038607,274.3364520000032,or1,274.3364520000032,None,270.6819910000049,272.69617090000247,True,4,['p'],True,0.4444444444444445,0.6666666666666666,0.3333333333333333,1.0,1.0,0.9656336071428248,0.0,unsucc_cost,0,2,272.69617090000247,None,or1,1,2022-04-29_14h28.47.259,threat_forest,2021.2.3,60.12621695150609,
9,0,9,0,4,0,4,0,,,,,,,,,,left,0.6483573000004981,280.93432149999717,or1,275.477456099994,277.49172140000155,280.93432149999717,None,False,2,['p'],False,0.2222222222222222,0.2222222222222222,0.0,0.0,1.0,0.4821593609696809,-0.7777777777777778,wait_cost,1,1,277.49172140000155,None,or1,1,2022-04-29_14h28.47.259,threat_forest,2021.2.3,60.12621695150609,
9,0,9,0,5,0,5,0,,,,,,,,,,left,0.7568639000091935,284.61024320000433,or1,284.61024320000433,None,281.6049037000048,283.61932319999323,True,1,['p'],True,0.4444444444444445,0.6666666666666666,0.3333333333333333,1.0,1.0,0.9656336071428248,0.4444444444444444,figh_cost,0,0,283.61932319999323,None,or1,1,2022-04-29_14h28.47.259,threat_forest,2021.2.3,60.12621695150609,
9,0,9,0,,,,,,,,,,,,,,,,,,,,,,,,,,,,,,,,,,,,287.3991922999994,None,or1,1,2022-04-29_14h28.47.259,threat_forest,2021.2.3,60.12621695150609,
10,0,10,0,0,0,0,0,,,,,,,290.6101544999983,294.1146191000007,None,left,0.5500069999980042,296.2700205000001,or1,296.2700205000001,None,290.6101544999983,294.1146191000007,True,4,['r'],True,0.5,0.5,0.0,0.0,1.0,0.6309297535714574,0.0,unsucc_cost,0,2,,,or1,1,2022-04-29_14h28.47.259,threat_forest,2021.2.3,60.12621695150609,
10,0,10,0,1,0,1,0,,,,,,,,,,right,0.9553752999927383,300.3520584999933,or1,296.8407877999998,298.8549856000027,300.3520584999933,None,True,2,['r'],False,0.4081632653061224,0.5714285714285714,0.2857142857142857,2.0,1.0,0.9885754083994552,-0.5918367346938775,unsucc_cost,1,0,298.8549856000027,None,or1,1,2022-04-29_14h28.47.259,threat_forest,2021.2.3,60.12621695150609,
10,0,10,0,,,,,,,,,,,,,,,,,,,,,,,,,,,,,,,,,,,,303.35115839999344,None,or1,1,2022-04-29_14h28.47.259,threat_forest,2021.2.3,60.12621695150609,
11,0,11,0,0,0,0,0,,,,,,,304.1996949000022,307.71365140000125,None,right,0.6198424000031082,308.37617339999997,or1,304.1996949000022,307.71365140000125,308.37617339999997,None,True,5,['r'],False,0.36,0.6,0.4,2.0,2.0,0.9801625908629508,0.0,unsucc_cost,1,3,,,or1,1,2022-04-29_14h28.47.259,threat_forest,2021.2.3,60.12621695150609,
11,0,11,0,1,0,1,0,,,,,,,,,,left,0.753050200000871,312.8547741999937,or1,312.8547741999937,None,309.01253839999845,311.02694789999805,True,3,['r'],True,0.5,0.5,0.0,0.0,2.0,0.6309297535714574,0.0,succ_gain,0,5,311.02694789999805,None,or1,1,2022-04-29_14h28.47.259,threat_forest,2021.2.3,60.12621695150609,
11,0,11,0,2,0,2,0,,,,,,,,,,right,1.0201132000074722,316.87575130000187,or1,316.87575130000187,None,309.01253839999845,311.02694789999805,False,5,['r'],True,0.5,0.5,0.0,0.0,2.0,0.6309297535714574,0.0,wait_cost,0,4,315.63936139999714,None,or1,1,2022-04-29_14h28.47.259,threat_forest,2021.2.3,60.12621695150609,
11,0,11,0,3,0,3,0,,,,,,,,,,right,0.9177455000026384,322.88666560000274,or1,322.88666560000274,None,309.01253839999845,311.02694789999805,False,4,['r'],True,0.5,0.5,0.0,0.0,2.0,0.6309297535714574,0.0,wait_cost,0,3,319.9354774999956,None,or1,1,2022-04-29_14h28.47.259,threat_forest,2021.2.3,60.12621695150609,
11,0,11,0,4,0,4,0,,,,,,,,,,right,0.7950928999925964,327.86671529999876,or1,327.86671529999876,None,309.01253839999845,311.02694789999805,False,3,['r'],True,0.5,0.5,0.0,0.0,2.0,0.6309297535714574,0.0,wait_cost,0,2,325.8465271000023,None,or1,1,2022-04-29_14h28.47.259,threat_forest,2021.2.3,60.12621695150609,
11,0,11,0,5,0,5,0,,,,,,,,,,right,0.6633565999945858,331.9474862000061,or1,328.6942773000046,330.70859150000615,331.9474862000061,None,True,2,['r'],False,0.36,0.6,0.4,2.0,2.0,0.9801625908629508,-0.64,succ_gain,1,4,330.70859150000615,None,or1,1,2022-04-29_14h28.47.259,threat_forest,2021.2.3,60.12621695150609,
11,0,11,0,6,0,6,0,,,,,,,,,,left,0.8403740999929141,336.50642089999747,or1,328.6942773000046,330.70859150000615,336.50642089999747,None,False,4,['r'],False,0.36,0.6,0.4,2.0,2.0,0.9801625908629508,0.0,wait_cost,1,3,334.65498059999663,None,or1,1,2022-04-29_14h28.47.259,threat_forest,2021.2.3,60.12621695150609,
11,0,11,0,7,0,7,0,,,,,,,,,,left,0.5241590999939945,341.69894699999713,or1,328.6942773000046,330.70859150000615,341.69894699999713,None,False,3,['r'],False,0.36,0.6,0.4,2.0,2.0,0.9801625908629508,-0.4,wait_cost,1,2,339.3839158000046,None,or1,1,2022-04-29_14h28.47.259,threat_forest,2021.2.3,60.12621695150609,
11,0,11,0,,,,,,,,,,,,,,,,,,,,,,,,,,,,,,,,,,,,344.26279399999476,None,or1,1,2022-04-29_14h28.47.259,threat_forest,2021.2.3,60.12621695150609,
12,0,12,0,0,0,0,0,,,,,,,347.4842553000053,350.9899041000026,None,left,0.6943688000028487,353.3457746000058,or1,347.4842553000053,350.9899041000026,353.3457746000058,None,False,4,['p'],False,0.2448979591836734,0.2857142857142857,0.1428571428571428,1.0,2.0,0.8400769154957735,0.0,wait_cost,1,3,,,or1,1,2022-04-29_14h28.47.259,threat_forest,2021.2.3,60.12621695150609,
12,0,12,0,1,0,1,0,,,,,,,,,,left,0.5796558000001824,358.59140130000014,or1,347.4842553000053,350.9899041000026,358.59140130000014,None,False,3,['p'],False,0.2448979591836734,0.2857142857142857,0.1428571428571428,1.0,2.0,0.8400769154957735,-0.1428571428571428,wait_cost,1,2,356.0848776000057,None,or1,1,2022-04-29_14h28.47.259,threat_forest,2021.2.3,60.12621695150609,
12,0,12,0,2,0,2,0,,,,,,,,,,left,0.5919997000019066,363.8343195000052,or1,347.4842553000053,350.9899041000026,363.8343195000052,None,False,2,['p'],False,0.2448979591836734,0.2857142857142857,0.1428571428571428,1.0,2.0,0.8400769154957735,-0.7551020408163265,wait_cost,1,1,361.2133705000015,None,or1,1,2022-04-29_14h28.47.259,threat_forest,2021.2.3,60.12621695150609,
12,0,12,0,3,0,3,0,,,,,,,,,,right,0.5952929999912158,368.5280517000065,or1,347.4842553000053,350.9899041000026,368.5280517000065,None,True,1,['p'],False,0.2448979591836734,0.2857142857142857,0.1428571428571428,1.0,2.0,0.8400769154957735,0.2448979591836735,unsucc_cost,1,0,366.45864539999457,None,or1,1,2022-04-29_14h28.47.259,threat_forest,2021.2.3,60.12621695150609,
12,0,12,0,,,,,,,,,,,,,,,,,,,,,,,,,,,,,,,,,,,,371.1543456999934,None,or1,1,2022-04-29_14h28.47.259,threat_forest,2021.2.3,60.12621695150609,
13,0,13,0,0,0,0,0,,,,,,,373.5523033000063,377.05435299999954,None,left,0.793245000008028,380.326272899998,or1,373.5523033000063,377.05435299999954,380.326272899998,None,False,4,['p'],False,0.18,0.2,0.1,1.0,2.0,0.7058405977926203,0.0,wait_cost,1,3,,,or1,1,2022-04-29_14h28.47.259,threat_forest,2021.2.3,60.12621695150609,
13,0,13,0,1,0,1,0,,,,,,,,,,right,0.8699805000069318,384.1038578000007,or1,373.5523033000063,377.05435299999954,384.1038578000007,None,True,3,['p'],False,0.18,0.2,0.1,1.0,2.0,0.7058405977926203,-0.1,unsucc_cost,1,1,383.16199049999705,None,or1,1,2022-04-29_14h28.47.259,threat_forest,2021.2.3,60.12621695150609,
13,0,13,0,2,0,2,0,,,,,,,,,,left,0.6942508000065573,388.7280587999994,or1,373.5523033000063,377.05435299999954,388.7280587999994,None,False,1,['p'],False,0.18,0.2,0.1,1.0,2.0,0.7058405977926203,0.1799999999999999,wait_cost,1,0,387.0061693000025,None,or1,1,2022-04-29_14h28.47.259,threat_forest,2021.2.3,60.12621695150609,
13,0,13,0,,,,,,,,,,,,,,,,,,,,,,,,,,,,,,,,,,,,391.4686529000028,None,or1,1,2022-04-29_14h28.47.259,threat_forest,2021.2.3,60.12621695150609,
14,0,14,0,0,0,0,0,,,,,,,392.17498710000655,395.66908419999527,None,left,0.8130820000078529,398.3263625999971,or1,392.17498710000655,395.66908419999527,398.3263625999971,None,False,5,['p'],False,0.16,0.2,0.2,2.0,2.0,0.8198746470064713,0.0,wait_cost,1,4,,,or1,1,2022-04-29_14h28.47.259,threat_forest,2021.2.3,60.12621695150609,
14,0,14,0,1,0,1,0,,,,,,,,,,left,0.6088713000062853,404.26944509999885,or1,392.17498710000655,395.66908419999527,404.26944509999885,None,False,4,['p'],False,0.16,0.2,0.2,2.0,2.0,0.8198746470064713,0.0,wait_cost,1,3,401.1761286999972,None,or1,1,2022-04-29_14h28.47.259,threat_forest,2021.2.3,60.12621695150609,
14,0,14,0,2,0,2,0,,,,,,,,,,left,1.0309180000040215,408.4157067000051,or1,408.4157067000051,None,404.90110000000277,406.90413320000516,True,3,['p'],True,0.24,0.4,0.4,2.0,2.0,0.9801625908629508,-0.4,succ_gain,0,5,406.90413320000516,None,or1,1,2022-04-29_14h28.47.259,threat_forest,2021.2.3,60.12621695150609,
14,0,14,0,3,0,3,0,,,,,,,,,,left,0.5349162999918917,414.92902270000195,or1,409.4688739999983,411.4831547000067,414.92902270000195,None,False,5,['p'],False,0.16,0.2,0.2,2.0,2.0,0.8198746470064713,0.0,wait_cost,1,4,411.4831547000067,None,or1,1,2022-04-29_14h28.47.259,threat_forest,2021.2.3,60.12621695150609,
14,0,14,0,4,0,4,0,,,,,,,,,,left,0.47365300000819843,419.86777209999855,or1,409.4688739999983,411.4831547000067,419.86777209999855,None,False,4,['p'],False,0.16,0.2,0.2,2.0,2.0,0.8198746470064713,0.0,wait_cost,1,3,417.5108573000034,None,or1,1,2022-04-29_14h28.47.259,threat_forest,2021.2.3,60.12621695150609,
14,0,14,0,5,0,5,0,,,,,,,,,,left,1.6507308000000194,423.3468742999976,or1,423.3468742999976,None,420.3587123000034,422.3729788000055,True,3,['p'],True,0.24,0.4,0.4,2.0,2.0,0.9801625908629508,-0.4,figh_cost,0,0,422.3729788000055,None,or1,1,2022-04-29_14h28.47.259,threat_forest,2021.2.3,60.12621695150609,
14,0,14,0,,,,,,,,,,,,,,,,,,,,,,,,,,,,,,,,,,,,427.03543940000236,None,or1,1,2022-04-29_14h28.47.259,threat_forest,2021.2.3,60.12621695150609,
15,0,15,0,0,0,0,0,,,,,,,428.5465861999983,432.0474014000065,None,left,1.2043249999987893,435.43582620000234,or1,435.43582620000234,None,428.5465861999983,432.0474014000065,True,5,['r'],True,0.25,0.25,0.0,0.0,2.0,0.5118595071429148,0.0,unsucc_cost,0,3,,,or1,1,2022-04-29_14h28.47.259,threat_forest,2021.2.3,60.12621695150609,
15,0,15,0,1,0,1,0,,,,,,,,,,left,0.7738297000032617,442.3881066000031,or1,442.3881066000031,None,428.5465861999983,432.0474014000065,True,3,['r'],True,0.25,0.25,0.0,0.0,2.0,0.5118595071429148,0.0,unsucc_cost,0,1,438.6743155000004,None,or1,1,2022-04-29_14h28.47.259,threat_forest,2021.2.3,60.12621695150609,
15,0,15,0,2,0,2,0,,,,,,,,,,right,0.5817057999956887,445.89114799999516,or1,443.1871822999965,445.2015800999943,445.89114799999516,None,True,1,['r'],False,0.2222222222222222,0.6666666666666666,0.6666666666666666,2.0,2.0,0.77250688571426,0.2222222222222222,unsucc_cost,1,0,445.2015800999943,None,or1,1,2022-04-29_14h28.47.259,threat_forest,2021.2.3,60.12621695150609,
15,0,15,0,,,,,,,,,,,,,,,,,,,,,,,,,,,,,,,,,,,,448.51505539999926,None,or1,1,2022-04-29_14h28.47.259,threat_forest,2021.2.3,60.12621695150609,
16,0,16,0,0,0,0,0,,,,,,,450.27962030000344,453.7707189000066,None,right,0.8086502000078326,455.10790790000465,or1,450.27962030000344,453.7707189000066,455.10790790000465,None,True,4,['p'],False,0.2592592592592592,0.3333333333333333,0.2222222222222222,2.0,2.0,0.9327883776363324,0.0,unsucc_cost,1,2,,,or1,1,2022-04-29_14h28.47.259,threat_forest,2021.2.3,60.12621695150609,
16,0,16,0,1,0,1,0,,,,,,,,,,left,0.6689036000025226,460.16389609999896,or1,460.16389609999896,None,455.94225809999625,457.9564750999998,True,2,['p'],True,0.375,0.5,0.25,1.0,2.0,0.9850568223215076,-0.625,unsucc_cost,0,0,457.9564750999998,None,or1,1,2022-04-29_14h28.47.259,threat_forest,2021.2.3,60.12621695150609,
16,0,16,0,,,,,,,,,,,,,,,,,,,,,,,,,,,,,,,,,,,,462.868598400004,None,or1,1,2022-04-29_14h28.47.259,threat_forest,2021.2.3,60.12621695150609,
17,0,17,0,0,0,0,0,,,,,,,465.2947756000067,468.79634030000307,None,left,0.9691972000000533,470.97260039999674,or1,465.2947756000067,468.79634030000307,470.97260039999674,None,False,5,['r'],False,0.2222222222222222,0.6666666666666666,0.6666666666666666,2.0,1.0,0.77250688571426,0.0,wait_cost,1,4,,,or1,1,2022-04-29_14h28.47.259,threat_forest,2021.2.3,60.12621695150609,
17,0,17,0,1,0,1,0,,,,,,,,,,left,0.7390766000025906,476.2731602999993,or1,465.2947756000067,468.79634030000307,476.2731602999993,None,False,4,['r'],False,0.2222222222222222,0.6666666666666666,0.6666666666666666,2.0,1.0,0.77250688571426,0.0,wait_cost,1,3,473.9746943999926,None,or1,1,2022-04-29_14h28.47.259,threat_forest,2021.2.3,60.12621695150609,
17,0,17,0,2,0,2,0,,,,,,,,,,left,1.2830690999981016,481.41827439999906,or1,465.2947756000067,468.79634030000307,481.41827439999906,None,False,3,['r'],False,0.2222222222222222,0.6666666666666666,0.6666666666666666,2.0,1.0,0.77250688571426,-0.6666666666666666,wait_cost,1,2,479.05342270000256,None,or1,1,2022-04-29_14h28.47.259,threat_forest,2021.2.3,60.12621695150609,
17,0,17,0,3,0,3,0,,,,,,,,,,right,0.4676529999997001,486.58153630000015,or1,465.2947756000067,468.79634030000307,486.58153630000015,None,True,2,['r'],False,0.2222222222222222,0.6666666666666666,0.6666666666666666,2.0,1.0,0.77250688571426,-0.7777777777777778,succ_gain,1,3,484.74808360000316,None,or1,1,2022-04-29_14h28.47.259,threat_forest,2021.2.3,60.12621695150609,
17,0,17,0,4,0,4,0,,,,,,,,,,None,,492.59945470000093,or1,492.59945470000093,None,487.0795641000004,489.0938008999947,None,3,['r'],True,0.25,0.25,0.0,0.0,1.0,0.5118595071429148,0.0,wait_cost,0,2,489.0938008999947,None,or1,1,2022-04-29_14h28.47.259,threat_forest,2021.2.3,60.12621695150609,
17,0,17,0,5,0,5,0,,,,,,,,,,left,1.090206799999578,498.8233176000067,or1,495.6049401000055,497.6192802000005,498.8233176000067,None,False,2,['r'],False,0.2222222222222222,0.6666666666666666,0.6666666666666666,2.0,1.0,0.77250688571426,-0.7777777777777778,wait_cost,1,1,497.6192802000005,None,or1,1,2022-04-29_14h28.47.259,threat_forest,2021.2.3,60.12621695150609,
17,0,17,0,6,0,6,0,,,,,,,,,,left,0.6627696000068681,505.68790669999726,or1,505.68790669999726,None,499.9339626000001,501.9486165999988,True,1,['r'],True,0.25,0.25,0.0,0.0,1.0,0.5118595071429148,0.25,figh_cost,0,0,501.9486165999988,None,or1,1,2022-04-29_14h28.47.259,threat_forest,2021.2.3,60.12621695150609,
17,0,17,0,,,,,,,,,,,,,,,,,,,,,,,,,,,,,,,,,,,,508.39255020000564,None,or1,1,2022-04-29_14h28.47.259,threat_forest,2021.2.3,60.12621695150609,
