miniblock.thisRepN,miniblock.thisTrialN,miniblock.thisN,miniblock.thisIndex,day.thisRepN,day.thisTrialN,day.thisN,day.thisIndex,welcoming.started,welcoming.stopped,key_resp_2.keys,key_resp_2.rt,key_resp_2.started,key_resp_2.stopped,forest.started,fixation_forest.started,fixation_forest.stopped,key_resp.keys,key_resp.rt,key_resp.started,Subject_ID,weather_left.started,weather_left.stopped,weather_right.started,weather_right.stopped,foraging T/F,in_LP,p/r heuristic,good_weather.T/F,p_succ_correct,p_succ_uncorrected,r_threat,n_oponents,gain_if_succ,weather_entropy,OP_value_difference,action_outcome,forest_side_L=0_R=1,out_LP,fixation_day.started,fixation_day.stopped,n_day-1.out_LP.,participant,session,date,expName,psychopyVersion,frameRate,
,,,,,,,,5.932764053344727,None,space,5.859135150909424,5.932764053344727,None,,,,,,,,,,,,,,,,,,,,,,,,,,,,,pt3,4,2023-03-30_12h21.17.737,threat_forest,2021.2.3,59.54620956361499,
0,0,0,0,0,0,0,0,,,,,,,11.827417135238647,15.3314049243927,None,right,1.0541539192199707,16.880304098129272,pt3,11.827417135238647,15.3314049243927,16.880304098129272,None,True,4,['r'],False,0.4444444444444445,0.6666666666666666,0.3333333333333333,2.0,2.0,0.9656336071428248,0.0,succ_gain,1,6,,,,pt3,4,2023-03-30_12h21.17.737,threat_forest,2021.2.3,59.54620956361499,
0,0,0,0,1,0,1,0,,,,,,,,,,left,0.8593270778656006,21.175522089004517,pt3,11.827417135238647,15.3314049243927,21.175522089004517,None,False,6,['r'],False,0.4444444444444445,0.6666666666666666,0.3333333333333333,2.0,2.0,0.9656336071428248,0.0,wait_cost,1,5,19.977949142456055,None,6,pt3,4,2023-03-30_12h21.17.737,threat_forest,2021.2.3,59.54620956361499,
0,0,0,0,2,0,2,0,,,,,,,,,,right,1.0330851078033447,25.776916027069092,pt3,25.776916027069092,None,22.067909002304077,24.082603931427002,False,5,['r'],True,0.6,0.6,0.0,0.0,2.0,0.6126016192893442,0.0,wait_cost,0,4,24.082603931427002,None,5,pt3,4,2023-03-30_12h21.17.737,threat_forest,2021.2.3,59.54620956361499,
0,0,0,0,3,0,3,0,,,,,,,,,,right,1.5491180419921875,29.42834210395813,pt3,29.42834210395813,None,22.067909002304077,24.082603931427002,False,4,['r'],True,0.6,0.6,0.0,0.0,2.0,0.6126016192893442,0.0,wait_cost,0,3,28.837716102600098,None,4,pt3,4,2023-03-30_12h21.17.737,threat_forest,2021.2.3,59.54620956361499,
0,0,0,0,4,0,4,0,,,,,,,,,,right,0.7961928844451904,36.397889137268066,pt3,31.00813913345337,33.00917410850525,36.397889137268066,None,True,3,['r'],False,0.4444444444444445,0.6666666666666666,0.3333333333333333,2.0,2.0,0.9656336071428248,-0.3333333333333333,succ_gain,1,5,33.00917410850525,None,3,pt3,4,2023-03-30_12h21.17.737,threat_forest,2021.2.3,59.54620956361499,
0,0,0,0,5,0,5,0,,,,,,,,,,right,0.5057239532470703,41.84232497215271,pt3,41.84232497215271,None,37.22105002403259,39.222557067871094,False,5,['r'],True,0.6,0.6,0.0,0.0,2.0,0.6126016192893442,0.0,wait_cost,0,4,39.222557067871094,None,5,pt3,4,2023-03-30_12h21.17.737,threat_forest,2021.2.3,59.54620956361499,
0,0,0,0,6,0,6,0,,,,,,,,,,right,0.6642529964447021,47.741811990737915,pt3,47.741811990737915,None,37.22105002403259,39.222557067871094,False,4,['r'],True,0.6,0.6,0.0,0.0,2.0,0.6126016192893442,0.0,wait_cost,0,3,44.372304916381836,None,4,pt3,4,2023-03-30_12h21.17.737,threat_forest,2021.2.3,59.54620956361499,
0,0,0,0,7,0,7,0,,,,,,,,,,right,1.0378448963165283,54.19080591201782,pt3,54.19080591201782,None,37.22105002403259,39.222557067871094,False,3,['r'],True,0.6,0.6,0.0,0.0,2.0,0.6126016192893442,0.0,wait_cost,0,2,50.429322957992554,None,3,pt3,4,2023-03-30_12h21.17.737,threat_forest,2021.2.3,59.54620956361499,
0,0,0,0,,,,,,,,,,,,,,,,,,,,,,,,,,,,,,,,,,,,57.27214813232422,None,2,pt3,4,2023-03-30_12h21.17.737,threat_forest,2021.2.3,59.54620956361499,
1,0,1,0,0,0,0,0,,,,,,,59.423304080963135,62.925925970077515,None,left,0.9091119766235352,64.904629945755,pt3,59.423304080963135,62.925925970077515,64.904629945755,None,False,4,['r'],False,0.36,0.6,0.4,2.0,2.0,0.9801625908629508,0.0,wait_cost,1,3,,,,pt3,4,2023-03-30_12h21.17.737,threat_forest,2021.2.3,59.54620956361499,
1,0,1,0,1,0,1,0,,,,,,,,,,left,1.434683084487915,69.14947414398193,pt3,69.14947414398193,None,65.84660196304321,67.84871292114258,True,3,['r'],True,0.5,0.5,0.0,0.0,2.0,0.6309297535714574,0.0,succ_gain,0,5,67.84871292114258,None,3,pt3,4,2023-03-30_12h21.17.737,threat_forest,2021.2.3,59.54620956361499,
1,0,1,0,2,0,2,0,,,,,,,,,,left,1.0589120388031006,74.0403470993042,pt3,70.61101293563843,72.62389898300171,74.0403470993042,None,False,5,['r'],False,0.36,0.6,0.4,2.0,2.0,0.9801625908629508,0.0,wait_cost,1,4,72.62389898300171,None,5,pt3,4,2023-03-30_12h21.17.737,threat_forest,2021.2.3,59.54620956361499,
1,0,1,0,3,0,3,0,,,,,,,,,,left,1.635228157043457,77.99713706970215,pt3,70.61101293563843,72.62389898300171,77.99713706970215,None,False,4,['r'],False,0.36,0.6,0.4,2.0,2.0,0.9801625908629508,0.0,wait_cost,1,3,77.12496495246887,None,4,pt3,4,2023-03-30_12h21.17.737,threat_forest,2021.2.3,59.54620956361499,
1,0,1,0,4,0,4,0,,,,,,,,,,left,2.0966479778289795,82.4995629787445,pt3,70.61101293563843,72.62389898300171,82.4995629787445,None,False,3,['r'],False,0.36,0.6,0.4,2.0,2.0,0.9801625908629508,-0.4,wait_cost,1,2,81.6642599105835,None,3,pt3,4,2023-03-30_12h21.17.737,threat_forest,2021.2.3,59.54620956361499,
1,0,1,0,5,0,5,0,,,,,,,,,,left,1.2813310623168945,87.35034394264221,pt3,70.61101293563843,72.62389898300171,87.35034394264221,None,False,2,['r'],False,0.36,0.6,0.4,2.0,2.0,0.9801625908629508,-0.64,wait_cost,1,1,86.6197280883789,None,2,pt3,4,2023-03-30_12h21.17.737,threat_forest,2021.2.3,59.54620956361499,
1,0,1,0,6,0,6,0,,,,,,,,,,left,0.8829681873321533,92.7277979850769,pt3,92.7277979850769,None,88.65873694419861,90.65745306015015,True,1,['r'],True,0.5,0.5,0.0,0.0,2.0,0.6309297535714574,0.5,unsucc_cost,0,0,90.65745306015015,None,1,pt3,4,2023-03-30_12h21.17.737,threat_forest,2021.2.3,59.54620956361499,
1,0,1,0,,,,,,,,,,,,,,,,,,,,,,,,,,,,,,,,,,,,95.65934896469116,None,0,pt3,4,2023-03-30_12h21.17.737,threat_forest,2021.2.3,59.54620956361499,
2,0,2,0,0,0,0,0,,,,,,,98.22215008735657,101.73654913902283,None,left,1.2774288654327393,103.12799501419067,pt3,103.12799501419067,None,98.22215008735657,101.73654913902283,True,4,['r'],True,0.5,0.5,0.0,0.0,1.0,0.6309297535714574,0.0,unsucc_cost,0,2,,,,pt3,4,2023-03-30_12h21.17.737,threat_forest,2021.2.3,59.54620956361499,
2,0,2,0,1,0,1,0,,,,,,,,,,left,0.6303999423980713,107.46446204185486,pt3,107.46446204185486,None,98.22215008735657,101.73654913902283,True,2,['r'],True,0.5,0.5,0.0,0.0,1.0,0.6309297535714574,-0.5,unsucc_cost,0,0,106.42468690872192,None,2,pt3,4,2023-03-30_12h21.17.737,threat_forest,2021.2.3,59.54620956361499,
2,0,2,0,,,,,,,,,,,,,,,,,,,,,,,,,,,,,,,,,,,,110.1298451423645,None,0,pt3,4,2023-03-30_12h21.17.737,threat_forest,2021.2.3,59.54620956361499,
3,0,3,0,0,0,0,0,,,,,,,112.4864730834961,115.98597693443298,None,right,1.4231600761413574,118.63065791130066,pt3,112.4864730834961,115.98597693443298,118.63065791130066,None,True,5,['p'],False,0.2040816326530612,0.2857142857142857,0.2857142857142857,2.0,2.0,0.9335459102197724,0.0,succ_gain,1,6,,,,pt3,4,2023-03-30_12h21.17.737,threat_forest,2021.2.3,59.54620956361499,
3,0,3,0,1,0,1,0,,,,,,,,,,right,1.6012511253356934,125.01979207992554,pt3,125.01979207992554,None,120.0865089893341,122.09312701225281,False,6,['p'],True,0.4444444444444445,0.6666666666666666,0.3333333333333333,1.0,2.0,0.9656336071428248,0.0,wait_cost,0,5,122.09312701225281,None,6,pt3,4,2023-03-30_12h21.17.737,threat_forest,2021.2.3,59.54620956361499,
3,0,3,0,2,0,2,0,,,,,,,,,,right,2.191859006881714,131.50516390800476,pt3,126.64855194091797,128.65038514137268,131.50516390800476,None,True,5,['p'],False,0.2040816326530612,0.2857142857142857,0.2857142857142857,2.0,2.0,0.9335459102197724,0.0,succ_gain,1,6,128.65038514137268,None,5,pt3,4,2023-03-30_12h21.17.737,threat_forest,2021.2.3,59.54620956361499,
3,0,3,0,3,0,3,0,,,,,,,,,,right,0.8249650001525879,136.41211199760437,pt3,136.41211199760437,None,133.73065996170044,135.7420620918274,False,6,['p'],True,0.4444444444444445,0.6666666666666666,0.3333333333333333,1.0,2.0,0.9656336071428248,0.0,wait_cost,0,5,135.7420620918274,None,6,pt3,4,2023-03-30_12h21.17.737,threat_forest,2021.2.3,59.54620956361499,
3,0,3,0,4,0,4,0,,,,,,,,,,right,0.6980569362640381,142.4830949306488,pt3,142.4830949306488,None,133.73065996170044,135.7420620918274,False,5,['p'],True,0.4444444444444445,0.6666666666666666,0.3333333333333333,1.0,2.0,0.9656336071428248,0.0,wait_cost,0,4,139.26577711105347,None,5,pt3,4,2023-03-30_12h21.17.737,threat_forest,2021.2.3,59.54620956361499,
3,0,3,0,5,0,5,0,,,,,,,,,,right,1.223078966140747,148.08708906173706,pt3,148.08708906173706,None,133.73065996170044,135.7420620918274,False,4,['p'],True,0.4444444444444445,0.6666666666666666,0.3333333333333333,1.0,2.0,0.9656336071428248,0.0,wait_cost,0,3,145.2020709514618,None,4,pt3,4,2023-03-30_12h21.17.737,threat_forest,2021.2.3,59.54620956361499,
3,0,3,0,6,0,6,0,,,,,,,,,,right,0.6761209964752197,153.58168506622314,pt3,153.58168506622314,None,133.73065996170044,135.7420620918274,False,3,['p'],True,0.4444444444444445,0.6666666666666666,0.3333333333333333,1.0,2.0,0.9656336071428248,-0.3333333333333333,wait_cost,0,2,151.34267711639404,None,3,pt3,4,2023-03-30_12h21.17.737,threat_forest,2021.2.3,59.54620956361499,
3,0,3,0,7,0,7,0,,,,,,,,,,left,0.9522209167480469,158.90097498893738,pt3,154.2828619480133,156.2814290523529,158.90097498893738,None,False,2,['p'],False,0.2040816326530612,0.2857142857142857,0.2857142857142857,2.0,2.0,0.9335459102197724,-0.7959183673469388,wait_cost,1,1,156.2814290523529,None,2,pt3,4,2023-03-30_12h21.17.737,threat_forest,2021.2.3,59.54620956361499,
3,0,3,0,,,,,,,,,,,,,,,,,,,,,,,,,,,,,,,,,,,,161.888906955719,None,1,pt3,4,2023-03-30_12h21.17.737,threat_forest,2021.2.3,59.54620956361499,
4,0,4,0,0,0,0,0,,,,,,,164.11677312850952,167.62760400772095,None,left,1.5112709999084473,169.48369002342224,pt3,169.48369002342224,None,164.11677312850952,167.62760400772095,True,4,['p'],True,0.3333333333333333,0.3333333333333333,0.0,0.0,2.0,0.5793801642856949,0.0,unsucc_cost,0,2,,,,pt3,4,2023-03-30_12h21.17.737,threat_forest,2021.2.3,59.54620956361499,
4,0,4,0,1,0,1,0,,,,,,,,,,left,1.0295581817626953,176.49828004837036,pt3,176.49828004837036,None,164.11677312850952,167.62760400772095,True,2,['p'],True,0.3333333333333333,0.3333333333333333,0.0,0.0,2.0,0.5793801642856949,-0.6666666666666667,succ_gain,0,4,173.03958797454834,None,2,pt3,4,2023-03-30_12h21.17.737,threat_forest,2021.2.3,59.54620956361499,
4,0,4,0,2,0,2,0,,,,,,,,,,left,1.233093023300171,181.00247502326965,pt3,181.00247502326965,None,164.11677312850952,167.62760400772095,True,4,['p'],True,0.3333333333333333,0.3333333333333333,0.0,0.0,2.0,0.5793801642856949,0.0,succ_gain,0,6,179.5755970478058,None,4,pt3,4,2023-03-30_12h21.17.737,threat_forest,2021.2.3,59.54620956361499,
4,0,4,0,3,0,3,0,,,,,,,,,,left,1.0923609733581543,187.78666400909424,pt3,182.2647409439087,184.26356410980225,187.78666400909424,None,False,6,['p'],False,0.2222222222222222,0.6666666666666666,0.6666666666666666,2.0,2.0,0.77250688571426,0.0,wait_cost,1,5,184.26356410980225,None,6,pt3,4,2023-03-30_12h21.17.737,threat_forest,2021.2.3,59.54620956361499,
4,0,4,0,4,0,4,0,,,,,,,,,,left,1.0364699363708496,191.45455193519592,pt3,182.2647409439087,184.26356410980225,191.45455193519592,None,False,5,['p'],False,0.2222222222222222,0.6666666666666666,0.6666666666666666,2.0,2.0,0.77250688571426,0.0,wait_cost,1,4,190.9209690093994,None,5,pt3,4,2023-03-30_12h21.17.737,threat_forest,2021.2.3,59.54620956361499,
4,0,4,0,5,0,5,0,,,,,,,,,,right,1.5550670623779297,195.65906190872192,pt3,195.65906190872192,None,192.5227611064911,194.5249969959259,False,4,['p'],True,0.3333333333333333,0.3333333333333333,0.0,0.0,2.0,0.5793801642856949,0.0,wait_cost,0,3,194.5249969959259,None,4,pt3,4,2023-03-30_12h21.17.737,threat_forest,2021.2.3,59.54620956361499,
4,0,4,0,6,0,6,0,,,,,,,,,,left,0.7960269451141357,202.4196379184723,pt3,197.2535970211029,199.2637870311737,202.4196379184723,None,False,3,['p'],False,0.2222222222222222,0.6666666666666666,0.6666666666666666,2.0,2.0,0.77250688571426,-0.6666666666666666,wait_cost,1,2,199.2637870311737,None,3,pt3,4,2023-03-30_12h21.17.737,threat_forest,2021.2.3,59.54620956361499,
4,0,4,0,7,0,7,0,,,,,,,,,,right,0.8156528472900391,208.79249906539917,pt3,208.79249906539917,None,203.24159908294678,205.25357294082642,False,2,['p'],True,0.3333333333333333,0.3333333333333333,0.0,0.0,2.0,0.5793801642856949,-0.6666666666666667,wait_cost,0,1,205.25357294082642,None,2,pt3,4,2023-03-30_12h21.17.737,threat_forest,2021.2.3,59.54620956361499,
4,0,4,0,,,,,,,,,,,,,,,,,,,,,,,,,,,,,,,,,,,,211.65104293823242,None,1,pt3,4,2023-03-30_12h21.17.737,threat_forest,2021.2.3,59.54620956361499,
5,0,5,0,0,0,0,0,,,,,,,214.1696901321411,217.68421411514282,None,left,1.3584468364715576,220.1122169494629,pt3,220.1122169494629,None,214.1696901321411,217.68421411514282,True,5,['r'],True,0.4444444444444445,0.6666666666666666,0.3333333333333333,1.0,1.0,0.9656336071428248,0.0,succ_gain,0,6,,,,pt3,4,2023-03-30_12h21.17.737,threat_forest,2021.2.3,59.54620956361499,
5,0,5,0,1,0,1,0,,,,,,,,,,left,0.7689011096954346,226.63278198242188,pt3,221.49347591400146,223.5073790550232,226.63278198242188,None,False,6,['r'],False,0.2,0.2,0.0,0.0,1.0,0.4554859150035951,0.0,wait_cost,1,5,223.5073790550232,None,6,pt3,4,2023-03-30_12h21.17.737,threat_forest,2021.2.3,59.54620956361499,
5,0,5,0,2,0,2,0,,,,,,,,,,left,1.5212559700012207,230.81383299827576,pt3,221.49347591400146,223.5073790550232,230.81383299827576,None,False,5,['r'],False,0.2,0.2,0.0,0.0,1.0,0.4554859150035951,0.0,wait_cost,1,4,229.44746899604797,None,5,pt3,4,2023-03-30_12h21.17.737,threat_forest,2021.2.3,59.54620956361499,
5,0,5,0,3,0,3,0,,,,,,,,,,left,0.9820618629455566,236.35306692123413,pt3,221.49347591400146,223.5073790550232,236.35306692123413,None,False,4,['r'],False,0.2,0.2,0.0,0.0,1.0,0.4554859150035951,0.0,wait_cost,1,3,234.38617610931396,None,4,pt3,4,2023-03-30_12h21.17.737,threat_forest,2021.2.3,59.54620956361499,
5,0,5,0,4,0,4,0,,,,,,,,,,left,2.1370010375976562,241.47680592536926,pt3,221.49347591400146,223.5073790550232,241.47680592536926,None,False,3,['r'],False,0.2,0.2,0.0,0.0,1.0,0.4554859150035951,0.0,wait_cost,1,2,239.35880708694458,None,3,pt3,4,2023-03-30_12h21.17.737,threat_forest,2021.2.3,59.54620956361499,
5,0,5,0,5,0,5,0,,,,,,,,,,left,0.8349599838256836,248.83833003044128,pt3,248.83833003044128,None,243.635999917984,245.64915895462036,True,2,['r'],True,0.4444444444444445,0.6666666666666666,0.3333333333333333,1.0,1.0,0.9656336071428248,-0.5555555555555556,fight_cost,0,0,245.64915895462036,None,2,pt3,4,2023-03-30_12h21.17.737,threat_forest,2021.2.3,59.54620956361499,
5,0,5,0,,,,,,,,,,,,,,,,,,,,,,,,,,,,,,,,,,,,251.70654892921448,None,0,pt3,4,2023-03-30_12h21.17.737,threat_forest,2021.2.3,59.54620956361499,
6,0,6,0,0,0,0,0,,,,,,,253.06664896011353,256.57768297195435,None,left,1.953305959701538,257.1864581108093,pt3,257.1864581108093,None,253.06664896011353,256.57768297195435,True,5,['p'],True,0.4444444444444445,0.6666666666666666,0.3333333333333333,1.0,2.0,0.9656336071428248,0.0,succ_gain,0,6,,,,pt3,4,2023-03-30_12h21.17.737,threat_forest,2021.2.3,59.54620956361499,
6,0,6,0,1,0,1,0,,,,,,,,,,right,1.0732738971710205,261.70092511177063,pt3,261.70092511177063,None,253.06664896011353,256.57768297195435,False,6,['p'],True,0.4444444444444445,0.6666666666666666,0.3333333333333333,1.0,2.0,0.9656336071428248,0.0,wait_cost,0,5,261.18317914009094,None,6,pt3,4,2023-03-30_12h21.17.737,threat_forest,2021.2.3,59.54620956361499,
6,0,6,0,2,0,2,0,,,,,,,,,,left,1.3470518589019775,266.4198319911957,pt3,266.4198319911957,None,253.06664896011353,256.57768297195435,True,5,['p'],True,0.4444444444444445,0.6666666666666666,0.3333333333333333,1.0,2.0,0.9656336071428248,0.0,fight_cost,0,2,264.80369901657104,None,5,pt3,4,2023-03-30_12h21.17.737,threat_forest,2021.2.3,59.54620956361499,
6,0,6,0,3,0,3,0,,,,,,,,,,left,2.324191093444824,271.55699491500854,pt3,271.55699491500854,None,253.06664896011353,256.57768297195435,True,2,['p'],True,0.4444444444444445,0.6666666666666666,0.3333333333333333,1.0,2.0,0.9656336071428248,-0.5555555555555556,unsucc_cost,0,0,269.79338002204895,None,2,pt3,4,2023-03-30_12h21.17.737,threat_forest,2021.2.3,59.54620956361499,
6,0,6,0,,,,,,,,,,,,,,,,,,,,,,,,,,,,,,,,,,,,275.91650795936584,None,0,pt3,4,2023-03-30_12h21.17.737,threat_forest,2021.2.3,59.54620956361499,
7,0,7,0,0,0,0,0,,,,,,,278.6400101184845,282.1400740146637,None,right,1.0577380657196045,284.72977113723755,pt3,278.6400101184845,282.1400740146637,284.72977113723755,None,True,5,['r'],False,0.2222222222222222,0.2222222222222222,0.0,0.0,1.0,0.4821593609696809,0.0,fight_cost,1,2,,,,pt3,4,2023-03-30_12h21.17.737,threat_forest,2021.2.3,59.54620956361499,
7,0,7,0,1,0,1,0,,,,,,,,,,right,0.8321540355682373,290.3192341327667,pt3,278.6400101184845,282.1400740146637,290.3192341327667,None,True,2,['r'],False,0.2222222222222222,0.2222222222222222,0.0,0.0,1.0,0.4821593609696809,-0.7777777777777778,succ_gain,1,3,287.8135941028595,None,2,pt3,4,2023-03-30_12h21.17.737,threat_forest,2021.2.3,59.54620956361499,
7,0,7,0,2,0,2,0,,,,,,,,,,right,1.2457749843597412,295.8246879577637,pt3,295.8246879577637,None,291.1901891231537,293.20297408103943,False,3,['r'],True,0.4444444444444445,0.6666666666666666,0.3333333333333333,1.0,1.0,0.9656336071428248,-0.3333333333333333,wait_cost,0,2,293.20297408103943,None,3,pt3,4,2023-03-30_12h21.17.737,threat_forest,2021.2.3,59.54620956361499,
7,0,7,0,3,0,3,0,,,,,,,,,,left,2.4388489723205566,301.40302896499634,pt3,301.40302896499634,None,291.1901891231537,293.20297408103943,True,2,['r'],True,0.4444444444444445,0.6666666666666666,0.3333333333333333,1.0,1.0,0.9656336071428248,-0.5555555555555556,succ_gain,0,3,299.10908913612366,None,2,pt3,4,2023-03-30_12h21.17.737,threat_forest,2021.2.3,59.54620956361499,
7,0,7,0,4,0,4,0,,,,,,,,,,right,1.5124759674072266,308.157338142395,pt3,303.8685131072998,305.8837420940399,308.157338142395,None,True,3,['r'],False,0.2222222222222222,0.2222222222222222,0.0,0.0,1.0,0.4821593609696809,0.0,succ_gain,1,4,305.8837420940399,None,3,pt3,4,2023-03-30_12h21.17.737,threat_forest,2021.2.3,59.54620956361499,
7,0,7,0,5,0,5,0,,,,,,,,,,right,0.7143938541412354,314.6304979324341,pt3,314.6304979324341,None,309.6927719116211,311.7070109844208,False,4,['r'],True,0.4444444444444445,0.6666666666666666,0.3333333333333333,1.0,1.0,0.9656336071428248,0.0,wait_cost,0,3,311.7070109844208,None,4,pt3,4,2023-03-30_12h21.17.737,threat_forest,2021.2.3,59.54620956361499,
7,0,7,0,6,0,6,0,,,,,,,,,,right,0.6419739723205566,319.64969205856323,pt3,319.64969205856323,None,309.6927719116211,311.7070109844208,False,3,['r'],True,0.4444444444444445,0.6666666666666666,0.3333333333333333,1.0,1.0,0.9656336071428248,-0.3333333333333333,wait_cost,0,2,317.39686012268066,None,3,pt3,4,2023-03-30_12h21.17.737,threat_forest,2021.2.3,59.54620956361499,
7,0,7,0,7,0,7,0,,,,,,,,,,left,1.0032570362091064,325.2898359298706,pt3,320.3212959766388,322.3355929851532,325.2898359298706,None,False,2,['r'],False,0.2222222222222222,0.2222222222222222,0.0,0.0,1.0,0.4821593609696809,-0.7777777777777778,wait_cost,1,1,322.3355929851532,None,2,pt3,4,2023-03-30_12h21.17.737,threat_forest,2021.2.3,59.54620956361499,
7,0,7,0,,,,,,,,,,,,,,,,,,,,,,,,,,,,,,,,,,,,328.345566034317,None,1,pt3,4,2023-03-30_12h21.17.737,threat_forest,2021.2.3,59.54620956361499,
8,0,8,0,0,0,0,0,,,,,,,330.8043620586395,334.3156900405884,None,left,1.6347620487213135,337.11058712005615,pt3,337.11058712005615,None,330.8043620586395,334.3156900405884,True,5,['p'],True,0.4444444444444445,0.6666666666666666,0.3333333333333333,1.0,1.0,0.9656336071428248,0.0,succ_gain,0,6,,,,pt3,4,2023-03-30_12h21.17.737,threat_forest,2021.2.3,59.54620956361499,
8,0,8,0,1,0,1,0,,,,,,,,,,right,0.8831207752227783,342.07072496414185,pt3,342.07072496414185,None,330.8043620586395,334.3156900405884,False,6,['p'],True,0.4444444444444445,0.6666666666666666,0.3333333333333333,1.0,1.0,0.9656336071428248,0.0,wait_cost,0,5,340.7896020412445,None,6,pt3,4,2023-03-30_12h21.17.737,threat_forest,2021.2.3,59.54620956361499,
8,0,8,0,2,0,2,0,,,,,,,,,,left,1.8616209030151367,345.51750802993774,pt3,342.97593092918396,344.97767901420593,345.51750802993774,None,False,5,['p'],False,0.1975308641975308,0.2222222222222222,0.1111111111111111,1.0,1.0,0.7461067557824965,0.0,wait_cost,1,4,344.97767901420593,None,5,pt3,4,2023-03-30_12h21.17.737,threat_forest,2021.2.3,59.54620956361499,
8,0,8,0,3,0,3,0,,,,,,,,,,left,2.6413681507110596,350.7367079257965,pt3,350.7367079257965,None,347.40025997161865,349.39937806129456,True,4,['p'],True,0.4444444444444445,0.6666666666666666,0.3333333333333333,1.0,1.0,0.9656336071428248,0.0,fight_cost,0,1,349.39937806129456,None,4,pt3,4,2023-03-30_12h21.17.737,threat_forest,2021.2.3,59.54620956361499,
8,0,8,0,4,0,4,0,,,,,,,,,,left,1.3694591522216797,357.8565580844879,pt3,357.8565580844879,None,347.40025997161865,349.39937806129456,True,1,['p'],True,0.4444444444444445,0.6666666666666666,0.3333333333333333,1.0,1.0,0.9656336071428248,0.4444444444444444,fight_cost,0,0,355.42315006256104,None,1,pt3,4,2023-03-30_12h21.17.737,threat_forest,2021.2.3,59.54620956361499,
8,0,8,0,,,,,,,,,,,,,,,,,,,,,,,,,,,,,,,,,,,,361.2498199939728,None,0,pt3,4,2023-03-30_12h21.17.737,threat_forest,2021.2.3,59.54620956361499,
9,0,9,0,0,0,0,0,,,,,,,362.9079649448395,366.4181230068207,None,left,1.0112040042877197,367.35004591941833,pt3,362.9079649448395,366.4181230068207,367.35004591941833,None,False,5,['r'],False,0.27,0.3,0.1,1.0,1.0,0.7963326591781347,0.0,wait_cost,1,4,,,,pt3,4,2023-03-30_12h21.17.737,threat_forest,2021.2.3,59.54620956361499,
9,0,9,0,1,0,1,0,,,,,,,,,,left,0.8694038391113281,371.70622301101685,pt3,362.9079649448395,366.4181230068207,371.70622301101685,None,False,4,['r'],False,0.27,0.3,0.1,1.0,1.0,0.7963326591781347,0.0,wait_cost,1,3,370.40611600875854,None,4,pt3,4,2023-03-30_12h21.17.737,threat_forest,2021.2.3,59.54620956361499,
9,0,9,0,2,0,2,0,,,,,,,,,,left,0.7041130065917969,377.4131050109863,pt3,362.9079649448395,366.4181230068207,377.4131050109863,None,False,3,['r'],False,0.27,0.3,0.1,1.0,1.0,0.7963326591781347,-0.1,wait_cost,1,2,374.6123740673065,None,3,pt3,4,2023-03-30_12h21.17.737,threat_forest,2021.2.3,59.54620956361499,
9,0,9,0,3,0,3,0,,,,,,,,,,left,1.0401980876922607,383.4566559791565,pt3,383.4566559791565,None,378.15084505081177,380.15102791786194,True,2,['r'],True,0.4166666666666667,0.5,0.1666666666666666,1.0,1.0,0.9358932809493992,-0.5833333333333333,unsucc_cost,0,0,380.15102791786194,None,2,pt3,4,2023-03-30_12h21.17.737,threat_forest,2021.2.3,59.54620956361499,
9,0,9,0,,,,,,,,,,,,,,,,,,,,,,,,,,,,,,,,,,,,386.5294530391693,None,0,pt3,4,2023-03-30_12h21.17.737,threat_forest,2021.2.3,59.54620956361499,
10,0,10,0,0,0,0,0,,,,,,,387.6141400337219,391.12093710899353,None,left,1.402937889099121,392.57543897628784,pt3,392.57543897628784,None,387.6141400337219,391.12093710899353,True,5,['p'],True,0.625,0.625,0.0,0.0,2.0,0.6021808102656677,0.0,unsucc_cost,0,3,,,,pt3,4,2023-03-30_12h21.17.737,threat_forest,2021.2.3,59.54620956361499,
10,0,10,0,1,0,1,0,,,,,,,,,,right,2.244823932647705,397.7627351284027,pt3,394.0050411224365,396.0181541442871,397.7627351284027,None,True,3,['p'],False,0.5185185185185185,0.6666666666666666,0.2222222222222222,2.0,2.0,0.9327883776363328,-0.2222222222222222,succ_gain,1,5,396.0181541442871,None,3,pt3,4,2023-03-30_12h21.17.737,threat_forest,2021.2.3,59.54620956361499,
10,0,10,0,2,0,2,0,,,,,,,,,,left,1.6059370040893555,404.28096199035645,pt3,404.28096199035645,None,400.04468393325806,402.0396730899811,True,5,['p'],True,0.625,0.625,0.0,0.0,2.0,0.6021808102656677,0.0,succ_gain,0,6,402.0396730899811,None,5,pt3,4,2023-03-30_12h21.17.737,threat_forest,2021.2.3,59.54620956361499,
10,0,10,0,3,0,3,0,,,,,,,,,,right,0.5965449810028076,409.1154820919037,pt3,409.1154820919037,None,400.04468393325806,402.0396730899811,False,6,['p'],True,0.625,0.625,0.0,0.0,2.0,0.6021808102656677,0.0,wait_cost,0,5,407.9356200695038,None,6,pt3,4,2023-03-30_12h21.17.737,threat_forest,2021.2.3,59.54620956361499,
10,0,10,0,4,0,4,0,,,,,,,,,,left,0.662283182144165,412.47193813323975,pt3,409.7479200363159,411.7531089782715,412.47193813323975,None,False,5,['p'],False,0.5185185185185185,0.6666666666666666,0.2222222222222222,2.0,2.0,0.9327883776363328,0.0,wait_cost,1,4,411.7531089782715,None,5,pt3,4,2023-03-30_12h21.17.737,threat_forest,2021.2.3,59.54620956361499,
10,0,10,0,5,0,5,0,,,,,,,,,,right,0.6575109958648682,417.9291739463806,pt3,417.9291739463806,None,413.15725111961365,415.15689396858215,False,4,['p'],True,0.625,0.625,0.0,0.0,2.0,0.6021808102656677,0.0,wait_cost,0,3,415.15689396858215,None,4,pt3,4,2023-03-30_12h21.17.737,threat_forest,2021.2.3,59.54620956361499,
10,0,10,0,6,0,6,0,,,,,,,,,,left,0.8431999683380127,423.8214581012726,pt3,418.6190140247345,420.62456703186035,423.8214581012726,None,False,3,['p'],False,0.5185185185185185,0.6666666666666666,0.2222222222222222,2.0,2.0,0.9327883776363328,-0.2222222222222222,wait_cost,1,2,420.62456703186035,None,3,pt3,4,2023-03-30_12h21.17.737,threat_forest,2021.2.3,59.54620956361499,
10,0,10,0,7,0,7,0,,,,,,,,,,left,0.8062498569488525,428.32422399520874,pt3,418.6190140247345,420.62456703186035,428.32422399520874,None,False,2,['p'],False,0.5185185185185185,0.6666666666666666,0.2222222222222222,2.0,2.0,0.9327883776363328,-0.4814814814814815,wait_cost,1,1,426.6938190460205,None,2,pt3,4,2023-03-30_12h21.17.737,threat_forest,2021.2.3,59.54620956361499,
10,0,10,0,,,,,,,,,,,,,,,,,,,,,,,,,,,,,,,,,,,,431.18574690818787,None,1,pt3,4,2023-03-30_12h21.17.737,threat_forest,2021.2.3,59.54620956361499,
11,0,11,0,0,0,0,0,,,,,,,432.3486120700836,435.84654712677,None,right,1.3343329429626465,438.15677094459534,pt3,432.3486120700836,435.84654712677,438.15677094459534,None,True,5,['p'],False,0.2592592592592592,0.3333333333333333,0.2222222222222222,2.0,2.0,0.9327883776363324,0.0,succ_gain,1,6,,,,pt3,4,2023-03-30_12h21.17.737,threat_forest,2021.2.3,59.54620956361499,
11,0,11,0,1,0,1,0,,,,,,,,,,left,1.1969668865203857,444.01999592781067,pt3,432.3486120700836,435.84654712677,444.01999592781067,None,False,6,['p'],False,0.2592592592592592,0.3333333333333333,0.2222222222222222,2.0,2.0,0.9327883776363324,0.0,wait_cost,1,5,441.536847114563,None,6,pt3,4,2023-03-30_12h21.17.737,threat_forest,2021.2.3,59.54620956361499,
11,0,11,0,2,0,2,0,,,,,,,,,,left,1.1874990463256836,450.6973910331726,pt3,432.3486120700836,435.84654712677,450.6973910331726,None,False,5,['p'],False,0.2592592592592592,0.3333333333333333,0.2222222222222222,2.0,2.0,0.9327883776363324,0.0,wait_cost,1,4,447.24280309677124,None,5,pt3,4,2023-03-30_12h21.17.737,threat_forest,2021.2.3,59.54620956361499,
11,0,11,0,3,0,3,0,,,,,,,,,,left,1.5577478408813477,455.6694030761719,pt3,432.3486120700836,435.84654712677,455.6694030761719,None,False,4,['p'],False,0.2592592592592592,0.3333333333333333,0.2222222222222222,2.0,2.0,0.9327883776363324,0.0,wait_cost,1,3,453.9332571029663,None,4,pt3,4,2023-03-30_12h21.17.737,threat_forest,2021.2.3,59.54620956361499,
11,0,11,0,4,0,4,0,,,,,,,,,,left,0.8197710514068604,460.5964241027832,pt3,460.5964241027832,None,457.26116609573364,459.27347707748413,True,3,['p'],True,0.4444444444444445,0.6666666666666666,0.3333333333333333,1.0,2.0,0.9656336071428248,-0.3333333333333333,fight_cost,0,0,459.27347707748413,None,3,pt3,4,2023-03-30_12h21.17.737,threat_forest,2021.2.3,59.54620956361499,
11,0,11,0,,,,,,,,,,,,,,,,,,,,,,,,,,,,,,,,,,,,463.44473695755005,None,0,pt3,4,2023-03-30_12h21.17.737,threat_forest,2021.2.3,59.54620956361499,
12,0,12,0,0,0,0,0,,,,,,,465.5652301311493,469.0671989917755,None,left,1.184509038925171,470.21161699295044,pt3,465.5652301311493,469.0671989917755,470.21161699295044,None,False,4,['r'],False,0.25,0.5,0.5,2.0,1.0,0.9463946303571862,0.0,wait_cost,1,3,,,,pt3,4,2023-03-30_12h21.17.737,threat_forest,2021.2.3,59.54620956361499,
12,0,12,0,1,0,1,0,,,,,,,,,,left,1.421504020690918,476.29535007476807,pt3,476.29535007476807,None,471.426185131073,473.4392490386963,True,3,['r'],True,0.3333333333333333,0.3333333333333333,0.0,0.0,1.0,0.5793801642856949,0.0,succ_gain,0,4,473.4392490386963,None,3,pt3,4,2023-03-30_12h21.17.737,threat_forest,2021.2.3,59.54620956361499,
12,0,12,0,2,0,2,0,,,,,,,,,,left,0.8708198070526123,480.3300869464874,pt3,480.3300869464874,None,471.426185131073,473.4392490386963,True,4,['r'],True,0.3333333333333333,0.3333333333333333,0.0,0.0,1.0,0.5793801642856949,0.0,unsucc_cost,0,2,479.76327896118164,None,4,pt3,4,2023-03-30_12h21.17.737,threat_forest,2021.2.3,59.54620956361499,
12,0,12,0,3,0,3,0,,,,,,,,,,left,2.224886894226074,485.03117394447327,pt3,481.23625111579895,483.25080013275146,485.03117394447327,None,False,2,['r'],False,0.25,0.5,0.5,2.0,1.0,0.9463946303571862,-0.75,wait_cost,1,1,483.25080013275146,None,2,pt3,4,2023-03-30_12h21.17.737,threat_forest,2021.2.3,59.54620956361499,
12,0,12,0,4,0,4,0,,,,,,,,,,right,1.2967028617858887,492.0907390117645,pt3,481.23625111579895,483.25080013275146,492.0907390117645,None,True,1,['r'],False,0.25,0.5,0.5,2.0,1.0,0.9463946303571862,0.25,fight_cost,1,0,489.2905640602112,None,1,pt3,4,2023-03-30_12h21.17.737,threat_forest,2021.2.3,59.54620956361499,
12,0,12,0,,,,,,,,,,,,,,,,,,,,,,,,,,,,,,,,,,,,495.4175851345062,None,0,pt3,4,2023-03-30_12h21.17.737,threat_forest,2021.2.3,59.54620956361499,
13,0,13,0,0,0,0,0,,,,,,,496.9795229434967,500.4860899448395,None,left,0.9959721565246582,501.64942812919617,pt3,496.9795229434967,500.4860899448395,501.64942812919617,None,False,4,['r'],False,0.3333333333333333,0.5,0.3333333333333333,2.0,2.0,1.0,0.0,wait_cost,1,3,,,,pt3,4,2023-03-30_12h21.17.737,threat_forest,2021.2.3,59.54620956361499,
13,0,13,0,1,0,1,0,,,,,,,,,,left,1.0966811180114746,505.47563314437866,pt3,496.9795229434967,500.4860899448395,505.47563314437866,None,False,3,['r'],False,0.3333333333333333,0.5,0.3333333333333333,2.0,2.0,1.0,-0.3333333333333333,wait_cost,1,2,504.6911690235138,None,3,pt3,4,2023-03-30_12h21.17.737,threat_forest,2021.2.3,59.54620956361499,
13,0,13,0,2,0,2,0,,,,,,,,,,left,1.3558051586151123,509.8018410205841,pt3,509.8018410205841,None,506.59371399879456,508.5957019329071,True,2,['r'],True,0.4,0.4,0.0,0.0,2.0,0.6126016192893442,-0.6,unsucc_cost,0,0,508.5957019329071,None,2,pt3,4,2023-03-30_12h21.17.737,threat_forest,2021.2.3,59.54620956361499,
13,0,13,0,,,,,,,,,,,,,,,,,,,,,,,,,,,,,,,,,,,,513.2008490562439,None,0,pt3,4,2023-03-30_12h21.17.737,threat_forest,2021.2.3,59.54620956361499,
14,0,14,0,0,0,0,0,,,,,,,516.7873990535736,520.2920911312103,None,left,1.4847970008850098,521.7014489173889,pt3,516.7873990535736,520.2920911312103,521.7014489173889,None,False,5,['p'],False,0.16,0.2,0.2,2.0,1.0,0.8198746470064713,0.0,wait_cost,1,4,,,,pt3,4,2023-03-30_12h21.17.737,threat_forest,2021.2.3,59.54620956361499,
14,0,14,0,1,0,1,0,,,,,,,,,,left,0.6028749942779541,528.0701661109924,pt3,528.0701661109924,None,523.216117143631,525.2308650016785,True,4,['p'],True,0.25,0.5,0.5,1.0,1.0,0.9463946303571862,0.0,succ_gain,0,5,525.2308650016785,None,4,pt3,4,2023-03-30_12h21.17.737,threat_forest,2021.2.3,59.54620956361499,
14,0,14,0,2,0,2,0,,,,,,,,,,left,0.47952818870544434,532.9908690452576,pt3,532.9908690452576,None,523.216117143631,525.2308650016785,True,5,['p'],True,0.25,0.5,0.5,1.0,1.0,0.9463946303571862,0.0,fight_cost,0,2,530.7078559398651,None,5,pt3,4,2023-03-30_12h21.17.737,threat_forest,2021.2.3,59.54620956361499,
14,0,14,0,3,0,3,0,,,,,,,,,,left,1.503938913345337,537.7073359489441,pt3,533.4905660152435,535.4936389923096,537.7073359489441,None,False,2,['p'],False,0.16,0.2,0.2,2.0,1.0,0.8198746470064713,-0.8400000000000001,wait_cost,1,1,535.4936389923096,None,2,pt3,4,2023-03-30_12h21.17.737,threat_forest,2021.2.3,59.54620956361499,
14,0,14,0,4,0,4,0,,,,,,,,,,left,0.9057321548461914,542.7906169891357,pt3,542.7906169891357,None,539.2360219955444,541.2492101192474,True,1,['p'],True,0.25,0.5,0.5,1.0,1.0,0.9463946303571862,0.25,succ_gain,0,2,541.2492101192474,None,1,pt3,4,2023-03-30_12h21.17.737,threat_forest,2021.2.3,59.54620956361499,
14,0,14,0,5,0,5,0,,,,,,,,,,left,0.7617669105529785,548.5451850891113,pt3,543.7263860702515,545.7368109226227,548.5451850891113,None,False,2,['p'],False,0.16,0.2,0.2,2.0,1.0,0.8198746470064713,-0.8400000000000001,wait_cost,1,1,545.7368109226227,None,2,pt3,4,2023-03-30_12h21.17.737,threat_forest,2021.2.3,59.54620956361499,
14,0,14,0,6,0,6,0,,,,,,,,,,left,0.7578868865966797,552.567556142807,pt3,552.567556142807,None,549.3250811100006,551.3272929191589,True,1,['p'],True,0.25,0.5,0.5,1.0,1.0,0.9463946303571862,0.25,fight_cost,0,0,551.3272929191589,None,1,pt3,4,2023-03-30_12h21.17.737,threat_forest,2021.2.3,59.54620956361499,
14,0,14,0,,,,,,,,,,,,,,,,,,,,,,,,,,,,,,,,,,,,555.3483579158783,None,0,pt3,4,2023-03-30_12h21.17.737,threat_forest,2021.2.3,59.54620956361499,
15,0,15,0,0,0,0,0,,,,,,,557.3520059585571,560.8540201187134,None,left,1.0604901313781738,563.6522309780121,pt3,563.6522309780121,None,557.3520059585571,560.8540201187134,True,5,['p'],True,0.48,0.6,0.2,1.0,1.0,0.9455672104350704,0.0,succ_gain,0,6,,,,pt3,4,2023-03-30_12h21.17.737,threat_forest,2021.2.3,59.54620956361499,
15,0,15,0,1,0,1,0,,,,,,,,,,left,1.5459411144256592,567.7339899539948,pt3,564.7463181018829,566.7612130641937,567.7339899539948,None,False,6,['p'],False,0.2962962962962963,0.3333333333333333,0.1111111111111111,1.0,1.0,0.8325252476189534,0.0,wait_cost,1,5,566.7612130641937,None,6,pt3,4,2023-03-30_12h21.17.737,threat_forest,2021.2.3,59.54620956361499,
15,0,15,0,2,0,2,0,,,,,,,,,,right,1.0066301822662354,575.0342600345612,pt3,564.7463181018829,566.7612130641937,575.0342600345612,None,True,5,['p'],False,0.2962962962962963,0.3333333333333333,0.1111111111111111,1.0,1.0,0.8325252476189534,0.0,unsucc_cost,1,3,571.3164489269257,None,5,pt3,4,2023-03-30_12h21.17.737,threat_forest,2021.2.3,59.54620956361499,
15,0,15,0,3,0,3,0,,,,,,,,,,left,0.9919538497924805,579.9147229194641,pt3,579.9147229194641,None,576.0753860473633,578.0906510353088,True,3,['p'],True,0.48,0.6,0.2,1.0,1.0,0.9455672104350704,-0.2,succ_gain,0,4,578.0906510353088,None,3,pt3,4,2023-03-30_12h21.17.737,threat_forest,2021.2.3,59.54620956361499,
15,0,15,0,4,0,4,0,,,,,,,,,,left,0.7735660076141357,584.5491020679474,pt3,580.9298801422119,582.9294590950012,584.5491020679474,None,False,4,['p'],False,0.2962962962962963,0.3333333333333333,0.1111111111111111,1.0,1.0,0.8325252476189534,0.0,wait_cost,1,3,582.9294590950012,None,4,pt3,4,2023-03-30_12h21.17.737,threat_forest,2021.2.3,59.54620956361499,
15,0,15,0,5,0,5,0,,,,,,,,,,left,1.364772081375122,589.4835770130157,pt3,580.9298801422119,582.9294590950012,589.4835770130157,None,False,3,['p'],False,0.2962962962962963,0.3333333333333333,0.1111111111111111,1.0,1.0,0.8325252476189534,-0.1111111111111111,wait_cost,1,2,587.3678109645844,None,3,pt3,4,2023-03-30_12h21.17.737,threat_forest,2021.2.3,59.54620956361499,
15,0,15,0,6,0,6,0,,,,,,,,,,left,0.7775290012359619,593.9662411212921,pt3,593.9662411212921,None,590.8728640079498,592.8815851211548,True,2,['p'],True,0.48,0.6,0.2,1.0,1.0,0.9455672104350704,-0.52,fight_cost,0,0,592.8815851211548,None,2,pt3,4,2023-03-30_12h21.17.737,threat_forest,2021.2.3,59.54620956361499,
15,0,15,0,,,,,,,,,,,,,,,,,,,,,,,,,,,,,,,,,,,,596.7779729366302,None,0,pt3,4,2023-03-30_12h21.17.737,threat_forest,2021.2.3,59.54620956361499,
16,0,16,0,0,0,0,0,,,,,,,600.2797911167145,603.7904939651489,None,left,0.5923678874969482,606.7296841144562,pt3,600.2797911167145,603.7904939651489,606.7296841144562,None,False,4,['r'],False,0.27,0.3,0.1,1.0,1.0,0.7963326591781347,0.0,wait_cost,1,3,,,,pt3,4,2023-03-30_12h21.17.737,threat_forest,2021.2.3,59.54620956361499,
16,0,16,0,1,0,1,0,,,,,,,,,,left,0.6987330913543701,612.1364040374756,pt3,612.1364040374756,None,607.3406789302826,609.3427889347076,True,3,['r'],True,0.4444444444444445,0.6666666666666666,0.3333333333333333,1.0,1.0,0.9656336071428248,-0.3333333333333333,unsucc_cost,0,1,609.3427889347076,None,3,pt3,4,2023-03-30_12h21.17.737,threat_forest,2021.2.3,59.54620956361499,
16,0,16,0,2,0,2,0,,,,,,,,,,left,0.6350769996643066,618.4000570774078,pt3,618.4000570774078,None,607.3406789302826,609.3427889347076,True,1,['r'],True,0.4444444444444445,0.6666666666666666,0.3333333333333333,1.0,1.0,0.9656336071428248,0.4444444444444444,unsucc_cost,0,0,614.8816421031952,None,1,pt3,4,2023-03-30_12h21.17.737,threat_forest,2021.2.3,59.54620956361499,
16,0,16,0,,,,,,,,,,,,,,,,,,,,,,,,,,,,,,,,,,,,621.0626599788666,None,0,pt3,4,2023-03-30_12h21.17.737,threat_forest,2021.2.3,59.54620956361499,
17,0,17,0,0,0,0,0,,,,,,,623.8959560394287,627.3960800170898,None,left,0.6436591148376465,628.7267959117889,pt3,628.7267959117889,None,623.8959560394287,627.3960800170898,True,5,['r'],True,0.2777777777777778,0.3333333333333333,0.1666666666666666,1.0,2.0,0.8929352898779304,0.0,succ_gain,0,6,,,,pt3,4,2023-03-30_12h21.17.737,threat_forest,2021.2.3,59.54620956361499,
17,0,17,0,1,0,1,0,,,,,,,,,,left,1.094970941543579,635.1911540031433,pt3,629.4056370258331,631.416965007782,635.1911540031433,None,False,6,['r'],False,0.1975308641975308,0.2222222222222222,0.1111111111111111,1.0,2.0,0.7461067557824965,0.0,wait_cost,1,5,631.416965007782,None,6,pt3,4,2023-03-30_12h21.17.737,threat_forest,2021.2.3,59.54620956361499,
17,0,17,0,2,0,2,0,,,,,,,,,,left,1.0612459182739258,640.8508701324463,pt3,640.8508701324463,None,636.3072531223297,638.3037309646606,True,5,['r'],True,0.2777777777777778,0.3333333333333333,0.1666666666666666,1.0,2.0,0.8929352898779304,0.0,succ_gain,0,6,638.3037309646606,None,5,pt3,4,2023-03-30_12h21.17.737,threat_forest,2021.2.3,59.54620956361499,
17,0,17,0,3,0,3,0,,,,,,,,,,right,0.8248691558837891,644.4654200077057,pt3,644.4654200077057,None,636.3072531223297,638.3037309646606,False,6,['r'],True,0.2777777777777778,0.3333333333333333,0.1666666666666666,1.0,2.0,0.8929352898779304,0.0,wait_cost,0,5,643.9480729103088,None,6,pt3,4,2023-03-30_12h21.17.737,threat_forest,2021.2.3,59.54620956361499,
17,0,17,0,4,0,4,0,,,,,,,,,,left,0.6778669357299805,649.8205211162567,pt3,645.3217329978943,647.3351349830627,649.8205211162567,None,False,5,['r'],False,0.1975308641975308,0.2222222222222222,0.1111111111111111,1.0,2.0,0.7461067557824965,0.0,wait_cost,1,4,647.3351349830627,None,5,pt3,4,2023-03-30_12h21.17.737,threat_forest,2021.2.3,59.54620956361499,
17,0,17,0,5,0,5,0,,,,,,,,,,right,0.7434971332550049,655.4843881130219,pt3,655.4843881130219,None,650.5274441242218,652.5340390205383,False,4,['r'],True,0.2777777777777778,0.3333333333333333,0.1666666666666666,1.0,2.0,0.8929352898779304,0.0,wait_cost,0,3,652.5340390205383,None,4,pt3,4,2023-03-30_12h21.17.737,threat_forest,2021.2.3,59.54620956361499,
17,0,17,0,6,0,6,0,,,,,,,,,,right,0.7555670738220215,660.1665360927582,pt3,660.1665360927582,None,650.5274441242218,652.5340390205383,False,3,['r'],True,0.2777777777777778,0.3333333333333333,0.1666666666666666,1.0,2.0,0.8929352898779304,-0.1666666666666666,wait_cost,0,2,658.2643721103668,None,3,pt3,4,2023-03-30_12h21.17.737,threat_forest,2021.2.3,59.54620956361499,
17,0,17,0,7,0,7,0,,,,,,,,,,left,0.9529299736022949,665.0902509689331,pt3,660.9432439804077,662.9527859687805,665.0902509689331,None,False,2,['r'],False,0.1975308641975308,0.2222222222222222,0.1111111111111111,1.0,2.0,0.7461067557824965,-0.8024691358024691,wait_cost,1,1,662.9527859687805,None,2,pt3,4,2023-03-30_12h21.17.737,threat_forest,2021.2.3,59.54620956361499,
17,0,17,0,,,,,,,,,,,,,,,,,,,,,,,,,,,,,,,,,,,,668.0921471118927,None,1,pt3,4,2023-03-30_12h21.17.737,threat_forest,2021.2.3,59.54620956361499,
