miniblock.thisRepN,miniblock.thisTrialN,miniblock.thisN,miniblock.thisIndex,day.thisRepN,day.thisTrialN,day.thisN,day.thisIndex,welcoming.started,welcoming.stopped,key_resp_2.keys,key_resp_2.rt,key_resp_2.started,key_resp_2.stopped,forest.started,fixation_forest.started,fixation_forest.stopped,key_resp.keys,key_resp.rt,key_resp.started,Subject_ID,weather_left.started,weather_left.stopped,weather_right.started,weather_right.stopped,foraging T/F,in_LP,p/r heuristic,good_weather.T/F,p_succ_correct,p_succ_uncorrected,r_threat,n_oponents,gain_if_succ,weather_entropy,OP_value_difference,action_outcome,forest_side_L=0_R=1,out_LP,fixation_day.started,fixation_day.stopped,n_day-1.out_LP.,participant,session,date,expName,psychopyVersion,frameRate,
,,,,,,,,8.341602802276611,None,space,1.9065239429473877,8.341602802276611,None,,,,,,,,,,,,,,,,,,,,,,,,,,,,,pt3,2,2023-03-30_11h57.28.625,threat_forest,2021.2.3,59.93412582396306,
0,0,0,0,0,0,0,0,,,,,,,10.313416004180908,13.815302848815918,None,right,1.8557660579681396,14.651437997817993,pt3,10.313416004180908,13.815302848815918,14.651437997817993,None,True,4,['p'],False,0.1728395061728395,0.2222222222222222,0.2222222222222222,2.0,2.0,0.8571721972794328,0.0,fight_cost,1,1,,,,pt3,2,2023-03-30_11h57.28.625,threat_forest,2021.2.3,59.93412582396306,
0,0,0,0,1,0,1,0,,,,,,,,,,right,1.5297741889953613,20.707307815551758,pt3,10.313416004180908,13.815302848815918,20.707307815551758,None,True,1,['p'],False,0.1728395061728395,0.2222222222222222,0.2222222222222222,2.0,2.0,0.8571721972794328,0.1728395061728395,succ_gain,1,3,18.53789782524109,None,1,pt3,2,2023-03-30_11h57.28.625,threat_forest,2021.2.3,59.93412582396306,
0,0,0,0,2,0,2,0,,,,,,,,,,right,1.2637939453125,25.89580488204956,pt3,10.313416004180908,13.815302848815918,25.89580488204956,None,True,3,['p'],False,0.1728395061728395,0.2222222222222222,0.2222222222222222,2.0,2.0,0.8571721972794328,-0.2222222222222222,unsucc_cost,1,1,24.27766489982605,None,3,pt3,2,2023-03-30_11h57.28.625,threat_forest,2021.2.3,59.93412582396306,
0,0,0,0,3,0,3,0,,,,,,,,,,left,1.5347199440002441,29.700737953186035,pt3,29.700737953186035,None,27.183220863342285,29.18339991569519,True,1,['p'],True,0.2,0.2,0.0,0.0,2.0,0.4554859150035951,0.1999999999999999,unsucc_cost,0,0,29.18339991569519,None,1,pt3,2,2023-03-30_11h57.28.625,threat_forest,2021.2.3,59.93412582396306,
0,0,0,0,,,,,,,,,,,,,,,,,,,,,,,,,,,,,,,,,,,,33.2730438709259,None,0,pt3,2,2023-03-30_11h57.28.625,threat_forest,2021.2.3,59.93412582396306,
1,0,1,0,0,0,0,0,,,,,,,36.565409898757935,40.06066083908081,None,left,2.0406928062438965,40.67557978630066,pt3,36.565409898757935,40.06066083908081,40.67557978630066,None,False,4,['p'],False,0.18,0.2,0.1,1.0,2.0,0.7058405977926203,0.0,wait_cost,1,3,,,,pt3,2,2023-03-30_11h57.28.625,threat_forest,2021.2.3,59.93412582396306,
1,0,1,0,1,0,1,0,,,,,,,,,,left,2.8618409633636475,48.13827180862427,pt3,36.565409898757935,40.06066083908081,48.13827180862427,None,False,3,['p'],False,0.18,0.2,0.1,1.0,2.0,0.7058405977926203,-0.1,wait_cost,1,2,44.75092577934265,None,3,pt3,2,2023-03-30_11h57.28.625,threat_forest,2021.2.3,59.93412582396306,
1,0,1,0,2,0,2,0,,,,,,,,,,left,0.916877031326294,55.86818480491638,pt3,55.86818480491638,None,51.02812385559082,53.02729797363281,True,2,['p'],True,0.4444444444444445,0.6666666666666666,0.3333333333333333,1.0,2.0,0.9656336071428248,-0.5555555555555556,fight_cost,0,0,53.02729797363281,None,2,pt3,2,2023-03-30_11h57.28.625,threat_forest,2021.2.3,59.93412582396306,
1,0,1,0,,,,,,,,,,,,,,,,,,,,,,,,,,,,,,,,,,,,58.837397813797,None,0,pt3,2,2023-03-30_11h57.28.625,threat_forest,2021.2.3,59.93412582396306,
2,0,2,0,0,0,0,0,,,,,,,60.487470865249634,63.988656997680664,None,left,1.3519020080566406,66.24941396713257,pt3,66.24941396713257,None,60.487470865249634,63.988656997680664,True,5,['p'],True,0.375,0.5,0.25,1.0,1.0,0.9850568223215076,0.0,succ_gain,0,6,,,,pt3,2,2023-03-30_11h57.28.625,threat_forest,2021.2.3,59.93412582396306,
2,0,2,0,1,0,1,0,,,,,,,,,,None,,73.39225792884827,pt3,73.39225792884827,None,60.487470865249634,63.988656997680664,None,6,['p'],True,0.375,0.5,0.25,1.0,1.0,0.9850568223215076,0.0,wait_cost,0,5,69.64581799507141,None,6,pt3,2,2023-03-30_11h57.28.625,threat_forest,2021.2.3,59.93412582396306,
2,0,2,0,2,0,2,0,,,,,,,,,,left,1.427332878112793,79.90375089645386,pt3,79.90375089645386,None,60.487470865249634,63.988656997680664,True,5,['p'],True,0.375,0.5,0.25,1.0,1.0,0.9850568223215076,0.0,unsucc_cost,0,3,78.42239189147949,None,5,pt3,2,2023-03-30_11h57.28.625,threat_forest,2021.2.3,59.93412582396306,
2,0,2,0,3,0,3,0,,,,,,,,,,left,1.4100539684295654,85.5563428401947,pt3,85.5563428401947,None,60.487470865249634,63.988656997680664,True,3,['p'],True,0.375,0.5,0.25,1.0,1.0,0.9850568223215076,-0.25,succ_gain,0,4,83.361576795578,None,3,pt3,2,2023-03-30_11h57.28.625,threat_forest,2021.2.3,59.93412582396306,
2,0,2,0,4,0,4,0,,,,,,,,,,left,0.9426019191741943,91.48364877700806,pt3,91.48364877700806,None,60.487470865249634,63.988656997680664,True,4,['p'],True,0.375,0.5,0.25,1.0,1.0,0.9850568223215076,0.0,unsucc_cost,0,2,89.00131297111511,None,4,pt3,2,2023-03-30_11h57.28.625,threat_forest,2021.2.3,59.93412582396306,
2,0,2,0,5,0,5,0,,,,,,,,,,right,1.755871057510376,95.01516699790955,pt3,92.45862197875977,94.47418093681335,95.01516699790955,None,True,2,['p'],False,0.2448979591836734,0.2857142857142857,0.1428571428571428,1.0,1.0,0.8400769154957735,-0.7551020408163265,unsucc_cost,1,0,94.47418093681335,None,2,pt3,2,2023-03-30_11h57.28.625,threat_forest,2021.2.3,59.93412582396306,
2,0,2,0,,,,,,,,,,,,,,,,,,,,,,,,,,,,,,,,,,,,98.81242895126343,None,0,pt3,2,2023-03-30_11h57.28.625,threat_forest,2021.2.3,59.93412582396306,
3,0,3,0,0,0,0,0,,,,,,,101.74118399620056,105.23831677436829,None,left,1.3878388404846191,107.07166790962219,pt3,107.07166790962219,None,101.74118399620056,105.23831677436829,True,4,['p'],True,0.375,0.5,0.25,1.0,1.0,0.9850568223215076,0.0,unsucc_cost,0,2,,,,pt3,2,2023-03-30_11h57.28.625,threat_forest,2021.2.3,59.93412582396306,
3,0,3,0,1,0,1,0,,,,,,,,,,left,1.0064849853515625,111.11885190010071,pt3,108.4964919090271,110.50822186470032,111.11885190010071,None,False,2,['p'],False,0.16,0.2,0.2,2.0,1.0,0.8198746470064713,-0.8400000000000001,wait_cost,1,1,110.50822186470032,None,2,pt3,2,2023-03-30_11h57.28.625,threat_forest,2021.2.3,59.93412582396306,
3,0,3,0,2,0,2,0,,,,,,,,,,left,0.8975238800048828,115.16661190986633,pt3,115.16661190986633,None,112.15141487121582,114.16310000419617,True,1,['p'],True,0.375,0.5,0.25,1.0,1.0,0.9850568223215076,0.375,succ_gain,0,2,114.16310000419617,None,1,pt3,2,2023-03-30_11h57.28.625,threat_forest,2021.2.3,59.93412582396306,
3,0,3,0,3,0,3,0,,,,,,,,,,right,1.1925840377807617,121.07216000556946,pt3,121.07216000556946,None,112.15141487121582,114.16310000419617,False,2,['p'],True,0.375,0.5,0.25,1.0,1.0,0.9850568223215076,-0.625,wait_cost,0,1,118.084223985672,None,2,pt3,2,2023-03-30_11h57.28.625,threat_forest,2021.2.3,59.93412582396306,
3,0,3,0,4,0,4,0,,,,,,,,,,right,0.737908124923706,127.3349997997284,pt3,122.28882598876953,124.29138779640198,127.3349997997284,None,True,1,['p'],False,0.16,0.2,0.2,2.0,1.0,0.8198746470064713,0.1599999999999999,unsucc_cost,1,0,124.29138779640198,None,1,pt3,2,2023-03-30_11h57.28.625,threat_forest,2021.2.3,59.93412582396306,
3,0,3,0,,,,,,,,,,,,,,,,,,,,,,,,,,,,,,,,,,,,130.1082408428192,None,0,pt3,2,2023-03-30_11h57.28.625,threat_forest,2021.2.3,59.93412582396306,
4,0,4,0,0,0,0,0,,,,,,,131.5547468662262,135.0573070049286,None,left,1.3819530010223389,138.0015947818756,pt3,138.0015947818756,None,131.5547468662262,135.0573070049286,True,5,['r'],True,0.5555555555555556,0.6666666666666666,0.1666666666666666,1.0,2.0,0.8929352898779306,0.0,succ_gain,0,6,,,,pt3,2,2023-03-30_11h57.28.625,threat_forest,2021.2.3,59.93412582396306,
4,0,4,0,1,0,1,0,,,,,,,,,,left,1.5475997924804688,143.8426399230957,pt3,139.4144468307495,141.42737197875977,143.8426399230957,None,False,6,['r'],False,0.3950617283950617,0.4444444444444444,0.1111111111111111,1.0,2.0,0.8733423231021583,0.0,wait_cost,1,5,141.42737197875977,None,6,pt3,2,2023-03-30_11h57.28.625,threat_forest,2021.2.3,59.93412582396306,
4,0,4,0,2,0,2,0,,,,,,,,,,left,1.0209808349609375,150.90771985054016,pt3,150.90771985054016,None,145.41923093795776,147.43412899971008,True,5,['r'],True,0.5555555555555556,0.6666666666666666,0.1666666666666666,1.0,2.0,0.8929352898779306,0.0,succ_gain,0,6,147.43412899971008,None,5,pt3,2,2023-03-30_11h57.28.625,threat_forest,2021.2.3,59.93412582396306,
4,0,4,0,3,0,3,0,,,,,,,,,,right,2.753354072570801,155.54336595535278,pt3,155.54336595535278,None,145.41923093795776,147.43412899971008,False,6,['r'],True,0.5555555555555556,0.6666666666666666,0.1666666666666666,1.0,2.0,0.8929352898779306,0.0,wait_cost,0,5,153.95831990242004,None,6,pt3,2,2023-03-30_11h57.28.625,threat_forest,2021.2.3,59.93412582396306,
4,0,4,0,4,0,4,0,,,,,,,,,,right,0.9509499073028564,163.26809978485107,pt3,163.26809978485107,None,145.41923093795776,147.43412899971008,False,5,['r'],True,0.5555555555555556,0.6666666666666666,0.1666666666666666,1.0,2.0,0.8929352898779306,0.0,wait_cost,0,4,160.31531500816345,None,5,pt3,2,2023-03-30_11h57.28.625,threat_forest,2021.2.3,59.93412582396306,
4,0,4,0,5,0,5,0,,,,,,,,,,right,0.636436939239502,167.3249659538269,pt3,167.3249659538269,None,145.41923093795776,147.43412899971008,False,4,['r'],True,0.5555555555555556,0.6666666666666666,0.1666666666666666,1.0,2.0,0.8929352898779306,0.0,wait_cost,0,3,166.238862991333,None,4,pt3,2,2023-03-30_11h57.28.625,threat_forest,2021.2.3,59.93412582396306,
4,0,4,0,6,0,6,0,,,,,,,,,,right,0.5844199657440186,172.34665989875793,pt3,172.34665989875793,None,145.41923093795776,147.43412899971008,False,3,['r'],True,0.5555555555555556,0.6666666666666666,0.1666666666666666,1.0,2.0,0.8929352898779306,-0.1666666666666666,wait_cost,0,2,169.99420499801636,None,3,pt3,2,2023-03-30_11h57.28.625,threat_forest,2021.2.3,59.93412582396306,
4,0,4,0,7,0,7,0,,,,,,,,,,left,0.9925591945648193,176.45600295066833,pt3,172.96361184120178,174.96518778800964,176.45600295066833,None,False,2,['r'],False,0.3950617283950617,0.4444444444444444,0.1111111111111111,1.0,2.0,0.8733423231021583,-0.6049382716049383,wait_cost,1,1,174.96518778800964,None,2,pt3,2,2023-03-30_11h57.28.625,threat_forest,2021.2.3,59.93412582396306,
4,0,4,0,,,,,,,,,,,,,,,,,,,,,,,,,,,,,,,,,,,,179.49034881591797,None,1,pt3,2,2023-03-30_11h57.28.625,threat_forest,2021.2.3,59.93412582396306,
5,0,5,0,0,0,0,0,,,,,,,180.69515299797058,184.20858478546143,None,right,0.8577678203582764,185.67448377609253,pt3,185.67448377609253,None,180.69515299797058,184.20858478546143,False,5,['p'],True,0.25,0.25,0.0,0.0,1.0,0.5118595071429148,0.0,wait_cost,0,4,,,,pt3,2,2023-03-30_11h57.28.625,threat_forest,2021.2.3,59.93412582396306,
5,0,5,0,1,0,1,0,,,,,,,,,,left,1.3955018520355225,189.66762590408325,pt3,186.56190395355225,188.56429600715637,189.66762590408325,None,False,4,['p'],False,0.2222222222222222,0.6666666666666666,0.6666666666666666,2.0,1.0,0.77250688571426,0.0,wait_cost,1,3,188.56429600715637,None,4,pt3,2,2023-03-30_11h57.28.625,threat_forest,2021.2.3,59.93412582396306,
5,0,5,0,2,0,2,0,,,,,,,,,,right,2.5628721714019775,193.8393838405609,pt3,193.8393838405609,None,191.08758187294006,193.10275387763977,False,3,['p'],True,0.25,0.25,0.0,0.0,1.0,0.5118595071429148,0.0,wait_cost,0,2,193.10275387763977,None,3,pt3,2,2023-03-30_11h57.28.625,threat_forest,2021.2.3,59.93412582396306,
5,0,5,0,3,0,3,0,,,,,,,,,,left,2.03511905670166,200.64687180519104,pt3,196.42796277999878,198.441832780838,200.64687180519104,None,False,2,['p'],False,0.2222222222222222,0.6666666666666666,0.6666666666666666,2.0,1.0,0.77250688571426,-0.7777777777777778,wait_cost,1,1,198.441832780838,None,2,pt3,2,2023-03-30_11h57.28.625,threat_forest,2021.2.3,59.93412582396306,
5,0,5,0,4,0,4,0,,,,,,,,,,right,1.4668009281158447,206.7963879108429,pt3,196.42796277999878,198.441832780838,206.7963879108429,None,True,1,['p'],False,0.2222222222222222,0.6666666666666666,0.6666666666666666,2.0,1.0,0.77250688571426,0.2222222222222222,fight_cost,1,0,204.73249292373657,None,1,pt3,2,2023-03-30_11h57.28.625,threat_forest,2021.2.3,59.93412582396306,
5,0,5,0,,,,,,,,,,,,,,,,,,,,,,,,,,,,,,,,,,,,210.31012892723083,None,0,pt3,2,2023-03-30_11h57.28.625,threat_forest,2021.2.3,59.93412582396306,
6,0,6,0,0,0,0,0,,,,,,,212.49457383155823,215.99490690231323,None,left,1.6518330574035645,219.8251450061798,pt3,219.8251450061798,None,212.49457383155823,215.99490690231323,True,5,['p'],True,0.375,0.5,0.25,1.0,2.0,0.9850568223215076,0.0,fight_cost,0,2,,,,pt3,2,2023-03-30_11h57.28.625,threat_forest,2021.2.3,59.93412582396306,
6,0,6,0,1,0,1,0,,,,,,,,,,left,1.2476370334625244,227.29530787467957,pt3,221.50137996673584,223.50375080108643,227.29530787467957,None,False,2,['p'],False,0.1728395061728395,0.2222222222222222,0.2222222222222222,2.0,2.0,0.8571721972794328,-0.8271604938271605,wait_cost,1,1,223.50375080108643,None,2,pt3,2,2023-03-30_11h57.28.625,threat_forest,2021.2.3,59.93412582396306,
6,0,6,0,2,0,2,0,,,,,,,,,,left,1.5193228721618652,234.3331799507141,pt3,234.3331799507141,None,228.5599308013916,230.5681607723236,True,1,['p'],True,0.375,0.5,0.25,1.0,2.0,0.9850568223215076,0.375,succ_gain,0,3,230.5681607723236,None,1,pt3,2,2023-03-30_11h57.28.625,threat_forest,2021.2.3,59.93412582396306,
6,0,6,0,3,0,3,0,,,,,,,,,,left,1.3365261554718018,239.74477982521057,pt3,235.88835883140564,237.90344882011414,239.74477982521057,None,False,3,['p'],False,0.1728395061728395,0.2222222222222222,0.2222222222222222,2.0,2.0,0.8571721972794328,-0.2222222222222222,wait_cost,1,2,237.90344882011414,None,3,pt3,2,2023-03-30_11h57.28.625,threat_forest,2021.2.3,59.93412582396306,
6,0,6,0,4,0,4,0,,,,,,,,,,left,1.252958059310913,244.82911682128906,pt3,244.82911682128906,None,241.11075687408447,243.12531185150146,True,2,['p'],True,0.375,0.5,0.25,1.0,2.0,0.9850568223215076,-0.625,succ_gain,0,4,243.12531185150146,None,2,pt3,2,2023-03-30_11h57.28.625,threat_forest,2021.2.3,59.93412582396306,
6,0,6,0,5,0,5,0,,,,,,,,,,left,0.9714138507843018,250.35623788833618,pt3,246.11930799484253,248.1317059993744,250.35623788833618,None,False,4,['p'],False,0.1728395061728395,0.2222222222222222,0.2222222222222222,2.0,2.0,0.8571721972794328,0.0,wait_cost,1,3,248.1317059993744,None,4,pt3,2,2023-03-30_11h57.28.625,threat_forest,2021.2.3,59.93412582396306,
6,0,6,0,6,0,6,0,,,,,,,,,,left,0.4533119201660156,254.82440781593323,pt3,246.11930799484253,248.1317059993744,254.82440781593323,None,False,3,['p'],False,0.1728395061728395,0.2222222222222222,0.2222222222222222,2.0,2.0,0.8571721972794328,-0.2222222222222222,wait_cost,1,2,253.37108993530273,None,3,pt3,2,2023-03-30_11h57.28.625,threat_forest,2021.2.3,59.93412582396306,
6,0,6,0,7,0,7,0,,,,,,,,,,right,0.5839540958404541,258.1800329685211,pt3,258.1800329685211,None,255.30963492393494,257.3084599971771,False,2,['p'],True,0.375,0.5,0.25,1.0,2.0,0.9850568223215076,-0.625,wait_cost,0,1,257.3084599971771,None,2,pt3,2,2023-03-30_11h57.28.625,threat_forest,2021.2.3,59.93412582396306,
6,0,6,0,,,,,,,,,,,,,,,,,,,,,,,,,,,,,,,,,,,,260.8135287761688,None,1,pt3,2,2023-03-30_11h57.28.625,threat_forest,2021.2.3,59.93412582396306,
7,0,7,0,0,0,0,0,,,,,,,263.10281777381897,266.60252594947815,None,left,1.4296998977661133,269.1150269508362,pt3,263.10281777381897,266.60252594947815,269.1150269508362,None,False,4,['p'],False,0.2040816326530612,0.2857142857142857,0.2857142857142857,2.0,1.0,0.9335459102197724,0.0,wait_cost,1,3,,,,pt3,2,2023-03-30_11h57.28.625,threat_forest,2021.2.3,59.93412582396306,
7,0,7,0,1,0,1,0,,,,,,,,,,left,1.786106824874878,275.2262418270111,pt3,263.10281777381897,266.60252594947815,275.2262418270111,None,False,3,['p'],False,0.2040816326530612,0.2857142857142857,0.2857142857142857,2.0,1.0,0.9335459102197724,-0.2857142857142857,wait_cost,1,2,272.5925009250641,None,3,pt3,2,2023-03-30_11h57.28.625,threat_forest,2021.2.3,59.93412582396306,
7,0,7,0,2,0,2,0,,,,,,,,,,left,1.650583028793335,280.68556785583496,pt3,263.10281777381897,266.60252594947815,280.68556785583496,None,False,2,['p'],False,0.2040816326530612,0.2857142857142857,0.2857142857142857,2.0,1.0,0.9335459102197724,-0.7959183673469388,wait_cost,1,1,279.05003786087036,None,2,pt3,2,2023-03-30_11h57.28.625,threat_forest,2021.2.3,59.93412582396306,
7,0,7,0,3,0,3,0,,,,,,,,,,left,1.1100308895111084,286.1787669658661,pt3,286.1787669658661,None,282.35680389404297,284.3558728694916,True,1,['p'],True,0.25,0.25,0.0,0.0,1.0,0.5118595071429148,0.25,unsucc_cost,0,0,284.3558728694916,None,1,pt3,2,2023-03-30_11h57.28.625,threat_forest,2021.2.3,59.93412582396306,
7,0,7,0,,,,,,,,,,,,,,,,,,,,,,,,,,,,,,,,,,,,289.3283259868622,None,0,pt3,2,2023-03-30_11h57.28.625,threat_forest,2021.2.3,59.93412582396306,
8,0,8,0,0,0,0,0,,,,,,,290.7988648414612,294.30981397628784,None,right,1.1294400691986084,296.477746963501,pt3,290.7988648414612,294.30981397628784,296.477746963501,None,True,4,['r'],False,0.2,0.2,0.0,0.0,2.0,0.4554859150035951,0.0,succ_gain,1,6,,,,pt3,2,2023-03-30_11h57.28.625,threat_forest,2021.2.3,59.93412582396306,
8,0,8,0,1,0,1,0,,,,,,,,,,left,1.0868680477142334,302.9413969516754,pt3,290.7988648414612,294.30981397628784,302.9413969516754,None,False,6,['r'],False,0.2,0.2,0.0,0.0,2.0,0.4554859150035951,0.0,wait_cost,1,5,299.6401038169861,None,6,pt3,2,2023-03-30_11h57.28.625,threat_forest,2021.2.3,59.93412582396306,
8,0,8,0,2,0,2,0,,,,,,,,,,right,0.745246171951294,307.4289939403534,pt3,290.7988648414612,294.30981397628784,307.4289939403534,None,True,5,['r'],False,0.2,0.2,0.0,0.0,2.0,0.4554859150035951,0.0,unsucc_cost,1,3,306.08081889152527,None,5,pt3,2,2023-03-30_11h57.28.625,threat_forest,2021.2.3,59.93412582396306,
8,0,8,0,3,0,3,0,,,,,,,,,,right,1.26784086227417,310.7322688102722,pt3,290.7988648414612,294.30981397628784,310.7322688102722,None,True,3,['r'],False,0.2,0.2,0.0,0.0,2.0,0.4554859150035951,0.0,succ_gain,1,5,310.2020537853241,None,3,pt3,2,2023-03-30_11h57.28.625,threat_forest,2021.2.3,59.93412582396306,
8,0,8,0,4,0,4,0,,,,,,,,,,left,1.8210780620574951,315.85591077804565,pt3,290.7988648414612,294.30981397628784,315.85591077804565,None,False,5,['r'],False,0.2,0.2,0.0,0.0,2.0,0.4554859150035951,0.0,wait_cost,1,4,314.03978395462036,None,5,pt3,2,2023-03-30_11h57.28.625,threat_forest,2021.2.3,59.93412582396306,
8,0,8,0,5,0,5,0,,,,,,,,,,left,0.5452728271484375,322.42883491516113,pt3,290.7988648414612,294.30981397628784,322.42883491516113,None,False,4,['r'],False,0.2,0.2,0.0,0.0,2.0,0.4554859150035951,0.0,wait_cost,1,3,319.7124378681183,None,4,pt3,2,2023-03-30_11h57.28.625,threat_forest,2021.2.3,59.93412582396306,
8,0,8,0,6,0,6,0,,,,,,,,,,left,0.9058480262756348,326.9686448574066,pt3,290.7988648414612,294.30981397628784,326.9686448574066,None,False,3,['r'],False,0.2,0.2,0.0,0.0,2.0,0.4554859150035951,0.0,wait_cost,1,2,325.0189599990845,None,3,pt3,2,2023-03-30_11h57.28.625,threat_forest,2021.2.3,59.93412582396306,
8,0,8,0,7,0,7,0,,,,,,,,,,right,0.6527020931243896,332.45098185539246,pt3,332.45098185539246,None,327.9094657897949,329.92414593696594,False,2,['r'],True,0.375,0.5,0.25,1.0,2.0,0.9850568223215076,-0.625,wait_cost,0,1,329.92414593696594,None,2,pt3,2,2023-03-30_11h57.28.625,threat_forest,2021.2.3,59.93412582396306,
8,0,8,0,,,,,,,,,,,,,,,,,,,,,,,,,,,,,,,,,,,,335.1472737789154,None,1,pt3,2,2023-03-30_11h57.28.625,threat_forest,2021.2.3,59.93412582396306,
9,0,9,0,0,0,0,0,,,,,,,338.575642824173,342.08752179145813,None,left,1.5577499866485596,342.8852059841156,pt3,338.575642824173,342.08752179145813,342.8852059841156,None,False,5,['p'],False,0.1875,0.25,0.25,2.0,1.0,0.895754137500101,0.0,wait_cost,1,4,,,,pt3,2,2023-03-30_11h57.28.625,threat_forest,2021.2.3,59.93412582396306,
9,0,9,0,1,0,1,0,,,,,,,,,,left,1.6944749355316162,349.96402192115784,pt3,338.575642824173,342.08752179145813,349.96402192115784,None,False,4,['p'],False,0.1875,0.25,0.25,2.0,1.0,0.895754137500101,0.0,wait_cost,1,3,346.4763939380646,None,4,pt3,2,2023-03-30_11h57.28.625,threat_forest,2021.2.3,59.93412582396306,
9,0,9,0,2,0,2,0,,,,,,,,,,left,0.8227479457855225,356.7236177921295,pt3,338.575642824173,342.08752179145813,356.7236177921295,None,False,3,['p'],False,0.1875,0.25,0.25,2.0,1.0,0.895754137500101,-0.25,wait_cost,1,2,353.6844708919525,None,3,pt3,2,2023-03-30_11h57.28.625,threat_forest,2021.2.3,59.93412582396306,
9,0,9,0,3,0,3,0,,,,,,,,,,left,1.1401481628417969,360.21048879623413,pt3,360.21048879623413,None,357.57593297958374,359.59123492240906,True,2,['p'],True,0.4444444444444445,0.6666666666666666,0.3333333333333333,1.0,1.0,0.9656336071428248,-0.5555555555555556,unsucc_cost,0,0,359.59123492240906,None,2,pt3,2,2023-03-30_11h57.28.625,threat_forest,2021.2.3,59.93412582396306,
9,0,9,0,,,,,,,,,,,,,,,,,,,,,,,,,,,,,,,,,,,,363.3957657814026,None,0,pt3,2,2023-03-30_11h57.28.625,threat_forest,2021.2.3,59.93412582396306,
10,0,10,0,0,0,0,0,,,,,,,364.31574392318726,367.81680178642273,None,left,0.601431131362915,369.9610209465027,pt3,369.9610209465027,None,364.31574392318726,367.81680178642273,True,4,['p'],True,0.25,0.25,0.0,0.0,2.0,0.5118595071429148,0.0,unsucc_cost,0,2,,,,pt3,2,2023-03-30_11h57.28.625,threat_forest,2021.2.3,59.93412582396306,
10,0,10,0,1,0,1,0,,,,,,,,,,right,1.1034998893737793,375.8319778442383,pt3,370.5881087779999,372.58914279937744,375.8319778442383,None,True,2,['p'],False,0.2222222222222222,0.6666666666666666,0.6666666666666666,2.0,2.0,0.77250688571426,-0.7777777777777778,unsucc_cost,1,0,372.58914279937744,None,2,pt3,2,2023-03-30_11h57.28.625,threat_forest,2021.2.3,59.93412582396306,
10,0,10,0,,,,,,,,,,,,,,,,,,,,,,,,,,,,,,,,,,,,378.9660658836365,None,0,pt3,2,2023-03-30_11h57.28.625,threat_forest,2021.2.3,59.93412582396306,
11,0,11,0,0,0,0,0,,,,,,,382.21113991737366,385.715206861496,None,right,1.7674121856689453,387.95015692710876,pt3,382.21113991737366,385.715206861496,387.95015692710876,None,True,5,['r'],False,0.345679012345679,0.4444444444444444,0.2222222222222222,2.0,2.0,0.9685033186841367,0.0,succ_gain,1,6,,,,pt3,2,2023-03-30_11h57.28.625,threat_forest,2021.2.3,59.93412582396306,
11,0,11,0,1,0,1,0,,,,,,,,,,left,0.9934940338134766,394.69367480278015,pt3,382.21113991737366,385.715206861496,394.69367480278015,None,False,6,['r'],False,0.345679012345679,0.4444444444444444,0.2222222222222222,2.0,2.0,0.9685033186841367,0.0,wait_cost,1,5,391.76046991348267,None,6,pt3,2,2023-03-30_11h57.28.625,threat_forest,2021.2.3,59.93412582396306,
11,0,11,0,2,0,2,0,,,,,,,,,,right,1.9389688968658447,398.4165198802948,pt3,382.21113991737366,385.715206861496,398.4165198802948,None,True,5,['r'],False,0.345679012345679,0.4444444444444444,0.2222222222222222,2.0,2.0,0.9685033186841367,0.0,unsucc_cost,1,3,397.73355984687805,None,5,pt3,2,2023-03-30_11h57.28.625,threat_forest,2021.2.3,59.93412582396306,
11,0,11,0,3,0,3,0,,,,,,,,,,right,1.889143943786621,404.13053584098816,pt3,404.13053584098816,None,400.3910858631134,402.40614891052246,False,3,['r'],True,0.4285714285714285,0.4285714285714285,0.0,0.0,2.0,0.6216097450797565,0.0,wait_cost,0,2,402.40614891052246,None,3,pt3,2,2023-03-30_11h57.28.625,threat_forest,2021.2.3,59.93412582396306,
11,0,11,0,4,0,4,0,,,,,,,,,,right,0.9060089588165283,409.03086590766907,pt3,406.04674100875854,408.0461127758026,409.03086590766907,None,True,2,['r'],False,0.345679012345679,0.4444444444444444,0.2222222222222222,2.0,2.0,0.9685033186841367,-0.654320987654321,unsucc_cost,1,0,408.0461127758026,None,2,pt3,2,2023-03-30_11h57.28.625,threat_forest,2021.2.3,59.93412582396306,
11,0,11,0,,,,,,,,,,,,,,,,,,,,,,,,,,,,,,,,,,,,411.98525190353394,None,0,pt3,2,2023-03-30_11h57.28.625,threat_forest,2021.2.3,59.93412582396306,
12,0,12,0,0,0,0,0,,,,,,,412.72221994400024,416.21806478500366,None,left,1.473935842514038,418.3381428718567,pt3,412.72221994400024,416.21806478500366,418.3381428718567,None,False,5,['r'],False,0.18,0.2,0.1,1.0,1.0,0.7058405977926203,0.0,wait_cost,1,4,,,,pt3,2,2023-03-30_11h57.28.625,threat_forest,2021.2.3,59.93412582396306,
12,0,12,0,1,0,1,0,,,,,,,,,,left,0.9377260208129883,425.26797699928284,pt3,412.72221994400024,416.21806478500366,425.26797699928284,None,False,4,['r'],False,0.18,0.2,0.1,1.0,1.0,0.7058405977926203,0.0,wait_cost,1,3,421.84491086006165,None,4,pt3,2,2023-03-30_11h57.28.625,threat_forest,2021.2.3,59.93412582396306,
12,0,12,0,2,0,2,0,,,,,,,,,,left,1.2766249179840088,430.6883819103241,pt3,430.6883819103241,None,426.237251996994,428.2518928050995,True,3,['r'],True,0.375,0.5,0.25,1.0,1.0,0.9850568223215076,-0.25,unsucc_cost,0,1,428.2518928050995,None,3,pt3,2,2023-03-30_11h57.28.625,threat_forest,2021.2.3,59.93412582396306,
12,0,12,0,3,0,3,0,,,,,,,,,,left,1.2288098335266113,434.8868989944458,pt3,434.8868989944458,None,426.237251996994,428.2518928050995,True,1,['r'],True,0.375,0.5,0.25,1.0,1.0,0.9850568223215076,0.375,succ_gain,0,2,433.9921669960022,None,1,pt3,2,2023-03-30_11h57.28.625,threat_forest,2021.2.3,59.93412582396306,
12,0,12,0,4,0,4,0,,,,,,,,,,left,1.950679063796997,439.152951002121,pt3,436.1471209526062,438.14721298217773,439.152951002121,None,False,2,['r'],False,0.18,0.2,0.1,1.0,1.0,0.7058405977926203,-0.8200000000000001,wait_cost,1,1,438.14721298217773,None,2,pt3,2,2023-03-30_11h57.28.625,threat_forest,2021.2.3,59.93412582396306,
12,0,12,0,5,0,5,0,,,,,,,,,,left,1.1259851455688477,443.7910828590393,pt3,443.7910828590393,None,441.13773679733276,443.15242290496826,True,1,['r'],True,0.375,0.5,0.25,1.0,1.0,0.9850568223215076,0.375,succ_gain,0,2,443.15242290496826,None,1,pt3,2,2023-03-30_11h57.28.625,threat_forest,2021.2.3,59.93412582396306,
12,0,12,0,6,0,6,0,,,,,,,,,,left,1.0703649520874023,449.85269498825073,pt3,449.85269498825073,None,441.13773679733276,443.15242290496826,True,2,['r'],True,0.375,0.5,0.25,1.0,1.0,0.9850568223215076,-0.625,succ_gain,0,3,446.956435918808,None,2,pt3,2,2023-03-30_11h57.28.625,threat_forest,2021.2.3,59.93412582396306,
12,0,12,0,7,0,7,0,,,,,,,,,,right,0.8815550804138184,454.5969958305359,pt3,454.5969958305359,None,441.13773679733276,443.15242290496826,False,3,['r'],True,0.375,0.5,0.25,1.0,1.0,0.9850568223215076,-0.25,wait_cost,0,2,452.9503538608551,None,3,pt3,2,2023-03-30_11h57.28.625,threat_forest,2021.2.3,59.93412582396306,
12,0,12,0,,,,,,,,,,,,,,,,,,,,,,,,,,,,,,,,,,,,457.5196747779846,None,2,pt3,2,2023-03-30_11h57.28.625,threat_forest,2021.2.3,59.93412582396306,
13,0,13,0,0,0,0,0,,,,,,,460.8753499984741,464.37580585479736,None,right,2.200230121612549,466.94105887413025,pt3,466.94105887413025,None,460.8753499984741,464.37580585479736,False,4,['r'],True,0.4,0.4,0.0,0.0,1.0,0.6126016192893442,0.0,wait_cost,0,3,,,,pt3,2,2023-03-30_11h57.28.625,threat_forest,2021.2.3,59.93412582396306,
13,0,13,0,1,0,1,0,,,,,,,,,,right,1.801218032836914,474.65743589401245,pt3,469.1702837944031,471.18403697013855,474.65743589401245,None,True,3,['r'],False,0.3061224489795918,0.4285714285714285,0.2857142857142857,2.0,1.0,0.9885754083994552,-0.2857142857142857,unsucc_cost,1,1,471.18403697013855,None,3,pt3,2,2023-03-30_11h57.28.625,threat_forest,2021.2.3,59.93412582396306,
13,0,13,0,2,0,2,0,,,,,,,,,,left,1.926800012588501,481.6388018131256,pt3,469.1702837944031,471.18403697013855,481.6388018131256,None,False,1,['r'],False,0.3061224489795918,0.4285714285714285,0.2857142857142857,2.0,1.0,0.9885754083994552,0.3061224489795917,wait_cost,1,0,478.4922058582306,None,1,pt3,2,2023-03-30_11h57.28.625,threat_forest,2021.2.3,59.93412582396306,
13,0,13,0,,,,,,,,,,,,,,,,,,,,,,,,,,,,,,,,,,,,485.61265993118286,None,0,pt3,2,2023-03-30_11h57.28.625,threat_forest,2021.2.3,59.93412582396306,
14,0,14,0,0,0,0,0,,,,,,,489.04546093940735,492.551531791687,None,left,1.5948100090026855,495.1898548603058,pt3,489.04546093940735,492.551531791687,495.1898548603058,None,False,4,['p'],False,0.16,0.2,0.2,2.0,2.0,0.8198746470064713,0.0,wait_cost,1,3,,,,pt3,2,2023-03-30_11h57.28.625,threat_forest,2021.2.3,59.93412582396306,
14,0,14,0,1,0,1,0,,,,,,,,,,left,1.8021368980407715,501.416405916214,pt3,489.04546093940735,492.551531791687,501.416405916214,None,False,3,['p'],False,0.16,0.2,0.2,2.0,2.0,0.8198746470064713,-0.2,wait_cost,1,2,498.8321588039398,None,3,pt3,2,2023-03-30_11h57.28.625,threat_forest,2021.2.3,59.93412582396306,
14,0,14,0,2,0,2,0,,,,,,,,,,left,1.784118890762329,508.62421894073486,pt3,489.04546093940735,492.551531791687,508.62421894073486,None,False,2,['p'],False,0.16,0.2,0.2,2.0,2.0,0.8198746470064713,-0.8400000000000001,wait_cost,1,1,505.23919796943665,None,2,pt3,2,2023-03-30_11h57.28.625,threat_forest,2021.2.3,59.93412582396306,
14,0,14,0,3,0,3,0,,,,,,,,,,left,0.7783269882202148,516.1109519004822,pt3,516.1109519004822,None,510.4321699142456,512.4473049640656,True,1,['p'],True,0.2222222222222222,0.3333333333333333,0.3333333333333333,2.0,2.0,0.9656336071428248,0.2222222222222221,fight_cost,0,0,512.4473049640656,None,1,pt3,2,2023-03-30_11h57.28.625,threat_forest,2021.2.3,59.93412582396306,
14,0,14,0,,,,,,,,,,,,,,,,,,,,,,,,,,,,,,,,,,,,518.9389898777008,None,0,pt3,2,2023-03-30_11h57.28.625,threat_forest,2021.2.3,59.93412582396306,
15,0,15,0,0,0,0,0,,,,,,,521.8109068870544,525.3114349842072,None,left,1.1878530979156494,528.5730459690094,pt3,528.5730459690094,None,521.8109068870544,525.3114349842072,True,5,['r'],True,0.5,0.5,0.0,0.0,2.0,0.6309297535714574,0.0,unsucc_cost,0,3,,,,pt3,2,2023-03-30_11h57.28.625,threat_forest,2021.2.3,59.93412582396306,
15,0,15,0,1,0,1,0,,,,,,,,,,right,1.5122308731079102,532.4592859745026,pt3,529.7897779941559,531.8025989532471,532.4592859745026,None,True,3,['r'],False,0.4081632653061224,0.5714285714285714,0.2857142857142857,2.0,2.0,0.9885754083994552,-0.2857142857142857,succ_gain,1,5,531.8025989532471,None,3,pt3,2,2023-03-30_11h57.28.625,threat_forest,2021.2.3,59.93412582396306,
15,0,15,0,2,0,2,0,,,,,,,,,,right,1.757533073425293,539.3810758590698,pt3,529.7897779941559,531.8025989532471,539.3810758590698,None,True,5,['r'],False,0.4081632653061224,0.5714285714285714,0.2857142857142857,2.0,2.0,0.9885754083994552,0.0,succ_gain,1,6,536.0074617862701,None,5,pt3,2,2023-03-30_11h57.28.625,threat_forest,2021.2.3,59.93412582396306,
15,0,15,0,3,0,3,0,,,,,,,,,,right,1.7669880390167236,544.2029809951782,pt3,544.2029809951782,None,541.1660089492798,543.1653048992157,False,6,['r'],True,0.5,0.5,0.0,0.0,2.0,0.6309297535714574,0.0,wait_cost,0,5,543.1653048992157,None,6,pt3,2,2023-03-30_11h57.28.625,threat_forest,2021.2.3,59.93412582396306,
15,0,15,0,4,0,4,0,,,,,,,,,,right,1.408478021621704,551.636804819107,pt3,551.636804819107,None,541.1660089492798,543.1653048992157,False,5,['r'],True,0.5,0.5,0.0,0.0,2.0,0.6309297535714574,0.0,wait_cost,0,4,548.0042078495026,None,5,pt3,2,2023-03-30_11h57.28.625,threat_forest,2021.2.3,59.93412582396306,
15,0,15,0,5,0,5,0,,,,,,,,,,left,1.1642940044403076,558.7049069404602,pt3,553.0847878456116,555.0952668190002,558.7049069404602,None,False,4,['r'],False,0.4081632653061224,0.5714285714285714,0.2857142857142857,2.0,2.0,0.9885754083994552,0.0,wait_cost,1,3,555.0952668190002,None,4,pt3,2,2023-03-30_11h57.28.625,threat_forest,2021.2.3,59.93412582396306,
15,0,15,0,6,0,6,0,,,,,,,,,,left,1.2142460346221924,564.8736698627472,pt3,553.0847878456116,555.0952668190002,564.8736698627472,None,False,3,['r'],False,0.4081632653061224,0.5714285714285714,0.2857142857142857,2.0,2.0,0.9885754083994552,-0.2857142857142857,wait_cost,1,2,561.9034898281097,None,3,pt3,2,2023-03-30_11h57.28.625,threat_forest,2021.2.3,59.93412582396306,
15,0,15,0,7,0,7,0,,,,,,,,,,right,1.3373160362243652,569.2489769458771,pt3,569.2489769458771,None,566.1097309589386,568.109719991684,False,2,['r'],True,0.5,0.5,0.0,0.0,2.0,0.6309297535714574,-0.5,wait_cost,0,1,568.109719991684,None,2,pt3,2,2023-03-30_11h57.28.625,threat_forest,2021.2.3,59.93412582396306,
15,0,15,0,,,,,,,,,,,,,,,,,,,,,,,,,,,,,,,,,,,,572.6326148509979,None,1,pt3,2,2023-03-30_11h57.28.625,threat_forest,2021.2.3,59.93412582396306,
16,0,16,0,0,0,0,0,,,,,,,573.9047899246216,577.4037849903107,None,left,2.25901198387146,578.3005058765411,pt3,573.9047899246216,577.4037849903107,578.3005058765411,None,False,5,['r'],False,0.2222222222222222,0.2222222222222222,0.0,0.0,2.0,0.4821593609696809,0.0,wait_cost,1,4,,,,pt3,2,2023-03-30_11h57.28.625,threat_forest,2021.2.3,59.93412582396306,
16,0,16,0,1,0,1,0,,,,,,,,,,left,1.2197768688201904,585.0277819633484,pt3,585.0277819633484,None,580.5987949371338,582.6098248958588,True,4,['r'],True,0.4444444444444445,0.6666666666666666,0.3333333333333333,1.0,2.0,0.9656336071428248,0.0,succ_gain,0,6,582.6098248958588,None,4,pt3,2,2023-03-30_11h57.28.625,threat_forest,2021.2.3,59.93412582396306,
16,0,16,0,2,0,2,0,,,,,,,,,,right,1.1466178894042969,590.7345268726349,pt3,590.7345268726349,None,580.5987949371338,582.6098248958588,False,6,['r'],True,0.4444444444444445,0.6666666666666666,0.3333333333333333,1.0,2.0,0.9656336071428248,0.0,wait_cost,0,5,588.270742893219,None,6,pt3,2,2023-03-30_11h57.28.625,threat_forest,2021.2.3,59.93412582396306,
16,0,16,0,3,0,3,0,,,,,,,,,,left,1.6622569561004639,596.8973829746246,pt3,591.907881975174,593.9060847759247,596.8973829746246,None,False,5,['r'],False,0.2222222222222222,0.2222222222222222,0.0,0.0,2.0,0.4821593609696809,0.0,wait_cost,1,4,593.9060847759247,None,5,pt3,2,2023-03-30_11h57.28.625,threat_forest,2021.2.3,59.93412582396306,
16,0,16,0,4,0,4,0,,,,,,,,,,left,1.1337358951568604,603.2357099056244,pt3,603.2357099056244,None,598.5781769752502,600.5801918506622,True,4,['r'],True,0.4444444444444445,0.6666666666666666,0.3333333333333333,1.0,2.0,0.9656336071428248,0.0,succ_gain,0,6,600.5801918506622,None,4,pt3,2,2023-03-30_11h57.28.625,threat_forest,2021.2.3,59.93412582396306,
16,0,16,0,5,0,5,0,,,,,,,,,,left,0.7701210975646973,610.0454018115997,pt3,604.4092178344727,606.4201898574829,610.0454018115997,None,False,6,['r'],False,0.2222222222222222,0.2222222222222222,0.0,0.0,2.0,0.4821593609696809,0.0,wait_cost,1,5,606.4201898574829,None,6,pt3,2,2023-03-30_11h57.28.625,threat_forest,2021.2.3,59.93412582396306,
16,0,16,0,6,0,6,0,,,,,,,,,,right,1.018172025680542,615.9980618953705,pt3,615.9980618953705,None,610.8492319583893,612.8606379032135,False,5,['r'],True,0.4444444444444445,0.6666666666666666,0.3333333333333333,1.0,2.0,0.9656336071428248,0.0,wait_cost,0,4,612.8606379032135,None,5,pt3,2,2023-03-30_11h57.28.625,threat_forest,2021.2.3,59.93412582396306,
16,0,16,0,7,0,7,0,,,,,,,,,,right,1.4012150764465332,622.3593888282776,pt3,622.3593888282776,None,610.8492319583893,612.8606379032135,False,4,['r'],True,0.4444444444444445,0.6666666666666666,0.3333333333333333,1.0,2.0,0.9656336071428248,0.0,wait_cost,0,3,619.0512018203735,None,4,pt3,2,2023-03-30_11h57.28.625,threat_forest,2021.2.3,59.93412582396306,
16,0,16,0,,,,,,,,,,,,,,,,,,,,,,,,,,,,,,,,,,,,625.7921259403229,None,3,pt3,2,2023-03-30_11h57.28.625,threat_forest,2021.2.3,59.93412582396306,
17,0,17,0,0,0,0,0,,,,,,,627.1942648887634,630.6973149776459,None,left,1.8625729084014893,634.1181199550629,pt3,627.1942648887634,630.6973149776459,634.1181199550629,None,False,5,['r'],False,0.2222222222222222,0.6666666666666666,0.6666666666666666,2.0,1.0,0.77250688571426,0.0,wait_cost,1,4,,,,pt3,2,2023-03-30_11h57.28.625,threat_forest,2021.2.3,59.93412582396306,
17,0,17,0,1,0,1,0,,,,,,,,,,left,2.17012882232666,641.243332862854,pt3,627.1942648887634,630.6973149776459,641.243332862854,None,False,4,['r'],False,0.2222222222222222,0.6666666666666666,0.6666666666666666,2.0,1.0,0.77250688571426,0.0,wait_cost,1,3,638.0241928100586,None,4,pt3,2,2023-03-30_11h57.28.625,threat_forest,2021.2.3,59.93412582396306,
17,0,17,0,2,0,2,0,,,,,,,,,,right,1.3082449436187744,646.8560299873352,pt3,646.8560299873352,None,643.4574959278107,645.4640598297119,False,3,['r'],True,0.3333333333333333,0.3333333333333333,0.0,0.0,1.0,0.5793801642856949,0.0,wait_cost,0,2,645.4640598297119,None,3,pt3,2,2023-03-30_11h57.28.625,threat_forest,2021.2.3,59.93412582396306,
17,0,17,0,3,0,3,0,,,,,,,,,,right,1.4867348670959473,651.4018747806549,pt3,651.4018747806549,None,643.4574959278107,645.4640598297119,False,2,['r'],True,0.3333333333333333,0.3333333333333333,0.0,0.0,1.0,0.5793801642856949,-0.6666666666666667,wait_cost,0,1,650.2032639980316,None,2,pt3,2,2023-03-30_11h57.28.625,threat_forest,2021.2.3,59.93412582396306,
17,0,17,0,4,0,4,0,,,,,,,,,,right,1.4033231735229492,656.9608438014984,pt3,652.9127929210663,654.9250497817993,656.9608438014984,None,True,1,['r'],False,0.2222222222222222,0.6666666666666666,0.6666666666666666,2.0,1.0,0.77250688571426,0.2222222222222222,unsucc_cost,1,0,654.9250497817993,None,1,pt3,2,2023-03-30_11h57.28.625,threat_forest,2021.2.3,59.93412582396306,
17,0,17,0,,,,,,,,,,,,,,,,,,,,,,,,,,,,,,,,,,,,660.4253129959106,None,0,pt3,2,2023-03-30_11h57.28.625,threat_forest,2021.2.3,59.93412582396306,
