miniblock.thisRepN,miniblock.thisTrialN,miniblock.thisN,miniblock.thisIndex,day.thisRepN,day.thisTrialN,day.thisN,day.thisIndex,welcoming.started,welcoming.stopped,key_resp_2.keys,key_resp_2.rt,key_resp_2.started,key_resp_2.stopped,forest.started,fixation_forest.started,fixation_forest.stopped,key_resp.keys,key_resp.rt,key_resp.started,Subject_ID,weather_left.started,weather_left.stopped,weather_right.started,weather_right.stopped,foraging T/F,in_LP,p/r heuristic,good_weather.T/F,p_succ_correct,p_succ_uncorrected,r_threat,n_oponents,gain_if_succ,weather_entropy,OP_value_difference,action_outcome,forest_side_L=0_R=1,out_LP,fixation_day.started,fixation_day.stopped,n_day-1.out_LP.,participant,session,date,expName,psychopyVersion,frameRate,
,,,,,,,,13.57909099990502,None,space,6.784223000053316,13.57909099990502,None,,,,,,,,,,,,,,,,,,,,,,,,,,,,,iz8,4,2022-04-21_12h05.55.132,threat_forest,2021.2.3,59.99955598593516,
0,0,0,0,0,0,0,0,,,,,,,20.42577079986222,23.935771599877626,None,right,1.2519688000902534,27.703237799927592,iz8,27.703237799927592,None,20.42577079986222,23.935771599877626,False,5,['p'],True,0.375,0.5,0.25,1.0,2.0,0.9850568223215076,0.0,wait_cost,0,4,,,,iz8,4,2022-04-21_12h05.55.132,threat_forest,2021.2.3,59.99955598593516,
0,0,0,0,1,0,1,0,,,,,,,,,,right,1.1727905999869108,34.03651489992626,iz8,34.03651489992626,None,20.42577079986222,23.935771599877626,False,4,['p'],True,0.375,0.5,0.25,1.0,2.0,0.9850568223215076,0.0,wait_cost,0,3,30.98579469998367,None,4,iz8,4,2022-04-21_12h05.55.132,threat_forest,2021.2.3,59.99955598593516,
0,0,0,0,2,0,2,0,,,,,,,,,,right,0.6944222999736667,39.68687519989908,iz8,35.236196799902245,37.235961799975485,39.68687519989908,None,True,3,['p'],False,0.1728395061728395,0.2222222222222222,0.2222222222222222,2.0,2.0,0.8571721972794328,-0.2222222222222222,succ_gain,1,5,37.235961799975485,None,3,iz8,4,2022-04-21_12h05.55.132,threat_forest,2021.2.3,59.99955598593516,
0,0,0,0,3,0,3,0,,,,,,,,,,right,1.3620223000179976,45.42296569980681,iz8,45.42296569980681,None,40.40301529993303,42.40268569998443,False,5,['p'],True,0.375,0.5,0.25,1.0,2.0,0.9850568223215076,0.0,wait_cost,0,4,42.40268569998443,None,5,iz8,4,2022-04-21_12h05.55.132,threat_forest,2021.2.3,59.99955598593516,
0,0,0,0,4,0,4,0,,,,,,,,,,right,0.7325911000370979,51.019960899837315,iz8,51.019960899837315,None,40.40301529993303,42.40268569998443,False,4,['p'],True,0.375,0.5,0.25,1.0,2.0,0.9850568223215076,0.0,wait_cost,0,3,48.802781499922276,None,4,iz8,4,2022-04-21_12h05.55.132,threat_forest,2021.2.3,59.99955598593516,
0,0,0,0,5,0,5,0,,,,,,,,,,right,1.3941420000046492,57.47070109983906,iz8,57.47070109983906,None,40.40301529993303,42.40268569998443,False,3,['p'],True,0.375,0.5,0.25,1.0,2.0,0.9850568223215076,-0.25,wait_cost,0,2,53.76959689985961,None,3,iz8,4,2022-04-21_12h05.55.132,threat_forest,2021.2.3,59.99955598593516,
0,0,0,0,6,0,6,0,,,,,,,,,,right,1.113469700096175,64.22012059995905,iz8,58.88652249984443,60.88634219998494,64.22012059995905,None,True,2,['p'],False,0.1728395061728395,0.2222222222222222,0.2222222222222222,2.0,2.0,0.8571721972794328,-0.8271604938271605,succ_gain,1,4,60.88634219998494,None,2,iz8,4,2022-04-21_12h05.55.132,threat_forest,2021.2.3,59.99955598593516,
0,0,0,0,7,0,7,0,,,,,,,,,,right,0.4270695000886917,67.96998519985937,iz8,67.96998519985937,None,65.35333069995977,67.35321159986779,False,4,['p'],True,0.375,0.5,0.25,1.0,2.0,0.9850568223215076,0.0,wait_cost,0,3,67.35321159986779,None,4,iz8,4,2022-04-21_12h05.55.132,threat_forest,2021.2.3,59.99955598593516,
0,0,0,0,,,,,,,,,,,,,,,,,,,,,,,,,,,,,,,,,,,,70.4197474999819,None,3,iz8,4,2022-04-21_12h05.55.132,threat_forest,2021.2.3,59.99955598593516,
1,0,1,0,0,0,0,0,,,,,,,73.79891269979998,77.30327749997377,None,left,1.3087649999652058,80.1207935998682,iz8,73.79891269979998,77.30327749997377,80.1207935998682,None,False,5,['r'],False,0.2040816326530612,0.2857142857142857,0.2857142857142857,2.0,1.0,0.9335459102197724,0.0,wait_cost,1,4,,,,iz8,4,2022-04-21_12h05.55.132,threat_forest,2021.2.3,59.99955598593516,
1,0,1,0,1,0,1,0,,,,,,,,,,left,1.144008600153029,84.75343369995244,iz8,73.79891269979998,77.30327749997377,84.75343369995244,None,False,4,['r'],False,0.2040816326530612,0.2857142857142857,0.2857142857142857,2.0,1.0,0.9335459102197724,0.0,wait_cost,1,3,83.45347719988786,None,4,iz8,4,2022-04-21_12h05.55.132,threat_forest,2021.2.3,59.99955598593516,
1,0,1,0,2,0,2,0,,,,,,,,,,right,1.1343189999461174,90.45366289978847,iz8,73.79891269979998,77.30327749997377,90.45366289978847,None,True,3,['r'],False,0.2040816326530612,0.2857142857142857,0.2857142857142857,2.0,1.0,0.9335459102197724,-0.2857142857142857,unsucc_cost,1,1,87.9200715997722,None,3,iz8,4,2022-04-21_12h05.55.132,threat_forest,2021.2.3,59.99955598593516,
1,0,1,0,3,0,3,0,,,,,,,,,,left,0.7670499000232667,94.38712529977784,iz8,94.38712529977784,None,91.62047699978575,93.6201565999072,True,1,['r'],True,0.25,0.25,0.0,0.0,1.0,0.5118595071429148,0.25,unsucc_cost,0,0,93.6201565999072,None,1,iz8,4,2022-04-21_12h05.55.132,threat_forest,2021.2.3,59.99955598593516,
1,0,1,0,,,,,,,,,,,,,,,,,,,,,,,,,,,,,,,,,,,,97.17020119982772,None,0,iz8,4,2022-04-21_12h05.55.132,threat_forest,2021.2.3,59.99955598593516,
2,0,2,0,0,0,0,0,,,,,,,100.82071459991857,104.32068149978295,None,right,0.8301880999933928,107.37104369979352,iz8,100.82071459991857,104.32068149978295,107.37104369979352,None,True,4,['p'],False,0.2222222222222222,0.6666666666666666,0.6666666666666666,2.0,1.0,0.77250688571426,0.0,succ_gain,1,5,,,,iz8,4,2022-04-21_12h05.55.132,threat_forest,2021.2.3,59.99955598593516,
2,0,2,0,1,0,1,0,,,,,,,,,,left,1.1850766998250037,112.97113919979893,iz8,100.82071459991857,104.32068149978295,112.97113919979893,None,False,5,['p'],False,0.2222222222222222,0.6666666666666666,0.6666666666666666,2.0,1.0,0.77250688571426,0.0,wait_cost,1,4,110.22054889984429,None,5,iz8,4,2022-04-21_12h05.55.132,threat_forest,2021.2.3,59.99955598593516,
2,0,2,0,2,0,2,0,,,,,,,,,,right,1.3606980999466032,119.83784729987383,iz8,119.83784729987383,None,114.1874525998719,116.18717739987187,False,4,['p'],True,0.3333333333333333,0.3333333333333333,0.0,0.0,1.0,0.5793801642856949,0.0,wait_cost,0,3,116.18717739987187,None,4,iz8,4,2022-04-21_12h05.55.132,threat_forest,2021.2.3,59.99955598593516,
2,0,2,0,3,0,3,0,,,,,,,,,,right,0.8284238998312503,124.07075529987924,iz8,121.2208538998384,123.22063749982044,124.07075529987924,None,True,3,['p'],False,0.2222222222222222,0.6666666666666666,0.6666666666666666,2.0,1.0,0.77250688571426,-0.6666666666666666,unsucc_cost,1,1,123.22063749982044,None,3,iz8,4,2022-04-21_12h05.55.132,threat_forest,2021.2.3,59.99955598593516,
2,0,2,0,4,0,4,0,,,,,,,,,,left,0.595299799926579,129.72124619991519,iz8,129.72124619991519,None,124.92086219997145,126.92060009995475,True,1,['p'],True,0.3333333333333333,0.3333333333333333,0.0,0.0,1.0,0.5793801642856949,0.3333333333333332,unsucc_cost,0,0,126.92060009995475,None,1,iz8,4,2022-04-21_12h05.55.132,threat_forest,2021.2.3,59.99955598593516,
2,0,2,0,,,,,,,,,,,,,,,,,,,,,,,,,,,,,,,,,,,,132.337453099899,None,0,iz8,4,2022-04-21_12h05.55.132,threat_forest,2021.2.3,59.99955598593516,
3,0,3,0,0,0,0,0,,,,,,,134.7253523999825,138.2374987998046,None,right,1.095875799888745,140.03819659980945,iz8,134.7253523999825,138.2374987998046,140.03819659980945,None,True,5,['r'],False,0.25,0.5,0.5,2.0,1.0,0.9463946303571862,0.0,succ_gain,1,6,,,,iz8,4,2022-04-21_12h05.55.132,threat_forest,2021.2.3,59.99955598593516,
3,0,3,0,1,0,1,0,,,,,,,,,,left,0.7505727000534534,144.00462789996527,iz8,134.7253523999825,138.2374987998046,144.00462789996527,None,False,6,['r'],False,0.25,0.5,0.5,2.0,1.0,0.9463946303571862,0.0,wait_cost,1,5,143.15413899999112,None,6,iz8,4,2022-04-21_12h05.55.132,threat_forest,2021.2.3,59.99955598593516,
3,0,3,0,2,0,2,0,,,,,,,,,,left,1.7822176998015493,150.55457329982892,iz8,150.55457329982892,None,144.77170409983955,146.7708995998837,True,5,['r'],True,0.3333333333333333,0.3333333333333333,0.0,0.0,1.0,0.5793801642856949,0.0,fight_cost,0,2,146.7708995998837,None,5,iz8,4,2022-04-21_12h05.55.132,threat_forest,2021.2.3,59.99955598593516,
3,0,3,0,3,0,3,0,,,,,,,,,,right,1.0863544000312686,157.5699059998151,iz8,152.3546451998409,154.35436149989255,157.5699059998151,None,True,2,['r'],False,0.25,0.5,0.5,2.0,1.0,0.9463946303571862,-0.75,succ_gain,1,3,154.35436149989255,None,2,iz8,4,2022-04-21_12h05.55.132,threat_forest,2021.2.3,59.99955598593516,
3,0,3,0,4,0,4,0,,,,,,,,,,left,1.0635456999298185,162.8050998998806,iz8,152.3546451998409,154.35436149989255,162.8050998998806,None,False,3,['r'],False,0.25,0.5,0.5,2.0,1.0,0.9463946303571862,-0.5,wait_cost,1,2,160.6883133999072,None,3,iz8,4,2022-04-21_12h05.55.132,threat_forest,2021.2.3,59.99955598593516,
3,0,3,0,5,0,5,0,,,,,,,,,,right,1.5472761997953057,168.17172969994135,iz8,168.17172969994135,None,163.88814469985664,165.88787609990686,False,2,['r'],True,0.3333333333333333,0.3333333333333333,0.0,0.0,1.0,0.5793801642856949,-0.6666666666666667,wait_cost,0,1,165.88787609990686,None,2,iz8,4,2022-04-21_12h05.55.132,threat_forest,2021.2.3,59.99955598593516,
3,0,3,0,6,0,6,0,,,,,,,,,,left,0.7036766998935491,173.88812969997525,iz8,173.88812969997525,None,163.88814469985664,165.88787609990686,True,1,['r'],True,0.3333333333333333,0.3333333333333333,0.0,0.0,1.0,0.5793801642856949,0.3333333333333332,succ_gain,0,2,171.73796799988486,None,1,iz8,4,2022-04-21_12h05.55.132,threat_forest,2021.2.3,59.99955598593516,
3,0,3,0,7,0,7,0,,,,,,,,,,right,0.41710010007955134,177.47155309980735,iz8,177.47155309980735,None,163.88814469985664,165.88787609990686,False,2,['r'],True,0.3333333333333333,0.3333333333333333,0.0,0.0,1.0,0.5793801642856949,-0.6666666666666667,wait_cost,0,1,176.6214271998033,None,2,iz8,4,2022-04-21_12h05.55.132,threat_forest,2021.2.3,59.99955598593516,
3,0,3,0,,,,,,,,,,,,,,,,,,,,,,,,,,,,,,,,,,,,179.92145169992,None,1,iz8,4,2022-04-21_12h05.55.132,threat_forest,2021.2.3,59.99955598593516,
4,0,4,0,0,0,0,0,,,,,,,180.66148109990172,184.1714368998073,None,left,1.3904721001163125,186.23880459996872,iz8,180.66148109990172,184.1714368998073,186.23880459996872,None,False,5,['r'],False,0.3333333333333333,0.5,0.3333333333333333,2.0,1.0,1.0,0.0,wait_cost,1,4,,,,iz8,4,2022-04-21_12h05.55.132,threat_forest,2021.2.3,59.99955598593516,
4,0,4,0,1,0,1,0,,,,,,,,,,right,1.0507912999019027,192.8727419998031,iz8,192.8727419998031,None,187.6552219998557,189.65497379982844,False,4,['r'],True,0.4,0.4,0.0,0.0,1.0,0.6126016192893442,0.0,wait_cost,0,3,189.65497379982844,None,4,iz8,4,2022-04-21_12h05.55.132,threat_forest,2021.2.3,59.99955598593516,
4,0,4,0,2,0,2,0,,,,,,,,,,right,1.2947066000197083,196.5890607999172,iz8,196.5890607999172,None,187.6552219998557,189.65497379982844,False,3,['r'],True,0.4,0.4,0.0,0.0,1.0,0.6126016192893442,0.0,wait_cost,0,2,195.95489739999175,None,3,iz8,4,2022-04-21_12h05.55.132,threat_forest,2021.2.3,59.99955598593516,
4,0,4,0,3,0,3,0,,,,,,,,,,left,1.2963901001494378,201.3056020999793,iz8,201.3056020999793,None,187.6552219998557,189.65497379982844,True,2,['r'],True,0.4,0.4,0.0,0.0,1.0,0.6126016192893442,-0.6,unsucc_cost,0,0,199.9054248998873,None,2,iz8,4,2022-04-21_12h05.55.132,threat_forest,2021.2.3,59.99955598593516,
4,0,4,0,,,,,,,,,,,,,,,,,,,,,,,,,,,,,,,,,,,,204.62189509999007,None,0,iz8,4,2022-04-21_12h05.55.132,threat_forest,2021.2.3,59.99955598593516,
5,0,5,0,0,0,0,0,,,,,,,207.21386569994502,210.72182539990172,None,left,1.721938299946487,212.15636989986524,iz8,207.21386569994502,210.72182539990172,212.15636989986524,None,False,4,['r'],False,0.2962962962962963,0.3333333333333333,0.1111111111111111,1.0,2.0,0.8325252476189534,0.0,wait_cost,1,3,,,,iz8,4,2022-04-21_12h05.55.132,threat_forest,2021.2.3,59.99955598593516,
5,0,5,0,1,0,1,0,,,,,,,,,,left,1.2121829001698643,216.70592379989102,iz8,207.21386569994502,210.72182539990172,216.70592379989102,None,False,3,['r'],False,0.2962962962962963,0.3333333333333333,0.1111111111111111,1.0,2.0,0.8325252476189534,-0.1111111111111111,wait_cost,1,2,215.90533759980462,None,3,iz8,4,2022-04-21_12h05.55.132,threat_forest,2021.2.3,59.99955598593516,
5,0,5,0,2,0,2,0,,,,,,,,,,left,0.5376153001561761,221.73931799991988,iz8,221.73931799991988,None,217.9390162997879,219.93861599988304,True,2,['r'],True,0.4166666666666667,0.5,0.1666666666666666,1.0,2.0,0.9358932809493992,-0.5833333333333333,unsucc_cost,0,0,219.93861599988304,None,2,iz8,4,2022-04-21_12h05.55.132,threat_forest,2021.2.3,59.99955598593516,
5,0,5,0,,,,,,,,,,,,,,,,,,,,,,,,,,,,,,,,,,,,224.30547309992835,None,0,iz8,4,2022-04-21_12h05.55.132,threat_forest,2021.2.3,59.99955598593516,
6,0,6,0,0,0,0,0,,,,,,,227.97902309987694,231.48878659983166,None,left,0.9777251998893917,234.29143169987947,iz8,227.97902309987694,231.48878659983166,234.29143169987947,None,False,4,['p'],False,0.16,0.2,0.2,2.0,1.0,0.8198746470064713,0.0,wait_cost,1,3,,,,iz8,4,2022-04-21_12h05.55.132,threat_forest,2021.2.3,59.99955598593516,
6,0,6,0,1,0,1,0,,,,,,,,,,left,0.6707375000696629,240.1892765997909,iz8,227.97902309987694,231.48878659983166,240.1892765997909,None,False,3,['p'],False,0.16,0.2,0.2,2.0,1.0,0.8198746470064713,-0.2,wait_cost,1,2,237.28896609996445,None,3,iz8,4,2022-04-21_12h05.55.132,threat_forest,2021.2.3,59.99955598593516,
6,0,6,0,2,0,2,0,,,,,,,,,,left,1.4837170999962837,244.48934549978003,iz8,227.97902309987694,231.48878659983166,244.48934549978003,None,False,2,['p'],False,0.16,0.2,0.2,2.0,1.0,0.8198746470064713,-0.8400000000000001,wait_cost,1,1,242.88903619977646,None,2,iz8,4,2022-04-21_12h05.55.132,threat_forest,2021.2.3,59.99955598593516,
6,0,6,0,3,0,3,0,,,,,,,,,,right,0.7827523001469672,248.94005339988507,iz8,227.97902309987694,231.48878659983166,248.94005339988507,None,True,1,['p'],False,0.16,0.2,0.2,2.0,1.0,0.8198746470064713,0.1599999999999999,unsucc_cost,1,0,248.0057495997753,None,1,iz8,4,2022-04-21_12h05.55.132,threat_forest,2021.2.3,59.99955598593516,
6,0,6,0,,,,,,,,,,,,,,,,,,,,,,,,,,,,,,,,,,,,251.73923379997723,None,0,iz8,4,2022-04-21_12h05.55.132,threat_forest,2021.2.3,59.99955598593516,
7,0,7,0,0,0,0,0,,,,,,,255.0426139999181,258.5559474998154,None,left,0.9052283999044448,259.50620099995285,iz8,255.0426139999181,258.5559474998154,259.50620099995285,None,False,5,['r'],False,0.36,0.6,0.4,2.0,1.0,0.9801625908629508,0.0,wait_cost,1,4,,,,iz8,4,2022-04-21_12h05.55.132,threat_forest,2021.2.3,59.99955598593516,
7,0,7,0,1,0,1,0,,,,,,,,,,left,1.0916462000459433,263.43955119978637,iz8,255.0426139999181,258.5559474998154,263.43955119978637,None,False,4,['r'],False,0.36,0.6,0.4,2.0,1.0,0.9801625908629508,0.0,wait_cost,1,3,262.43935439991765,None,4,iz8,4,2022-04-21_12h05.55.132,threat_forest,2021.2.3,59.99955598593516,
7,0,7,0,2,0,2,0,,,,,,,,,,left,1.2539432998746634,268.82349489978515,iz8,255.0426139999181,258.5559474998154,268.82349489978515,None,False,3,['r'],False,0.36,0.6,0.4,2.0,1.0,0.9801625908629508,-0.4,wait_cost,1,2,266.5560079999268,None,3,iz8,4,2022-04-21_12h05.55.132,threat_forest,2021.2.3,59.99955598593516,
7,0,7,0,3,0,3,0,,,,,,,,,,left,0.7821782999671996,275.3901586998254,iz8,275.3901586998254,None,270.10660049994476,272.10622919979505,True,2,['r'],True,0.5,0.5,0.0,0.0,1.0,0.6309297535714574,-0.5,unsucc_cost,0,0,272.10622919979505,None,2,iz8,4,2022-04-21_12h05.55.132,threat_forest,2021.2.3,59.99955598593516,
7,0,7,0,,,,,,,,,,,,,,,,,,,,,,,,,,,,,,,,,,,,278.18957999977283,None,0,iz8,4,2022-04-21_12h05.55.132,threat_forest,2021.2.3,59.99955598593516,
8,0,8,0,0,0,0,0,,,,,,,281.5829550998751,285.0895963998046,None,right,0.9079126000870019,287.8581332999747,iz8,287.8581332999747,None,281.5829550998751,285.0895963998046,False,5,['r'],True,0.4444444444444445,0.6666666666666666,0.3333333333333333,1.0,1.0,0.9656336071428248,0.0,wait_cost,0,4,,,,iz8,4,2022-04-21_12h05.55.132,threat_forest,2021.2.3,59.99955598593516,
8,0,8,0,1,0,1,0,,,,,,,,,,right,1.666499000042677,291.5234963998664,iz8,291.5234963998664,None,281.5829550998751,285.0895963998046,False,4,['r'],True,0.4444444444444445,0.6666666666666666,0.3333333333333333,1.0,1.0,0.9656336071428248,0.0,wait_cost,0,3,290.7897061998956,None,4,iz8,4,2022-04-21_12h05.55.132,threat_forest,2021.2.3,59.99955598593516,
8,0,8,0,2,0,2,0,,,,,,,,,,right,1.3240995998494327,298.5400722997729,iz8,298.5400722997729,None,281.5829550998751,285.0895963998046,False,3,['r'],True,0.4444444444444445,0.6666666666666666,0.3333333333333333,1.0,1.0,0.9656336071428248,-0.3333333333333333,wait_cost,0,2,295.20644919993356,None,3,iz8,4,2022-04-21_12h05.55.132,threat_forest,2021.2.3,59.99955598593516,
8,0,8,0,3,0,3,0,,,,,,,,,,right,1.5441471999511123,303.7906260997988,iz8,303.7906260997988,None,281.5829550998751,285.0895963998046,False,2,['r'],True,0.4444444444444445,0.6666666666666666,0.3333333333333333,1.0,1.0,0.9656336071428248,-0.5555555555555556,wait_cost,0,1,301.88985149981454,None,2,iz8,4,2022-04-21_12h05.55.132,threat_forest,2021.2.3,59.99955598593516,
8,0,8,0,4,0,4,0,,,,,,,,,,right,0.6982609999831766,310.556894299807,iz8,305.35691299987957,307.3566699998919,310.556894299807,None,True,1,['r'],False,0.1875,0.25,0.25,2.0,1.0,0.895754137500101,0.1875,unsucc_cost,1,0,307.3566699998919,None,1,iz8,4,2022-04-21_12h05.55.132,threat_forest,2021.2.3,59.99955598593516,
8,0,8,0,,,,,,,,,,,,,,,,,,,,,,,,,,,,,,,,,,,,313.2734320999589,None,0,iz8,4,2022-04-21_12h05.55.132,threat_forest,2021.2.3,59.99955598593516,
9,0,9,0,0,0,0,0,,,,,,,314.52804449992254,318.04010909982026,None,right,0.7561713000759482,318.6741152999457,iz8,314.52804449992254,318.04010909982026,318.6741152999457,None,True,5,['p'],False,0.2448979591836734,0.2857142857142857,0.1428571428571428,1.0,2.0,0.8400769154957735,0.0,succ_gain,1,6,,,,iz8,4,2022-04-21_12h05.55.132,threat_forest,2021.2.3,59.99955598593516,
9,0,9,0,1,0,1,0,,,,,,,,,,left,0.9768004000652581,323.84122549998574,iz8,314.52804449992254,318.04010909982026,323.84122549998574,None,False,6,['p'],False,0.2448979591836734,0.2857142857142857,0.1428571428571428,1.0,2.0,0.8400769154957735,0.0,wait_cost,1,5,321.45700699998997,None,6,iz8,4,2022-04-21_12h05.55.132,threat_forest,2021.2.3,59.99955598593516,
9,0,9,0,2,0,2,0,,,,,,,,,,right,1.3895137999206781,329.89145089988597,iz8,329.89145089988597,None,324.84059179993346,326.84025929984637,False,5,['p'],True,0.4444444444444445,0.6666666666666666,0.3333333333333333,1.0,2.0,0.9656336071428248,0.0,wait_cost,0,4,326.84025929984637,None,5,iz8,4,2022-04-21_12h05.55.132,threat_forest,2021.2.3,59.99955598593516,
9,0,9,0,3,0,3,0,,,,,,,,,,right,0.7461544000543654,334.8740063998848,iz8,334.8740063998848,None,324.84059179993346,326.84025929984637,False,4,['p'],True,0.4444444444444445,0.6666666666666666,0.3333333333333333,1.0,2.0,0.9656336071428248,0.0,wait_cost,0,3,333.30698559992015,None,4,iz8,4,2022-04-21_12h05.55.132,threat_forest,2021.2.3,59.99955598593516,
9,0,9,0,4,0,4,0,,,,,,,,,,left,0.7409179999958724,339.40795789984986,iz8,339.40795789984986,None,324.84059179993346,326.84025929984637,True,3,['p'],True,0.4444444444444445,0.6666666666666666,0.3333333333333333,1.0,2.0,0.9656336071428248,-0.3333333333333333,unsucc_cost,0,1,337.64039149996825,None,3,iz8,4,2022-04-21_12h05.55.132,threat_forest,2021.2.3,59.99955598593516,
9,0,9,0,5,0,5,0,,,,,,,,,,left,0.7478381998371333,342.807472899789,iz8,342.807472899789,None,324.84059179993346,326.84025929984637,True,1,['p'],True,0.4444444444444445,0.6666666666666666,0.3333333333333333,1.0,2.0,0.9656336071428248,0.4444444444444444,unsucc_cost,0,0,342.1737933999393,None,1,iz8,4,2022-04-21_12h05.55.132,threat_forest,2021.2.3,59.99955598593516,
9,0,9,0,,,,,,,,,,,,,,,,,,,,,,,,,,,,,,,,,,,,345.57395859993994,None,0,iz8,4,2022-04-21_12h05.55.132,threat_forest,2021.2.3,59.99955598593516,
10,0,10,0,0,0,0,0,,,,,,,346.09552309988067,349.60721699986607,None,right,1.2146230000071228,350.92426979984157,iz8,350.92426979984157,None,346.09552309988067,349.60721699986607,False,5,['r'],True,0.5,0.5,0.0,0.0,2.0,0.6309297535714574,0.0,wait_cost,0,4,,,,iz8,4,2022-04-21_12h05.55.132,threat_forest,2021.2.3,59.99955598593516,
10,0,10,0,1,0,1,0,,,,,,,,,,right,1.5540521000511944,356.7246436998248,iz8,356.7246436998248,None,346.09552309988067,349.60721699986607,False,4,['r'],True,0.5,0.5,0.0,0.0,2.0,0.6309297535714574,0.0,wait_cost,0,3,354.15731679997407,None,4,iz8,4,2022-04-21_12h05.55.132,threat_forest,2021.2.3,59.99955598593516,
10,0,10,0,2,0,2,0,,,,,,,,,,left,0.49093870003707707,363.758075799793,iz8,363.758075799793,None,346.09552309988067,349.60721699986607,True,3,['r'],True,0.5,0.5,0.0,0.0,2.0,0.6309297535714574,0.0,succ_gain,0,5,360.3043696999084,None,3,iz8,4,2022-04-21_12h05.55.132,threat_forest,2021.2.3,59.99955598593516,
10,0,10,0,3,0,3,0,,,,,,,,,,right,0.6747920999769121,368.10816329997033,iz8,368.10816329997033,None,346.09552309988067,349.60721699986607,False,5,['r'],True,0.5,0.5,0.0,0.0,2.0,0.6309297535714574,0.0,wait_cost,0,4,366.27418539999053,None,5,iz8,4,2022-04-21_12h05.55.132,threat_forest,2021.2.3,59.99955598593516,
10,0,10,0,4,0,4,0,,,,,,,,,,right,1.0002869998570532,371.8578312997706,iz8,368.8079072998371,370.8075937998947,371.8578312997706,None,True,4,['r'],False,0.4081632653061224,0.5714285714285714,0.2857142857142857,2.0,2.0,0.9885754083994552,0.0,succ_gain,1,6,370.8075937998947,None,4,iz8,4,2022-04-21_12h05.55.132,threat_forest,2021.2.3,59.99955598593516,
10,0,10,0,5,0,5,0,,,,,,,,,,right,0.6842016999144107,376.2089656998869,iz8,376.2089656998869,None,372.874570999993,374.87430359981954,False,6,['r'],True,0.5,0.5,0.0,0.0,2.0,0.6309297535714574,0.0,wait_cost,0,5,374.87430359981954,None,6,iz8,4,2022-04-21_12h05.55.132,threat_forest,2021.2.3,59.99955598593516,
10,0,10,0,6,0,6,0,,,,,,,,,,right,1.5550298001617193,380.6750221999828,iz8,380.6750221999828,None,372.874570999993,374.87430359981954,False,5,['r'],True,0.5,0.5,0.0,0.0,2.0,0.6309297535714574,0.0,wait_cost,0,4,378.92439739988185,None,5,iz8,4,2022-04-21_12h05.55.132,threat_forest,2021.2.3,59.99955598593516,
10,0,10,0,7,0,7,0,,,,,,,,,,left,1.7278119998518378,386.7918714999687,iz8,382.25801729992963,384.2578289997764,386.7918714999687,None,False,4,['r'],False,0.4081632653061224,0.5714285714285714,0.2857142857142857,2.0,2.0,0.9885754083994552,0.0,wait_cost,1,3,384.2578289997764,None,4,iz8,4,2022-04-21_12h05.55.132,threat_forest,2021.2.3,59.99955598593516,
10,0,10,0,,,,,,,,,,,,,,,,,,,,,,,,,,,,,,,,,,,,390.54129359987564,None,3,iz8,4,2022-04-21_12h05.55.132,threat_forest,2021.2.3,59.99955598593516,
11,0,11,0,0,0,0,0,,,,,,,391.84414159995504,395.35797829995863,None,left,1.7547130999155343,398.7752528998535,iz8,391.84414159995504,395.35797829995863,398.7752528998535,None,False,5,['r'],False,0.2222222222222222,0.6666666666666666,0.6666666666666666,2.0,2.0,0.77250688571426,0.0,wait_cost,1,4,,,,iz8,4,2022-04-21_12h05.55.132,threat_forest,2021.2.3,59.99955598593516,
11,0,11,0,1,0,1,0,,,,,,,,,,right,1.0843828001525253,406.1090615999419,iz8,406.1090615999419,None,400.5582123999484,402.558093899861,False,4,['r'],True,0.3333333333333333,0.3333333333333333,0.0,0.0,2.0,0.5793801642856949,0.0,wait_cost,0,3,402.558093899861,None,4,iz8,4,2022-04-21_12h05.55.132,threat_forest,2021.2.3,59.99955598593516,
11,0,11,0,2,0,2,0,,,,,,,,,,left,2.010798200033605,410.0756251998246,iz8,407.2250335998833,409.22501829988323,410.0756251998246,None,False,3,['r'],False,0.2222222222222222,0.6666666666666666,0.6666666666666666,2.0,2.0,0.77250688571426,-0.6666666666666666,wait_cost,1,2,409.22501829988323,None,3,iz8,4,2022-04-21_12h05.55.132,threat_forest,2021.2.3,59.99955598593516,
11,0,11,0,3,0,3,0,,,,,,,,,,right,1.1673159999772906,415.7919301998336,iz8,407.2250335998833,409.22501829988323,415.7919301998336,None,True,2,['r'],False,0.2222222222222222,0.6666666666666666,0.6666666666666666,2.0,2.0,0.77250688571426,-0.7777777777777778,succ_gain,1,4,414.1083813000005,None,2,iz8,4,2022-04-21_12h05.55.132,threat_forest,2021.2.3,59.99955598593516,
11,0,11,0,4,0,4,0,,,,,,,,,,left,0.5899768997915089,420.6088256998919,iz8,407.2250335998833,409.22501829988323,420.6088256998919,None,False,4,['r'],False,0.2222222222222222,0.6666666666666666,0.6666666666666666,2.0,2.0,0.77250688571426,0.0,wait_cost,1,3,418.99184609996155,None,4,iz8,4,2022-04-21_12h05.55.132,threat_forest,2021.2.3,59.99955598593516,
11,0,11,0,5,0,5,0,,,,,,,,,,left,0.9034476999659091,426.75901489984244,iz8,407.2250335998833,409.22501829988323,426.75901489984244,None,False,3,['r'],False,0.2222222222222222,0.6666666666666666,0.6666666666666666,2.0,2.0,0.77250688571426,-0.6666666666666666,wait_cost,1,2,423.22502709995024,None,3,iz8,4,2022-04-21_12h05.55.132,threat_forest,2021.2.3,59.99955598593516,
11,0,11,0,6,0,6,0,,,,,,,,,,right,1.2099814000539482,432.4424752998166,iz8,432.4424752998166,None,427.69192919996567,429.6919575999491,False,2,['r'],True,0.3333333333333333,0.3333333333333333,0.0,0.0,2.0,0.5793801642856949,-0.6666666666666667,wait_cost,0,1,429.6919575999491,None,2,iz8,4,2022-04-21_12h05.55.132,threat_forest,2021.2.3,59.99955598593516,
11,0,11,0,7,0,7,0,,,,,,,,,,left,0.4873571000061929,437.0260743999388,iz8,437.0260743999388,None,427.69192919996567,429.6919575999491,True,1,['r'],True,0.3333333333333333,0.3333333333333333,0.0,0.0,2.0,0.5793801642856949,0.3333333333333332,fight_cost,0,0,435.6751842999365,None,1,iz8,4,2022-04-21_12h05.55.132,threat_forest,2021.2.3,59.99955598593516,
11,0,11,0,,,,,,,,,,,,,,,,,,,,,,,,,,,,,,,,,,,,439.54200889985077,None,0,iz8,4,2022-04-21_12h05.55.132,threat_forest,2021.2.3,59.99955598593516,
12,0,12,0,0,0,0,0,,,,,,,442.7483639998827,446.25878569995984,None,right,1.8729630000889301,448.04333079978824,iz8,448.04333079978824,None,442.7483639998827,446.25878569995984,False,5,['r'],True,0.4444444444444445,0.6666666666666666,0.3333333333333333,1.0,1.0,0.9656336071428248,0.0,wait_cost,0,4,,,,iz8,4,2022-04-21_12h05.55.132,threat_forest,2021.2.3,59.99955598593516,
12,0,12,0,1,0,1,0,,,,,,,,,,right,0.6968102999962866,454.67573859984986,iz8,454.67573859984986,None,442.7483639998827,446.25878569995984,False,4,['r'],True,0.4444444444444445,0.6666666666666666,0.3333333333333333,1.0,1.0,0.9656336071428248,0.0,wait_cost,0,3,451.9420490998309,None,4,iz8,4,2022-04-21_12h05.55.132,threat_forest,2021.2.3,59.99955598593516,
12,0,12,0,2,0,2,0,,,,,,,,,,right,0.5200030999258161,458.7428474999033,iz8,455.3924181999173,457.39220959995873,458.7428474999033,None,True,3,['r'],False,0.2,0.2,0.0,0.0,1.0,0.4554859150035951,0.0,fight_cost,1,0,457.39220959995873,None,3,iz8,4,2022-04-21_12h05.55.132,threat_forest,2021.2.3,59.99955598593516,
12,0,12,0,,,,,,,,,,,,,,,,,,,,,,,,,,,,,,,,,,,,461.2923167999834,None,0,iz8,4,2022-04-21_12h05.55.132,threat_forest,2021.2.3,59.99955598593516,
13,0,13,0,0,0,0,0,,,,,,,463.14812269993126,466.6590695998166,None,left,1.33214920014143,467.82624279987067,iz8,463.14812269993126,466.6590695998166,467.82624279987067,None,False,5,['p'],False,0.3333333333333333,0.5,0.3333333333333333,2.0,2.0,1.0,0.0,wait_cost,1,4,,,,iz8,4,2022-04-21_12h05.55.132,threat_forest,2021.2.3,59.99955598593516,
13,0,13,0,1,0,1,0,,,,,,,,,,left,1.4885404999367893,474.5926628999878,iz8,474.5926628999878,None,469.1762244999409,471.17583209997974,True,4,['p'],True,0.4,0.4,0.0,0.0,2.0,0.6126016192893442,0.0,unsucc_cost,0,2,471.17583209997974,None,4,iz8,4,2022-04-21_12h05.55.132,threat_forest,2021.2.3,59.99955598593516,
13,0,13,0,2,0,2,0,,,,,,,,,,left,0.5943221000488847,480.359796699835,iz8,480.359796699835,None,469.1762244999409,471.17583209997974,True,2,['p'],True,0.4,0.4,0.0,0.0,2.0,0.6126016192893442,-0.6,succ_gain,0,4,478.1091674999334,None,2,iz8,4,2022-04-21_12h05.55.132,threat_forest,2021.2.3,59.99955598593516,
13,0,13,0,3,0,3,0,,,,,,,,,,left,0.4713503001257777,484.2932826997712,iz8,484.2932826997712,None,469.1762244999409,471.17583209997974,True,4,['p'],True,0.4,0.4,0.0,0.0,2.0,0.6126016192893442,0.0,unsucc_cost,0,2,482.9759712999221,None,4,iz8,4,2022-04-21_12h05.55.132,threat_forest,2021.2.3,59.99955598593516,
13,0,13,0,4,0,4,0,,,,,,,,,,right,1.3246466999407858,487.6095821999479,iz8,484.7930273998063,486.79271549987607,487.6095821999479,None,True,2,['p'],False,0.3333333333333333,0.5,0.3333333333333333,2.0,2.0,1.0,-0.6666666666666667,unsucc_cost,1,0,486.79271549987607,None,2,iz8,4,2022-04-21_12h05.55.132,threat_forest,2021.2.3,59.99955598593516,
13,0,13,0,,,,,,,,,,,,,,,,,,,,,,,,,,,,,,,,,,,,490.96179599990137,None,0,iz8,4,2022-04-21_12h05.55.132,threat_forest,2021.2.3,59.99955598593516,
14,0,14,0,0,0,0,0,,,,,,,493.09927679994144,496.6094688999001,None,right,1.558913900051266,498.14316319976933,iz8,498.14316319976933,None,493.09927679994144,496.6094688999001,False,5,['p'],True,0.5,0.5,0.0,0.0,1.0,0.6309297535714574,0.0,wait_cost,0,4,,,,iz8,4,2022-04-21_12h05.55.132,threat_forest,2021.2.3,59.99955598593516,
14,0,14,0,1,0,1,0,,,,,,,,,,left,0.7916773001197726,505.5104206998367,iz8,505.5104206998367,None,493.09927679994144,496.6094688999001,True,4,['p'],True,0.5,0.5,0.0,0.0,1.0,0.6309297535714574,0.0,succ_gain,0,5,501.7262428998947,None,4,iz8,4,2022-04-21_12h05.55.132,threat_forest,2021.2.3,59.99955598593516,
14,0,14,0,2,0,2,0,,,,,,,,,,left,0.760973900090903,511.8432845999487,iz8,511.8432845999487,None,493.09927679994144,496.6094688999001,True,5,['p'],True,0.5,0.5,0.0,0.0,1.0,0.6309297535714574,0.0,unsucc_cost,0,3,508.3263296999503,None,5,iz8,4,2022-04-21_12h05.55.132,threat_forest,2021.2.3,59.99955598593516,
14,0,14,0,3,0,3,0,,,,,,,,,,right,1.0232651999685913,515.909951399779,iz8,512.6266268999316,514.626560599776,515.909951399779,None,True,3,['p'],False,0.4081632653061224,0.5714285714285714,0.2857142857142857,2.0,1.0,0.9885754083994552,-0.2857142857142857,succ_gain,1,4,514.626560599776,None,3,iz8,4,2022-04-21_12h05.55.132,threat_forest,2021.2.3,59.99955598593516,
14,0,14,0,4,0,4,0,,,,,,,,,,right,1.0468272001016885,521.3442283999175,iz8,521.3442283999175,None,516.9600626998581,518.9598183999769,False,4,['p'],True,0.5,0.5,0.0,0.0,1.0,0.6309297535714574,0.0,wait_cost,0,3,518.9598183999769,None,4,iz8,4,2022-04-21_12h05.55.132,threat_forest,2021.2.3,59.99955598593516,
14,0,14,0,5,0,5,0,,,,,,,,,,right,0.8033866998739541,525.2769522999879,iz8,522.4101513999049,524.4098324999213,525.2769522999879,None,True,3,['p'],False,0.4081632653061224,0.5714285714285714,0.2857142857142857,2.0,1.0,0.9885754083994552,-0.2857142857142857,fight_cost,1,0,524.4098324999213,None,3,iz8,4,2022-04-21_12h05.55.132,threat_forest,2021.2.3,59.99955598593516,
14,0,14,0,,,,,,,,,,,,,,,,,,,,,,,,,,,,,,,,,,,,528.110065799905,None,0,iz8,4,2022-04-21_12h05.55.132,threat_forest,2021.2.3,59.99955598593516,
15,0,15,0,0,0,0,0,,,,,,,528.9839384998195,532.4932419999968,None,right,0.8147843999322504,533.2604458997957,iz8,528.9839384998195,532.4932419999968,533.2604458997957,None,True,5,['r'],False,0.2592592592592592,0.3333333333333333,0.2222222222222222,2.0,2.0,0.9327883776363324,0.0,fight_cost,1,2,,,,iz8,4,2022-04-21_12h05.55.132,threat_forest,2021.2.3,59.99955598593516,
15,0,15,0,1,0,1,0,,,,,,,,,,right,0.6731281999964267,537.3771310998127,iz8,528.9839384998195,532.4932419999968,537.3771310998127,None,True,2,['r'],False,0.2592592592592592,0.3333333333333333,0.2222222222222222,2.0,2.0,0.9327883776363324,-0.7407407407407408,succ_gain,1,4,536.0933444998227,None,2,iz8,4,2022-04-21_12h05.55.132,threat_forest,2021.2.3,59.99955598593516,
15,0,15,0,2,0,2,0,,,,,,,,,,right,0.7961685999762267,543.4943666998297,iz8,543.4943666998297,None,538.0770351998508,540.0767164998688,False,4,['r'],True,0.375,0.5,0.25,1.0,2.0,0.9850568223215076,0.0,wait_cost,0,3,540.0767164998688,None,4,iz8,4,2022-04-21_12h05.55.132,threat_forest,2021.2.3,59.99955598593516,
15,0,15,0,3,0,3,0,,,,,,,,,,right,0.5675949999131262,548.7444322998635,iz8,544.3105871998705,546.3102258997969,548.7444322998635,None,True,3,['r'],False,0.2592592592592592,0.3333333333333333,0.2222222222222222,2.0,2.0,0.9327883776363324,-0.2222222222222222,fight_cost,1,0,546.3102258997969,None,3,iz8,4,2022-04-21_12h05.55.132,threat_forest,2021.2.3,59.99955598593516,
15,0,15,0,,,,,,,,,,,,,,,,,,,,,,,,,,,,,,,,,,,,551.3437353998888,None,0,iz8,4,2022-04-21_12h05.55.132,threat_forest,2021.2.3,59.99955598593516,
16,0,16,0,0,0,0,0,,,,,,,554.5024610999972,558.0104268998839,None,right,0.7652610000222921,560.1278230999596,iz8,554.5024610999972,558.0104268998839,560.1278230999596,None,True,5,['p'],False,0.1975308641975308,0.2222222222222222,0.1111111111111111,1.0,2.0,0.7461067557824965,0.0,unsucc_cost,1,3,,,,iz8,4,2022-04-21_12h05.55.132,threat_forest,2021.2.3,59.99955598593516,
16,0,16,0,1,0,1,0,,,,,,,,,,right,1.0942782999482006,564.0281692999415,iz8,564.0281692999415,None,560.9107948997989,562.9104520999826,False,3,['p'],True,0.2777777777777778,0.3333333333333333,0.1666666666666666,1.0,2.0,0.8929352898779304,-0.1666666666666666,wait_cost,0,2,562.9104520999826,None,3,iz8,4,2022-04-21_12h05.55.132,threat_forest,2021.2.3,59.99955598593516,
16,0,16,0,2,0,2,0,,,,,,,,,,left,1.3364141001366079,570.394466499798,iz8,570.394466499798,None,560.9107948997989,562.9104520999826,True,2,['p'],True,0.2777777777777778,0.3333333333333333,0.1666666666666666,1.0,2.0,0.8929352898779304,-0.7222222222222223,unsucc_cost,0,0,567.1438502999954,None,2,iz8,4,2022-04-21_12h05.55.132,threat_forest,2021.2.3,59.99955598593516,
16,0,16,0,,,,,,,,,,,,,,,,,,,,,,,,,,,,,,,,,,,,573.7606614998076,None,0,iz8,4,2022-04-21_12h05.55.132,threat_forest,2021.2.3,59.99955598593516,
17,0,17,0,0,0,0,0,,,,,,,575.819513999857,579.327406299999,None,left,1.2162335999310017,580.0110948998481,iz8,575.819513999857,579.327406299999,580.0110948998481,None,False,5,['p'],False,0.16,0.2,0.2,2.0,1.0,0.8198746470064713,0.0,wait_cost,1,4,,,,iz8,4,2022-04-21_12h05.55.132,threat_forest,2021.2.3,59.99955598593516,
17,0,17,0,1,0,1,0,,,,,,,,,,right,1.1665996999945492,583.9470415997785,iz8,583.9470415997785,None,581.2442750998307,583.2442531997804,False,4,['p'],True,0.375,0.5,0.25,1.0,1.0,0.9850568223215076,0.0,wait_cost,0,3,583.2442531997804,None,4,iz8,4,2022-04-21_12h05.55.132,threat_forest,2021.2.3,59.99955598593516,
17,0,17,0,2,0,2,0,,,,,,,,,,right,0.5515048000961542,589.5946275999304,iz8,585.1443623998202,587.1442037997767,589.5946275999304,None,True,3,['p'],False,0.16,0.2,0.2,2.0,1.0,0.8198746470064713,-0.2,succ_gain,1,4,587.1442037997767,None,3,iz8,4,2022-04-21_12h05.55.132,threat_forest,2021.2.3,59.99955598593516,
17,0,17,0,3,0,3,0,,,,,,,,,,right,0.746690999949351,592.9946462998632,iz8,585.1443623998202,587.1442037997767,592.9946462998632,None,True,4,['p'],False,0.16,0.2,0.2,2.0,1.0,0.8198746470064713,0.0,succ_gain,1,5,592.1776077998802,None,4,iz8,4,2022-04-21_12h05.55.132,threat_forest,2021.2.3,59.99955598593516,
17,0,17,0,4,0,4,0,,,,,,,,,,left,0.437722000060603,598.7449852998834,iz8,585.1443623998202,587.1442037997767,598.7449852998834,None,False,5,['p'],False,0.16,0.2,0.2,2.0,1.0,0.8198746470064713,0.0,wait_cost,1,4,595.7609883998521,None,5,iz8,4,2022-04-21_12h05.55.132,threat_forest,2021.2.3,59.99955598593516,
17,0,17,0,5,0,5,0,,,,,,,,,,left,0.7422789998818189,603.6279020998627,iz8,585.1443623998202,587.1442037997767,603.6279020998627,None,False,4,['p'],False,0.16,0.2,0.2,2.0,1.0,0.8198746470064713,0.0,wait_cost,1,3,601.2112237999681,None,4,iz8,4,2022-04-21_12h05.55.132,threat_forest,2021.2.3,59.99955598593516,
17,0,17,0,6,0,6,0,,,,,,,,,,right,0.45259989984333515,607.5780185998883,iz8,607.5780185998883,None,604.395077599911,606.3944681999274,False,3,['p'],True,0.375,0.5,0.25,1.0,1.0,0.9850568223215076,-0.25,wait_cost,0,2,606.3944681999274,None,3,iz8,4,2022-04-21_12h05.55.132,threat_forest,2021.2.3,59.99955598593516,
17,0,17,0,7,0,7,0,,,,,,,,,,right,0.6672963001765311,612.5453454998787,iz8,612.5453454998787,None,604.395077599911,606.3944681999274,False,2,['p'],True,0.375,0.5,0.25,1.0,1.0,0.9850568223215076,-0.625,wait_cost,0,1,610.0611264999025,None,2,iz8,4,2022-04-21_12h05.55.132,threat_forest,2021.2.3,59.99955598593516,
17,0,17,0,,,,,,,,,,,,,,,,,,,,,,,,,,,,,,,,,,,,615.2446581998374,None,1,iz8,4,2022-04-21_12h05.55.132,threat_forest,2021.2.3,59.99955598593516,
