miniblock.thisRepN,miniblock.thisTrialN,miniblock.thisN,miniblock.thisIndex,day.thisRepN,day.thisTrialN,day.thisN,day.thisIndex,welcoming.started,welcoming.stopped,key_resp_2.keys,key_resp_2.rt,key_resp_2.started,key_resp_2.stopped,forest.started,fixation_forest.started,fixation_forest.stopped,key_resp.keys,key_resp.rt,key_resp.started,Subject_ID,weather_left.started,weather_left.stopped,weather_right.started,weather_right.stopped,foraging T/F,in_LP,p/r heuristic,good_weather.T/F,p_succ_correct,p_succ_uncorrected,r_threat,n_oponents,gain_if_succ,weather_entropy,OP_value_difference,action_outcome,forest_side_L=0_R=1,out_LP,fixation_day.started,fixation_day.stopped,participant,session,date,expName,psychopyVersion,frameRate,
,,,,,,,,20.653613800008316,None,space,2.7982286000042222,20.653613800008316,None,,,,,,,,,,,,,,,,,,,,,,,,,,,,pz19,1,2023-04-20_11h51.13.410,threat_forest,2021.2.3,60.042822538580964,
0,0,0,0,0,0,0,0,,,,,,,23.513005500019062,27.02807220001705,None,right,1.6572953999857418,29.909232300007716,pz19,29.909232300007716,None,23.513005500019062,27.02807220001705,False,4,['r'],True,0.25,0.25,0.0,0.0,2.0,0.5118595071429148,0.0,wait_cost,0,3,,,pz19,1,2023-04-20_11h51.13.410,threat_forest,2021.2.3,60.042822538580964,
0,0,0,0,1,0,1,0,,,,,,,,,,left,2.048105599998962,36.586134100012714,pz19,31.590820800018264,33.60519520001253,36.586134100012714,None,False,3,['r'],False,0.2040816326530612,0.2857142857142857,0.2857142857142857,2.0,2.0,0.9335459102197724,-0.2857142857142857,wait_cost,1,2,33.60519520001253,None,pz19,1,2023-04-20_11h51.13.410,threat_forest,2021.2.3,60.042822538580964,
0,0,0,0,2,0,2,0,,,,,,,,,,left,1.6293862000165973,43.76320380001562,pz19,31.590820800018264,33.60519520001253,43.76320380001562,None,False,2,['r'],False,0.2040816326530612,0.2857142857142857,0.2857142857142857,2.0,2.0,0.9335459102197724,-0.7959183673469388,wait_cost,1,1,40.665739300020505,None,pz19,1,2023-04-20_11h51.13.410,threat_forest,2021.2.3,60.042822538580964,
0,0,0,0,3,0,3,0,,,,,,,,,,left,0.6949407000211067,48.97760100002051,pz19,48.97760100002051,None,45.41113250001217,47.42576110002119,True,1,['r'],True,0.25,0.25,0.0,0.0,2.0,0.5118595071429148,0.25,figh_cost,0,0,47.42576110002119,None,pz19,1,2023-04-20_11h51.13.410,threat_forest,2021.2.3,60.042822538580964,
0,0,0,0,,,,,,,,,,,,,,,,,,,,,,,,,,,,,,,,,,,,51.710129700019024,None,pz19,1,2023-04-20_11h51.13.410,threat_forest,2021.2.3,60.042822538580964,
1,0,1,0,0,0,0,0,,,,,,,54.177433000004385,57.68266510000103,None,left,2.5899791000119876,59.91475870000431,pz19,59.91475870000431,None,54.177433000004385,57.68266510000103,True,5,['r'],True,0.3333333333333333,0.3333333333333333,0.0,0.0,1.0,0.5793801642856949,0.0,unsucc_cost,0,3,,,pz19,1,2023-04-20_11h51.13.410,threat_forest,2021.2.3,60.042822538580964,
1,0,1,0,1,0,1,0,,,,,,,,,,right,2.006828099983977,65.27620170000591,pz19,65.27620170000591,None,54.177433000004385,57.68266510000103,False,3,['r'],True,0.3333333333333333,0.3333333333333333,0.0,0.0,1.0,0.5793801642856949,0.0,wait_cost,0,2,64.54309170000488,None,pz19,1,2023-04-20_11h51.13.410,threat_forest,2021.2.3,60.042822538580964,
1,0,1,0,2,0,2,0,,,,,,,,,,None,,73.11858579999534,pz19,67.30754320000415,69.32191410000087,73.11858579999534,None,None,2,['r'],False,0.2222222222222222,0.6666666666666666,0.6666666666666666,2.0,1.0,0.77250688571426,-0.7777777777777778,wait_cost,1,1,69.32191410000087,None,pz19,1,2023-04-20_11h51.13.410,threat_forest,2021.2.3,60.042822538580964,
1,0,1,0,3,0,3,0,,,,,,,,,,right,2.335677900002338,80.87793829999282,pz19,67.30754320000415,69.32191410000087,80.87793829999282,None,True,1,['r'],False,0.2222222222222222,0.6666666666666666,0.6666666666666666,2.0,1.0,0.77250688571426,0.2222222222222222,figh_cost,1,0,78.1468898000021,None,pz19,1,2023-04-20_11h51.13.410,threat_forest,2021.2.3,60.042822538580964,
1,0,1,0,,,,,,,,,,,,,,,,,,,,,,,,,,,,,,,,,,,,85.2570578000159,None,pz19,1,2023-04-20_11h51.13.410,threat_forest,2021.2.3,60.042822538580964,
2,0,2,0,0,0,0,0,,,,,,,88.83117920000223,92.33375000001979,None,left,2.6667178999923635,95.68449030001648,pz19,88.83117920000223,92.33375000001979,95.68449030001648,None,False,4,['p'],False,0.24,0.3,0.2,2.0,2.0,0.9003120349047065,0.0,wait_cost,1,3,,,pz19,1,2023-04-20_11h51.13.410,threat_forest,2021.2.3,60.042822538580964,
2,0,2,0,1,0,1,0,,,,,,,,,,right,0.6895668999932241,102.7091083000123,pz19,88.83117920000223,92.33375000001979,102.7091083000123,None,True,3,['p'],False,0.24,0.3,0.2,2.0,2.0,0.9003120349047065,-0.2,succ_gain,1,5,100.39288810000289,None,pz19,1,2023-04-20_11h51.13.410,threat_forest,2021.2.3,60.042822538580964,
2,0,2,0,2,0,2,0,,,,,,,,,,left,1.0964618000143673,107.07059370001662,pz19,107.07059370001662,None,103.43007180001587,105.43817730000592,True,5,['p'],True,0.4444444444444445,0.6666666666666666,0.3333333333333333,1.0,2.0,0.9656336071428248,0.0,unsucc_cost,0,3,105.43817730000592,None,pz19,1,2023-04-20_11h51.13.410,threat_forest,2021.2.3,60.042822538580964,
2,0,2,0,3,0,3,0,,,,,,,,,,right,0.575331100000767,113.8164254000003,pz19,108.18579089999548,110.20036610000534,113.8164254000003,None,True,3,['p'],False,0.24,0.3,0.2,2.0,2.0,0.9003120349047065,-0.2,figh_cost,1,0,110.20036610000534,None,pz19,1,2023-04-20_11h51.13.410,threat_forest,2021.2.3,60.042822538580964,
2,0,2,0,,,,,,,,,,,,,,,,,,,,,,,,,,,,,,,,,,,,116.42789859999903,None,pz19,1,2023-04-20_11h51.13.410,threat_forest,2021.2.3,60.042822538580964,
3,0,3,0,0,0,0,0,,,,,,,117.63741530000698,121.14011670000036,None,None,,122.04177640000125,pz19,117.63741530000698,121.14011670000036,122.04177640000125,None,None,4,['p'],False,0.2962962962962963,0.3333333333333333,0.1111111111111111,1.0,2.0,0.8325252476189534,0.0,wait_cost,1,3,,,pz19,1,2023-04-20_11h51.13.410,threat_forest,2021.2.3,60.042822538580964,
3,0,3,0,1,0,1,0,,,,,,,,,,left,2.0632195999787655,127.60096420001355,pz19,127.60096420001355,None,125.0535366999975,127.0678145000129,True,3,['p'],True,0.4166666666666667,0.5,0.1666666666666666,1.0,2.0,0.9358932809493992,-0.1666666666666666,succ_gain,0,5,127.0678145000129,None,pz19,1,2023-04-20_11h51.13.410,threat_forest,2021.2.3,60.042822538580964,
3,0,3,0,2,0,2,0,,,,,,,,,,left,1.6819777000055183,135.37889660001383,pz19,129.68238980000024,131.6968478000199,135.37889660001383,None,False,5,['p'],False,0.2962962962962963,0.3333333333333333,0.1111111111111111,1.0,2.0,0.8325252476189534,0.0,wait_cost,1,4,131.6968478000199,None,pz19,1,2023-04-20_11h51.13.410,threat_forest,2021.2.3,60.042822538580964,
3,0,3,0,3,0,3,0,,,,,,,,,,left,1.078356599988183,140.75562559999526,pz19,140.75562559999526,None,137.09228909999365,139.10657910001464,True,4,['p'],True,0.4166666666666667,0.5,0.1666666666666666,1.0,2.0,0.9358932809493992,0.0,unsucc_cost,0,2,139.10657910001464,None,pz19,1,2023-04-20_11h51.13.410,threat_forest,2021.2.3,60.042822538580964,
3,0,3,0,4,0,4,0,,,,,,,,,,left,1.8450328999897465,147.65087529999437,pz19,141.85432139999466,143.86874560001888,147.65087529999437,None,False,2,['p'],False,0.2962962962962963,0.3333333333333333,0.1111111111111111,1.0,2.0,0.8325252476189534,-0.7037037037037037,wait_cost,1,1,143.86874560001888,None,pz19,1,2023-04-20_11h51.13.410,threat_forest,2021.2.3,60.042822538580964,
3,0,3,0,5,0,5,0,,,,,,,,,,right,2.019879800005583,152.22852090001106,pz19,141.85432139999466,143.86874560001888,152.22852090001106,None,True,1,['p'],False,0.2962962962962963,0.3333333333333333,0.1111111111111111,1.0,2.0,0.8325252476189534,0.2962962962962963,succ_gain,1,3,151.52829859999474,None,pz19,1,2023-04-20_11h51.13.410,threat_forest,2021.2.3,60.042822538580964,
3,0,3,0,6,0,6,0,,,,,,,,,,right,1.844282599980943,158.92298010000377,pz19,158.92298010000377,None,154.2761945000093,156.2905962000077,False,3,['p'],True,0.4166666666666667,0.5,0.1666666666666666,1.0,2.0,0.9358932809493992,-0.1666666666666666,wait_cost,0,2,156.2905962000077,None,pz19,1,2023-04-20_11h51.13.410,threat_forest,2021.2.3,60.042822538580964,
3,0,3,0,7,0,7,0,,,,,,,,,,left,1.599059500003932,163.8672964000143,pz19,160.7867252000142,162.80116269999417,163.8672964000143,None,False,2,['p'],False,0.2962962962962963,0.3333333333333333,0.1111111111111111,1.0,2.0,0.8325252476189534,-0.7037037037037037,wait_cost,1,1,162.80116269999417,None,pz19,1,2023-04-20_11h51.13.410,threat_forest,2021.2.3,60.042822538580964,
3,0,3,0,,,,,,,,,,,,,,,,,,,,,,,,,,,,,,,,,,,,167.51338479999686,None,pz19,1,2023-04-20_11h51.13.410,threat_forest,2021.2.3,60.042822538580964,
4,0,4,0,0,0,0,0,,,,,,,169.05439170001773,172.5587724999932,None,left,2.549784600007115,173.17503730001044,pz19,169.05439170001773,172.5587724999932,173.17503730001044,None,False,5,['p'],False,0.16,0.2,0.2,2.0,1.0,0.8198746470064713,0.0,wait_cost,1,4,,,pz19,1,2023-04-20_11h51.13.410,threat_forest,2021.2.3,60.042822538580964,
4,0,4,0,1,0,1,0,,,,,,,,,,right,2.7769573999976274,179.8857157000166,pz19,169.05439170001773,172.5587724999932,179.8857157000166,None,True,4,['p'],False,0.16,0.2,0.2,2.0,1.0,0.8198746470064713,0.0,unsucc_cost,1,2,177.7705816999951,None,pz19,1,2023-04-20_11h51.13.410,threat_forest,2021.2.3,60.042822538580964,
4,0,4,0,2,0,2,0,,,,,,,,,,right,2.034524499991676,187.07715980001376,pz19,187.07715980001376,None,182.68290280000656,184.69732940001995,False,2,['p'],True,0.25,0.5,0.5,1.0,1.0,0.9463946303571862,-0.75,wait_cost,0,1,184.69732940001995,None,pz19,1,2023-04-20_11h51.13.410,threat_forest,2021.2.3,60.042822538580964,
4,0,4,0,3,0,3,0,,,,,,,,,,left,2.2518483999883756,192.69021729999804,pz19,192.69021729999804,None,182.68290280000656,184.69732940001995,True,1,['p'],True,0.25,0.5,0.5,1.0,1.0,0.9463946303571862,0.25,unsucc_cost,0,0,191.15801050001755,None,pz19,1,2023-04-20_11h51.13.410,threat_forest,2021.2.3,60.042822538580964,
4,0,4,0,,,,,,,,,,,,,,,,,,,,,,,,,,,,,,,,,,,,196.98585990001447,None,pz19,1,2023-04-20_11h51.13.410,threat_forest,2021.2.3,60.042822538580964,
5,0,5,0,0,0,0,0,,,,,,,198.24210530001437,201.7479253000056,None,None,,203.0137781999947,pz19,203.0137781999947,None,198.24210530001437,201.7479253000056,None,4,['p'],True,0.4444444444444445,0.6666666666666666,0.3333333333333333,1.0,2.0,0.9656336071428248,0.0,wait_cost,0,3,,,pz19,1,2023-04-20_11h51.13.410,threat_forest,2021.2.3,60.042822538580964,
5,0,5,0,1,0,1,0,,,,,,,,,,left,1.5427063000097405,209.5743424000102,pz19,209.5743424000102,None,198.24210530001437,201.7479253000056,True,3,['p'],True,0.4444444444444445,0.6666666666666666,0.3333333333333333,1.0,2.0,0.9656336071428248,-0.3333333333333333,succ_gain,0,5,208.04209339999943,None,pz19,1,2023-04-20_11h51.13.410,threat_forest,2021.2.3,60.042822538580964,
5,0,5,0,2,0,2,0,,,,,,,,,,right,2.1435125000134576,216.15158299999894,pz19,216.15158299999894,None,198.24210530001437,201.7479253000056,False,5,['p'],True,0.4444444444444445,0.6666666666666666,0.3333333333333333,1.0,2.0,0.9656336071428248,0.0,wait_cost,0,4,213.15393900001072,None,pz19,1,2023-04-20_11h51.13.410,threat_forest,2021.2.3,60.042822538580964,
5,0,5,0,3,0,3,0,,,,,,,,,,right,2.515727499994682,222.2124768999929,pz19,218.31619870002032,220.3306150000135,222.2124768999929,None,True,4,['p'],False,0.2448979591836734,0.2857142857142857,0.1428571428571428,1.0,2.0,0.8400769154957735,0.0,figh_cost,1,1,220.3306150000135,None,pz19,1,2023-04-20_11h51.13.410,threat_forest,2021.2.3,60.042822538580964,
5,0,5,0,4,0,4,0,,,,,,,,,,left,1.4621367999934591,228.32350070000393,pz19,228.32350070000393,None,224.76013130001957,226.77459750001435,True,1,['p'],True,0.4444444444444445,0.6666666666666666,0.3333333333333333,1.0,2.0,0.9656336071428248,0.4444444444444444,succ_gain,0,3,226.77459750001435,None,pz19,1,2023-04-20_11h51.13.410,threat_forest,2021.2.3,60.042822538580964,
5,0,5,0,5,0,5,0,,,,,,,,,,right,1.6492259000078775,233.0193124000216,pz19,233.0193124000216,None,224.76013130001957,226.77459750001435,False,3,['p'],True,0.4444444444444445,0.6666666666666666,0.3333333333333333,1.0,2.0,0.9656336071428248,-0.3333333333333333,wait_cost,0,2,231.8199790000217,None,pz19,1,2023-04-20_11h51.13.410,threat_forest,2021.2.3,60.042822538580964,
5,0,5,0,6,0,6,0,,,,,,,,,,None,,240.1291859000048,pz19,234.70097540001734,236.71532280000974,240.1291859000048,None,None,2,['p'],False,0.2448979591836734,0.2857142857142857,0.1428571428571428,1.0,2.0,0.8400769154957735,-0.7551020408163265,wait_cost,1,1,236.71532280000974,None,pz19,1,2023-04-20_11h51.13.410,threat_forest,2021.2.3,60.042822538580964,
5,0,5,0,7,0,7,0,,,,,,,,,,right,1.6011786999879405,247.95501619999413,pz19,234.70097540001734,236.71532280000974,247.95501619999413,None,True,1,['p'],False,0.2448979591836734,0.2857142857142857,0.1428571428571428,1.0,2.0,0.8400769154957735,0.2448979591836735,succ_gain,1,3,245.15748340002028,None,pz19,1,2023-04-20_11h51.13.410,threat_forest,2021.2.3,60.042822538580964,
5,0,5,0,,,,,,,,,,,,,,,,,,,,,,,,,,,,,,,,,,,,251.6015496000182,None,pz19,1,2023-04-20_11h51.13.410,threat_forest,2021.2.3,60.042822538580964,
6,0,6,0,0,0,0,0,,,,,,,252.4305319999985,255.9259846000059,None,left,2.297444399999222,257.93272640000214,pz19,252.4305319999985,255.9259846000059,257.93272640000214,None,False,5,['p'],False,0.16,0.2,0.2,2.0,2.0,0.8198746470064713,0.0,wait_cost,1,4,,,pz19,1,2023-04-20_11h51.13.410,threat_forest,2021.2.3,60.042822538580964,
6,0,6,0,1,0,1,0,,,,,,,,,,left,2.5625828000192996,264.24005160000524,pz19,252.4305319999985,255.9259846000059,264.24005160000524,None,False,4,['p'],False,0.16,0.2,0.2,2.0,2.0,0.8198746470064713,0.0,wait_cost,1,3,262.2747356000182,None,pz19,1,2023-04-20_11h51.13.410,threat_forest,2021.2.3,60.042822538580964,
6,0,6,0,2,0,2,0,,,,,,,,,,None,,270.50090390001424,pz19,252.4305319999985,255.9259846000059,270.50090390001424,None,None,3,['p'],False,0.16,0.2,0.2,2.0,2.0,0.8198746470064713,-0.2,wait_cost,1,2,268.8352687000006,None,pz19,1,2023-04-20_11h51.13.410,threat_forest,2021.2.3,60.042822538580964,
6,0,6,0,3,0,3,0,,,,,,,,,,None,,276.0627421000099,pz19,252.4305319999985,255.9259846000059,276.0627421000099,None,None,2,['p'],False,0.16,0.2,0.2,2.0,2.0,0.8198746470064713,-0.8400000000000001,wait_cost,1,1,275.52910840002005,None,pz19,1,2023-04-20_11h51.13.410,threat_forest,2021.2.3,60.042822538580964,
6,0,6,0,4,0,4,0,,,,,,,,,,right,0.865351999993436,284.17132660001516,pz19,252.4305319999985,255.9259846000059,284.17132660001516,None,True,1,['p'],False,0.16,0.2,0.2,2.0,2.0,0.8198746470064713,0.1599999999999999,unsucc_cost,1,0,281.0905372000125,None,pz19,1,2023-04-20_11h51.13.410,threat_forest,2021.2.3,60.042822538580964,
6,0,6,0,,,,,,,,,,,,,,,,,,,,,,,,,,,,,,,,,,,,287.06828140001744,None,pz19,1,2023-04-20_11h51.13.410,threat_forest,2021.2.3,60.042822538580964,
7,0,7,0,0,0,0,0,,,,,,,288.2249243000115,291.7304662000097,None,right,1.5524992999853566,293.2299106999999,pz19,288.2249243000115,291.7304662000097,293.2299106999999,None,True,4,['p'],False,0.2,0.2,0.0,0.0,1.0,0.4554859150035951,0.0,succ_gain,1,5,,,pz19,1,2023-04-20_11h51.13.410,threat_forest,2021.2.3,60.042822538580964,
7,0,7,0,1,0,1,0,,,,,,,,,,left,1.275068300019484,300.0611349999963,pz19,300.0611349999963,None,294.8113147999975,296.82581629999913,True,5,['p'],True,0.4444444444444445,0.6666666666666666,0.3333333333333333,1.0,1.0,0.9656336071428248,0.0,unsucc_cost,0,3,296.82581629999913,None,pz19,1,2023-04-20_11h51.13.410,threat_forest,2021.2.3,60.042822538580964,
7,0,7,0,2,0,2,0,,,,,,,,,,right,1.7213686000031885,305.83436280000024,pz19,305.83436280000024,None,294.8113147999975,296.82581629999913,False,3,['p'],True,0.4444444444444445,0.6666666666666666,0.3333333333333333,1.0,1.0,0.9656336071428248,-0.3333333333333333,wait_cost,0,2,303.3695967000094,None,pz19,1,2023-04-20_11h51.13.410,threat_forest,2021.2.3,60.042822538580964,
7,0,7,0,3,0,3,0,,,,,,,,,,left,1.6289774999895599,312.4615393000131,pz19,312.4615393000131,None,294.8113147999975,296.82581629999913,True,2,['p'],True,0.4444444444444445,0.6666666666666666,0.3333333333333333,1.0,1.0,0.9656336071428248,-0.5555555555555556,unsucc_cost,0,0,309.59715580000193,None,pz19,1,2023-04-20_11h51.13.410,threat_forest,2021.2.3,60.042822538580964,
7,0,7,0,,,,,,,,,,,,,,,,,,,,,,,,,,,,,,,,,,,,316.1244556000165,None,pz19,1,2023-04-20_11h51.13.410,threat_forest,2021.2.3,60.042822538580964,
8,0,8,0,0,0,0,0,,,,,,,317.50299179999274,321.00047440000344,None,left,2.48188370000571,322.9693840999971,pz19,317.50299179999274,321.00047440000344,322.9693840999971,None,False,5,['p'],False,0.16,0.2,0.2,2.0,2.0,0.8198746470064713,0.0,wait_cost,1,4,,,pz19,1,2023-04-20_11h51.13.410,threat_forest,2021.2.3,60.042822538580964,
8,0,8,0,1,0,1,0,,,,,,,,,,right,0.8332655999984127,328.18014630000107,pz19,317.50299179999274,321.00047440000344,328.18014630000107,None,True,4,['p'],False,0.16,0.2,0.2,2.0,2.0,0.8198746470064713,0.0,unsucc_cost,1,2,327.49727439999697,None,pz19,1,2023-04-20_11h51.13.410,threat_forest,2021.2.3,60.042822538580964,
8,0,8,0,2,0,2,0,,,,,,,,,,right,1.5509828999929596,334.34438950000913,pz19,334.34438950000913,None,329.0459555000125,331.0604783000017,False,2,['p'],True,0.2222222222222222,0.3333333333333333,0.3333333333333333,2.0,2.0,0.9656336071428248,-0.7777777777777779,wait_cost,0,1,331.0604783000017,None,pz19,1,2023-04-20_11h51.13.410,threat_forest,2021.2.3,60.042822538580964,
8,0,8,0,3,0,3,0,,,,,,,,,,left,1.1555915999924764,340.1023180000193,pz19,340.1023180000193,None,329.0459555000125,331.0604783000017,True,1,['p'],True,0.2222222222222222,0.3333333333333333,0.3333333333333333,2.0,2.0,0.9656336071428248,0.2222222222222221,succ_gain,0,3,337.93729550001444,None,pz19,1,2023-04-20_11h51.13.410,threat_forest,2021.2.3,60.042822538580964,
8,0,8,0,4,0,4,0,,,,,,,,,,right,1.356401500001084,346.27990090000094,pz19,346.27990090000094,None,329.0459555000125,331.0604783000017,False,3,['p'],True,0.2222222222222222,0.3333333333333333,0.3333333333333333,2.0,2.0,0.9656336071428248,-0.3333333333333333,wait_cost,0,2,343.2989287000091,None,pz19,1,2023-04-20_11h51.13.410,threat_forest,2021.2.3,60.042822538580964,
8,0,8,0,5,0,5,0,,,,,,,,,,right,2.779190400004154,352.9569857000024,pz19,347.6620533000096,349.6763132000051,352.9569857000024,None,True,2,['p'],False,0.16,0.2,0.2,2.0,2.0,0.8198746470064713,-0.8400000000000001,succ_gain,1,4,349.6763132000051,None,pz19,1,2023-04-20_11h51.13.410,threat_forest,2021.2.3,60.042822538580964,
8,0,8,0,6,0,6,0,,,,,,,,,,left,0.6367708999896422,360.0669796000002,pz19,347.6620533000096,349.6763132000051,360.0669796000002,None,False,4,['p'],False,0.16,0.2,0.2,2.0,2.0,0.8198746470064713,0.0,wait_cost,1,3,357.76880720001645,None,pz19,1,2023-04-20_11h51.13.410,threat_forest,2021.2.3,60.042822538580964,
8,0,8,0,7,0,7,0,,,,,,,,,,left,0.5548356999934185,364.6626142000023,pz19,347.6620533000096,349.6763132000051,364.6626142000023,None,False,3,['p'],False,0.16,0.2,0.2,2.0,2.0,0.8198746470064713,-0.2,wait_cost,1,2,362.7473990000144,None,pz19,1,2023-04-20_11h51.13.410,threat_forest,2021.2.3,60.042822538580964,
8,0,8,0,,,,,,,,,,,,,,,,,,,,,,,,,,,,,,,,,,,,367.2599245000165,None,pz19,1,2023-04-20_11h51.13.410,threat_forest,2021.2.3,60.042822538580964,
9,0,9,0,0,0,0,0,,,,,,,370.547025900014,374.0535054000211,None,right,2.266052099992521,376.8863337000075,pz19,370.547025900014,374.0535054000211,376.8863337000075,None,True,4,['p'],False,0.2040816326530612,0.2857142857142857,0.2857142857142857,2.0,2.0,0.9335459102197724,0.0,unsucc_cost,1,2,,,pz19,1,2023-04-20_11h51.13.410,threat_forest,2021.2.3,60.042822538580964,
9,0,9,0,1,0,1,0,,,,,,,,,,left,1.7996980999887455,383.8113696000073,pz19,383.8113696000073,None,379.1823968999961,381.1968279000139,True,2,['p'],True,0.4444444444444445,0.6666666666666666,0.3333333333333333,1.0,2.0,0.9656336071428248,-0.5555555555555556,figh_cost,0,0,381.1968279000139,None,pz19,1,2023-04-20_11h51.13.410,threat_forest,2021.2.3,60.042822538580964,
9,0,9,0,,,,,,,,,,,,,,,,,,,,,,,,,,,,,,,,,,,,387.6574986000196,None,pz19,1,2023-04-20_11h51.13.410,threat_forest,2021.2.3,60.042822538580964,
10,0,10,0,0,0,0,0,,,,,,,390.9977224000031,394.5010825000063,None,left,2.5403285000065807,395.3007817000034,pz19,395.3007817000034,None,390.9977224000031,394.5010825000063,True,5,['p'],True,0.375,0.5,0.25,1.0,2.0,0.9850568223215076,0.0,figh_cost,0,2,,,pz19,1,2023-04-20_11h51.13.410,threat_forest,2021.2.3,60.042822538580964,
10,0,10,0,1,0,1,0,,,,,,,,,,left,1.7070626000058837,400.78151170001365,pz19,397.86479260001215,399.879406299995,400.78151170001365,None,False,2,['p'],False,0.1728395061728395,0.2222222222222222,0.2222222222222222,2.0,2.0,0.8571721972794328,-0.8271604938271605,wait_cost,1,1,399.879406299995,None,pz19,1,2023-04-20_11h51.13.410,threat_forest,2021.2.3,60.042822538580964,
10,0,10,0,2,0,2,0,,,,,,,,,,left,2.454667199985124,406.95638119999785,pz19,406.95638119999785,None,402.510632599995,404.52499780000653,True,1,['p'],True,0.375,0.5,0.25,1.0,2.0,0.9850568223215076,0.375,succ_gain,0,3,404.52499780000653,None,pz19,1,2023-04-20_11h51.13.410,threat_forest,2021.2.3,60.042822538580964,
10,0,10,0,3,0,3,0,,,,,,,,,,right,1.0084482000092976,414.6670381000149,pz19,409.43749030001345,411.45190730001195,414.6670381000149,None,True,3,['p'],False,0.1728395061728395,0.2222222222222222,0.2222222222222222,2.0,2.0,0.8571721972794328,-0.2222222222222222,unsucc_cost,1,1,411.45190730001195,None,pz19,1,2023-04-20_11h51.13.410,threat_forest,2021.2.3,60.042822538580964,
10,0,10,0,4,0,4,0,,,,,,,,,,left,2.8690025999967474,421.2762674000114,pz19,421.2762674000114,None,415.69819799999823,417.71266049999394,True,1,['p'],True,0.375,0.5,0.25,1.0,2.0,0.9850568223215076,0.375,figh_cost,0,0,417.71266049999394,None,pz19,1,2023-04-20_11h51.13.410,threat_forest,2021.2.3,60.042822538580964,
10,0,10,0,,,,,,,,,,,,,,,,,,,,,,,,,,,,,,,,,,,,426.1881626000104,None,pz19,1,2023-04-20_11h51.13.410,threat_forest,2021.2.3,60.042822538580964,
11,0,11,0,0,0,0,0,,,,,,,426.9457885000156,430.45075390001875,None,right,2.726953200006392,433.817008300015,pz19,426.9457885000156,430.45075390001875,433.817008300015,None,True,4,['r'],False,0.28125,0.375,0.25,2.0,2.0,0.9634951148421658,0.0,succ_gain,1,6,,,pz19,1,2023-04-20_11h51.13.410,threat_forest,2021.2.3,60.042822538580964,
11,0,11,0,1,0,1,0,,,,,,,,,,left,1.415450200001942,441.55753570000525,pz19,426.9457885000156,430.45075390001875,441.55753570000525,None,False,6,['r'],False,0.28125,0.375,0.25,2.0,2.0,0.9634951148421658,0.0,wait_cost,1,5,438.5766181999934,None,pz19,1,2023-04-20_11h51.13.410,threat_forest,2021.2.3,60.042822538580964,
11,0,11,0,2,0,2,0,,,,,,,,,,right,1.8446136999991722,447.95141490001697,pz19,447.95141490001697,None,442.9895058000111,444.98717510001734,False,5,['r'],True,0.3333333333333333,0.3333333333333333,0.0,0.0,2.0,0.5793801642856949,0.0,wait_cost,0,4,444.98717510001734,None,pz19,1,2023-04-20_11h51.13.410,threat_forest,2021.2.3,60.042822538580964,
11,0,11,0,3,0,3,0,,,,,,,,,,right,2.3452743999951053,453.51564950001193,pz19,449.81643639999675,451.83068390001426,453.51564950001193,None,True,4,['r'],False,0.28125,0.375,0.25,2.0,2.0,0.9634951148421658,0.0,figh_cost,1,1,451.83068390001426,None,pz19,1,2023-04-20_11h51.13.410,threat_forest,2021.2.3,60.042822538580964,
11,0,11,0,4,0,4,0,,,,,,,,,,left,1.9602824999892619,459.15761230001226,pz19,459.15761230001226,None,455.8774223999935,457.8918563000043,True,1,['r'],True,0.3333333333333333,0.3333333333333333,0.0,0.0,2.0,0.5793801642856949,0.3333333333333332,succ_gain,0,3,457.8918563000043,None,pz19,1,2023-04-20_11h51.13.410,threat_forest,2021.2.3,60.042822538580964,
11,0,11,0,5,0,5,0,,,,,,,,,,right,1.2591645999928005,466.31786790001206,pz19,466.31786790001206,None,455.8774223999935,457.8918563000043,False,3,['r'],True,0.3333333333333333,0.3333333333333333,0.0,0.0,2.0,0.5793801642856949,0.0,wait_cost,0,2,463.1534961000143,None,pz19,1,2023-04-20_11h51.13.410,threat_forest,2021.2.3,60.042822538580964,
11,0,11,0,6,0,6,0,,,,,,,,,,right,1.8788379000034183,473.0948287000065,pz19,473.0948287000065,None,455.8774223999935,457.8918563000043,False,2,['r'],True,0.3333333333333333,0.3333333333333333,0.0,0.0,2.0,0.5793801642856949,-0.6666666666666667,wait_cost,0,1,469.6142111000081,None,pz19,1,2023-04-20_11h51.13.410,threat_forest,2021.2.3,60.042822538580964,
11,0,11,0,7,0,7,0,,,,,,,,,,left,2.9252737000060733,480.23783120000735,pz19,480.23783120000735,None,455.8774223999935,457.8918563000043,True,1,['r'],True,0.3333333333333333,0.3333333333333333,0.0,0.0,2.0,0.5793801642856949,0.3333333333333332,unsucc_cost,0,0,477.0072456000198,None,pz19,1,2023-04-20_11h51.13.410,threat_forest,2021.2.3,60.042822538580964,
11,0,11,0,,,,,,,,,,,,,,,,,,,,,,,,,,,,,,,,,,,,485.1997393000056,None,pz19,1,2023-04-20_11h51.13.410,threat_forest,2021.2.3,60.042822538580964,
12,0,12,0,0,0,0,0,,,,,,,487.1375839000102,490.6444264000165,None,right,1.4747942000103649,492.4268650000158,pz19,487.1375839000102,490.6444264000165,492.4268650000158,None,True,4,['r'],False,0.3333333333333333,0.5,0.3333333333333333,2.0,2.0,1.0,0.0,unsucc_cost,1,2,,,pz19,1,2023-04-20_11h51.13.410,threat_forest,2021.2.3,60.042822538580964,
12,0,12,0,1,0,1,0,,,,,,,,,,left,1.0897701999929268,499.5702693000203,pz19,499.5702693000203,None,493.92497700001695,495.93949390001944,True,2,['r'],True,0.4,0.4,0.0,0.0,2.0,0.6126016192893442,-0.6,figh_cost,0,0,495.93949390001944,None,pz19,1,2023-04-20_11h51.13.410,threat_forest,2021.2.3,60.042822538580964,
12,0,12,0,,,,,,,,,,,,,,,,,,,,,,,,,,,,,,,,,,,,502.6999884000106,None,pz19,1,2023-04-20_11h51.13.410,threat_forest,2021.2.3,60.042822538580964,
13,0,13,0,0,0,0,0,,,,,,,506.1918468000076,509.695633299998,None,right,1.6526932999840938,513.0075287999935,pz19,506.1918468000076,509.695633299998,513.0075287999935,None,True,5,['p'],False,0.1975308641975308,0.2222222222222222,0.1111111111111111,1.0,1.0,0.7461067557824965,0.0,succ_gain,1,6,,,pz19,1,2023-04-20_11h51.13.410,threat_forest,2021.2.3,60.042822538580964,
13,0,13,0,1,0,1,0,,,,,,,,,,left,2.121296400000574,517.7860330000112,pz19,506.1918468000076,509.695633299998,517.7860330000112,None,False,6,['p'],False,0.1975308641975308,0.2222222222222222,0.1111111111111111,1.0,1.0,0.7461067557824965,0.0,wait_cost,1,5,516.7034205000091,None,pz19,1,2023-04-20_11h51.13.410,threat_forest,2021.2.3,60.042822538580964,
13,0,13,0,2,0,2,0,,,,,,,,,,right,1.1931486000248697,525.1981196000124,pz19,525.1981196000124,None,519.934035400016,521.9484839000215,False,5,['p'],True,0.4444444444444445,0.6666666666666666,0.3333333333333333,1.0,1.0,0.9656336071428248,0.0,wait_cost,0,4,521.9484839000215,None,pz19,1,2023-04-20_11h51.13.410,threat_forest,2021.2.3,60.042822538580964,
13,0,13,0,3,0,3,0,,,,,,,,,,right,1.0401000999845564,531.0569745000103,pz19,526.4115171000012,528.4258853000065,531.0569745000103,None,True,4,['p'],False,0.1975308641975308,0.2222222222222222,0.1111111111111111,1.0,1.0,0.7461067557824965,0.0,succ_gain,1,5,528.4258853000065,None,pz19,1,2023-04-20_11h51.13.410,threat_forest,2021.2.3,60.042822538580964,
13,0,13,0,4,0,4,0,,,,,,,,,,left,1.3213370999728795,537.2345338000159,pz19,526.4115171000012,528.4258853000065,537.2345338000159,None,False,5,['p'],False,0.1975308641975308,0.2222222222222222,0.1111111111111111,1.0,1.0,0.7461067557824965,0.0,wait_cost,1,4,534.1371138000104,None,pz19,1,2023-04-20_11h51.13.410,threat_forest,2021.2.3,60.042822538580964,
13,0,13,0,5,0,5,0,,,,,,,,,,left,1.531119099992793,542.4462208000186,pz19,526.4115171000012,528.4258853000065,542.4462208000186,None,False,4,['p'],False,0.1975308641975308,0.2222222222222222,0.1111111111111111,1.0,1.0,0.7461067557824965,0.0,wait_cost,1,3,540.5977580000181,None,pz19,1,2023-04-20_11h51.13.410,threat_forest,2021.2.3,60.042822538580964,
13,0,13,0,6,0,6,0,,,,,,,,,,left,0.9634694999840576,548.1908574000117,pz19,526.4115171000012,528.4258853000065,548.1908574000117,None,False,3,['p'],False,0.1975308641975308,0.2222222222222222,0.1111111111111111,1.0,1.0,0.7461067557824965,-0.1111111111111111,wait_cost,1,2,546.00938090001,None,pz19,1,2023-04-20_11h51.13.410,threat_forest,2021.2.3,60.042822538580964,
13,0,13,0,7,0,7,0,,,,,,,,,,left,0.7778699000191409,554.7015114999958,pz19,526.4115171000012,528.4258853000065,554.7015114999958,None,False,2,['p'],False,0.1975308641975308,0.2222222222222222,0.1111111111111111,1.0,1.0,0.7461067557824965,-0.8024691358024691,wait_cost,1,1,551.1877619000152,None,pz19,1,2023-04-20_11h51.13.410,threat_forest,2021.2.3,60.042822538580964,
13,0,13,0,,,,,,,,,,,,,,,,,,,,,,,,,,,,,,,,,,,,557.5152911000187,None,pz19,1,2023-04-20_11h51.13.410,threat_forest,2021.2.3,60.042822538580964,
14,0,14,0,0,0,0,0,,,,,,,561.1563490999979,564.6585426999955,None,left,1.5708690000174101,566.8911156000104,pz19,566.8911156000104,None,561.1563490999979,564.6585426999955,True,5,['r'],True,0.6,0.6,0.0,0.0,2.0,0.6126016192893442,0.0,succ_gain,0,6,,,pz19,1,2023-04-20_11h51.13.410,threat_forest,2021.2.3,60.042822538580964,
14,0,14,0,1,0,1,0,,,,,,,,,,right,0.9943990999890957,572.9378563000064,pz19,568.488832300005,570.5031092000136,572.9378563000064,None,True,6,['r'],False,0.4444444444444445,0.6666666666666666,0.3333333333333333,2.0,2.0,0.9656336071428248,0.0,succ_gain,1,6,570.5031092000136,None,pz19,1,2023-04-20_11h51.13.410,threat_forest,2021.2.3,60.042822538580964,
14,0,14,0,2,0,2,0,,,,,,,,,,left,1.8513014999916777,576.8141967999982,pz19,568.488832300005,570.5031092000136,576.8141967999982,None,False,6,['r'],False,0.4444444444444445,0.6666666666666666,0.3333333333333333,2.0,2.0,0.9656336071428248,0.0,wait_cost,1,5,575.9646235000109,None,pz19,1,2023-04-20_11h51.13.410,threat_forest,2021.2.3,60.042822538580964,
14,0,14,0,3,0,3,0,,,,,,,,,,left,0.9002852999838069,582.0095118000172,pz19,568.488832300005,570.5031092000136,582.0095118000172,None,False,5,['r'],False,0.4444444444444445,0.6666666666666666,0.3333333333333333,2.0,2.0,0.9656336071428248,0.0,wait_cost,1,4,580.710238700005,None,pz19,1,2023-04-20_11h51.13.410,threat_forest,2021.2.3,60.042822538580964,
14,0,14,0,4,0,4,0,,,,,,,,,,left,2.184735399991041,586.989545599994,pz19,586.989545599994,None,582.9418293000199,584.9563348999945,True,4,['r'],True,0.6,0.6,0.0,0.0,2.0,0.6126016192893442,0.0,succ_gain,0,6,584.9563348999945,None,pz19,1,2023-04-20_11h51.13.410,threat_forest,2021.2.3,60.042822538580964,
14,0,14,0,5,0,5,0,,,,,,,,,,left,1.2552244999969844,593.2655288999958,pz19,589.2028086000064,591.2172362999991,593.2655288999958,None,False,6,['r'],False,0.4444444444444445,0.6666666666666666,0.3333333333333333,2.0,2.0,0.9656336071428248,0.0,wait_cost,1,5,591.2172362999991,None,pz19,1,2023-04-20_11h51.13.410,threat_forest,2021.2.3,60.042822538580964,
14,0,14,0,6,0,6,0,,,,,,,,,,left,1.308937399997376,600.3591145999962,pz19,589.2028086000064,591.2172362999991,600.3591145999962,None,False,5,['r'],False,0.4444444444444445,0.6666666666666666,0.3333333333333333,2.0,2.0,0.9656336071428248,0.0,wait_cost,1,4,596.5620679999993,None,pz19,1,2023-04-20_11h51.13.410,threat_forest,2021.2.3,60.042822538580964,
14,0,14,0,7,0,7,0,,,,,,,,,,left,0.45780949998879805,604.7713975000079,pz19,589.2028086000064,591.2172362999991,604.7713975000079,None,False,4,['r'],False,0.4444444444444445,0.6666666666666666,0.3333333333333333,2.0,2.0,0.9656336071428248,0.0,wait_cost,1,3,603.7053597000195,None,pz19,1,2023-04-20_11h51.13.410,threat_forest,2021.2.3,60.042822538580964,
14,0,14,0,,,,,,,,,,,,,,,,,,,,,,,,,,,,,,,,,,,,607.2689527000184,None,pz19,1,2023-04-20_11h51.13.410,threat_forest,2021.2.3,60.042822538580964,
15,0,15,0,0,0,0,0,,,,,,,610.3802174000011,613.8792638000159,None,left,2.016714500001399,616.296295600012,pz19,610.3802174000011,613.8792638000159,616.296295600012,None,False,4,['p'],False,0.2962962962962963,0.3333333333333333,0.1111111111111111,1.0,1.0,0.8325252476189534,0.0,wait_cost,1,3,,,pz19,1,2023-04-20_11h51.13.410,threat_forest,2021.2.3,60.042822538580964,
15,0,15,0,1,0,1,0,,,,,,,,,,left,1.1871240000182297,621.5890029000002,pz19,621.5890029000002,None,618.3422438999987,620.3565620000008,True,3,['p'],True,0.48,0.6,0.2,1.0,1.0,0.9455672104350704,-0.2,unsucc_cost,0,1,620.3565620000008,None,pz19,1,2023-04-20_11h51.13.410,threat_forest,2021.2.3,60.042822538580964,
15,0,15,0,2,0,2,0,,,,,,,,,,left,0.9624873999855481,626.1181548000022,pz19,626.1181548000022,None,618.3422438999987,620.3565620000008,True,1,['p'],True,0.48,0.6,0.2,1.0,1.0,0.9455672104350704,0.48,unsucc_cost,0,0,624.8190187000146,None,pz19,1,2023-04-20_11h51.13.410,threat_forest,2021.2.3,60.042822538580964,
15,0,15,0,,,,,,,,,,,,,,,,,,,,,,,,,,,,,,,,,,,,629.1151357000053,None,pz19,1,2023-04-20_11h51.13.410,threat_forest,2021.2.3,60.042822538580964,
16,0,16,0,0,0,0,0,,,,,,,631.8405676000111,635.3385629999975,None,right,1.357416100014234,638.6264547000173,pz19,638.6264547000173,None,631.8405676000111,635.3385629999975,False,5,['p'],True,0.375,0.5,0.25,1.0,2.0,0.9850568223215076,0.0,wait_cost,0,4,,,pz19,1,2023-04-20_11h51.13.410,threat_forest,2021.2.3,60.042822538580964,
16,0,16,0,1,0,1,0,,,,,,,,,,left,0.691759599983925,644.4343726999941,pz19,644.4343726999941,None,631.8405676000111,635.3385629999975,True,4,['p'],True,0.375,0.5,0.25,1.0,2.0,0.9850568223215076,0.0,unsucc_cost,0,2,642.0195428000006,None,pz19,1,2023-04-20_11h51.13.410,threat_forest,2021.2.3,60.042822538580964,
16,0,16,0,2,0,2,0,,,,,,,,,,right,2.92555220000213,650.3453686000139,pz19,645.150407100009,647.1647815000033,650.3453686000139,None,True,2,['p'],False,0.2592592592592592,0.3333333333333333,0.2222222222222222,2.0,2.0,0.9327883776363324,-0.7407407407407408,unsucc_cost,1,0,647.1647815000033,None,pz19,1,2023-04-20_11h51.13.410,threat_forest,2021.2.3,60.042822538580964,
16,0,16,0,,,,,,,,,,,,,,,,,,,,,,,,,,,,,,,,,,,,655.3073766000161,None,pz19,1,2023-04-20_11h51.13.410,threat_forest,2021.2.3,60.042822538580964,
17,0,17,0,0,0,0,0,,,,,,,657.8646519000176,661.368101,None,right,1.6445332999865059,664.4857633000065,pz19,664.4857633000065,None,657.8646519000176,661.368101,False,5,['p'],True,0.25,0.5,0.5,1.0,2.0,0.9463946303571862,0.0,wait_cost,0,4,,,pz19,1,2023-04-20_11h51.13.410,threat_forest,2021.2.3,60.042822538580964,
17,0,17,0,1,0,1,0,,,,,,,,,,right,1.3112913999939337,670.7932998000178,pz19,670.7932998000178,None,657.8646519000176,661.368101,False,4,['p'],True,0.25,0.5,0.5,1.0,2.0,0.9463946303571862,0.0,wait_cost,0,3,668.161920500017,None,pz19,1,2023-04-20_11h51.13.410,threat_forest,2021.2.3,60.042822538580964,
17,0,17,0,2,0,2,0,,,,,,,,,,right,1.7013300999824423,677.7698352000152,pz19,677.7698352000152,None,657.8646519000176,661.368101,False,3,['p'],True,0.25,0.5,0.5,1.0,2.0,0.9463946303571862,-0.5,wait_cost,0,2,674.1394902000029,None,pz19,1,2023-04-20_11h51.13.410,threat_forest,2021.2.3,60.042822538580964,
17,0,17,0,3,0,3,0,,,,,,,,,,right,2.5848642999771982,682.432444200007,pz19,679.501551399997,681.516127800016,682.432444200007,None,True,2,['p'],False,0.16,0.2,0.2,2.0,2.0,0.8198746470064713,-0.8400000000000001,succ_gain,1,4,681.516127800016,None,pz19,1,2023-04-20_11h51.13.410,threat_forest,2021.2.3,60.042822538580964,
17,0,17,0,4,0,4,0,,,,,,,,,,left,1.6362541999842506,689.6752884000016,pz19,679.501551399997,681.516127800016,689.6752884000016,None,False,4,['p'],False,0.16,0.2,0.2,2.0,2.0,0.8198746470064713,0.0,wait_cost,1,3,687.0608775000146,None,pz19,1,2023-04-20_11h51.13.410,threat_forest,2021.2.3,60.042822538580964,
17,0,17,0,5,0,5,0,,,,,,,,,,right,1.2301979000039864,695.4228926000069,pz19,695.4228926000069,None,691.3406013000058,693.3549040000071,False,3,['p'],True,0.25,0.5,0.5,1.0,2.0,0.9463946303571862,-0.5,wait_cost,0,2,693.3549040000071,None,pz19,1,2023-04-20_11h51.13.410,threat_forest,2021.2.3,60.042822538580964,
17,0,17,0,6,0,6,0,,,,,,,,,,right,1.7660104999959003,700.2486877000192,pz19,696.685519599996,698.6999498000077,700.2486877000192,None,True,2,['p'],False,0.16,0.2,0.2,2.0,2.0,0.8198746470064713,-0.8400000000000001,figh_cost,1,0,698.6999498000077,None,pz19,1,2023-04-20_11h51.13.410,threat_forest,2021.2.3,60.042822538580964,
17,0,17,0,,,,,,,,,,,,,,,,,,,,,,,,,,,,,,,,,,,,704.0616774999944,None,pz19,1,2023-04-20_11h51.13.410,threat_forest,2021.2.3,60.042822538580964,
