miniblock.thisRepN,miniblock.thisTrialN,miniblock.thisN,miniblock.thisIndex,day.thisRepN,day.thisTrialN,day.thisN,day.thisIndex,welcoming.started,welcoming.stopped,key_resp_2.keys,key_resp_2.rt,key_resp_2.started,key_resp_2.stopped,forest.started,fixation_forest.started,fixation_forest.stopped,key_resp.keys,key_resp.rt,key_resp.started,Subject_ID,weather_left.started,weather_left.stopped,weather_right.started,weather_right.stopped,foraging T/F,in_LP,p/r heuristic,good_weather.T/F,p_succ_correct,p_succ_uncorrected,r_threat,n_oponents,gain_if_succ,weather_entropy,OP_value_difference,action_outcome,forest_side_L=0_R=1,out_LP,fixation_day.started,fixation_day.stopped,participant,session,date,expName,psychopyVersion,frameRate,
,,,,,,,,11.388676200062037,None,space,2.0404391000047326,11.388676200062037,None,,,,,,,,,,,,,,,,,,,,,,,,,,,,qh13,1,2023-02-28_10h21.05.610,threat_forest,2021.2.3,60.065074563757044,
0,0,0,0,0,0,0,0,,,,,,,13.50716649973765,17.011053999885917,None,left,1.5038385996595025,19.75945739960298,qh13,13.50716649973765,17.011053999885917,19.75945739960298,None,False,4,['p'],False,0.2592592592592592,0.3333333333333333,0.2222222222222222,2.0,2.0,0.9327883776363324,0.0,wait_cost,1,3,,,qh13,1,2023-02-28_10h21.05.610,threat_forest,2021.2.3,60.065074563757044,
0,0,0,0,1,0,1,0,,,,,,,,,,None,,26.851020799949765,qh13,13.50716649973765,17.011053999885917,26.851020799949765,None,None,3,['p'],False,0.2592592592592592,0.3333333333333333,0.2222222222222222,2.0,2.0,0.9327883776363324,-0.2222222222222222,wait_cost,1,2,23.308889499865472,None,qh13,1,2023-02-28_10h21.05.610,threat_forest,2021.2.3,60.065074563757044,
0,0,0,0,2,0,2,0,,,,,,,,,,left,1.5142399999313056,33.13932409975678,qh13,13.50716649973765,17.011053999885917,33.13932409975678,None,False,2,['p'],False,0.2592592592592592,0.3333333333333333,0.2222222222222222,2.0,2.0,0.9327883776363324,-0.7407407407407408,wait_cost,1,1,31.867434399668127,None,qh13,1,2023-02-28_10h21.05.610,threat_forest,2021.2.3,60.065074563757044,
0,0,0,0,3,0,3,0,,,,,,,,,,right,1.213789400178939,37.484137599822134,qh13,13.50716649973765,17.011053999885917,37.484137599822134,None,True,1,['p'],False,0.2592592592592592,0.3333333333333333,0.2222222222222222,2.0,2.0,0.9327883776363324,0.2592592592592592,succ_gain,1,3,36.6964225997217,None,qh13,1,2023-02-28_10h21.05.610,threat_forest,2021.2.3,60.065074563757044,
0,0,0,0,4,0,4,0,,,,,,,,,,left,1.513109799940139,41.78278899984434,qh13,13.50716649973765,17.011053999885917,41.78278899984434,None,False,3,['p'],False,0.2592592592592592,0.3333333333333333,0.2222222222222222,2.0,2.0,0.9327883776363324,-0.2222222222222222,wait_cost,1,2,40.74245899962261,None,qh13,1,2023-02-28_10h21.05.610,threat_forest,2021.2.3,60.065074563757044,
0,0,0,0,5,0,5,0,,,,,,,,,,left,2.3166094003245234,48.47998789977282,qh13,13.50716649973765,17.011053999885917,48.47998789977282,None,False,2,['p'],False,0.2592592592592592,0.3333333333333333,0.2222222222222222,2.0,2.0,0.9327883776363324,-0.7407407407407408,wait_cost,1,1,45.338195899967104,None,qh13,1,2023-02-28_10h21.05.610,threat_forest,2021.2.3,60.065074563757044,
0,0,0,0,6,0,6,0,,,,,,,,,,left,1.877822699956596,53.92102460004389,qh13,53.92102460004389,None,50.81679039960727,52.83116719964892,True,1,['p'],True,0.375,0.5,0.25,1.0,2.0,0.9850568223215076,0.375,unsucc_cost,0,0,52.83116719964892,None,qh13,1,2023-02-28_10h21.05.610,threat_forest,2021.2.3,60.065074563757044,
0,0,0,0,,,,,,,,,,,,,,,,,,,,,,,,,,,,,,,,,,,,57.85357929999009,None,qh13,1,2023-02-28_10h21.05.610,threat_forest,2021.2.3,60.065074563757044,
1,0,1,0,0,0,0,0,,,,,,,59.99087619967759,63.49630289990455,None,left,1.1515937000513077,65.61397029971704,qh13,65.61397029971704,None,59.99087619967759,63.49630289990455,True,4,['r'],True,0.5714285714285714,0.5714285714285714,0.0,0.0,2.0,0.6216097450797566,0.0,unsucc_cost,0,2,,,qh13,1,2023-02-28_10h21.05.610,threat_forest,2021.2.3,60.065074563757044,
1,0,1,0,1,0,1,0,,,,,,,,,,left,1.5995346000418067,70.65182889997959,qh13,70.65182889997959,None,59.99087619967759,63.49630289990455,True,2,['r'],True,0.5714285714285714,0.5714285714285714,0.0,0.0,2.0,0.6216097450797566,-0.4285714285714286,succ_gain,0,4,68.79955369979143,None,qh13,1,2023-02-28_10h21.05.610,threat_forest,2021.2.3,60.065074563757044,
1,0,1,0,2,0,2,0,,,,,,,,,,left,1.4749972000718117,77.5539670996368,qh13,72.28295989986509,74.2942883996293,77.5539670996368,None,False,4,['r'],False,0.46875,0.625,0.25,2.0,2.0,0.9634951148421658,0.0,wait_cost,1,3,74.2942883996293,None,qh13,1,2023-02-28_10h21.05.610,threat_forest,2021.2.3,60.065074563757044,
1,0,1,0,3,0,3,0,,,,,,,,,,left,0.7839470002800226,82.77844799961895,qh13,82.77844799961895,None,79.06295139994472,81.0712125999853,True,3,['r'],True,0.5714285714285714,0.5714285714285714,0.0,0.0,2.0,0.6216097450797566,0.0,unsucc_cost,0,1,81.0712125999853,None,qh13,1,2023-02-28_10h21.05.610,threat_forest,2021.2.3,60.065074563757044,
1,0,1,0,4,0,4,0,,,,,,,,,,right,1.3979831002652645,86.99201419996098,qh13,83.58583119977266,85.60030629998073,86.99201419996098,None,True,1,['r'],False,0.46875,0.625,0.25,2.0,2.0,0.9634951148421658,0.46875,figh_cost,1,0,85.60030629998073,None,qh13,1,2023-02-28_10h21.05.610,threat_forest,2021.2.3,60.065074563757044,
1,0,1,0,,,,,,,,,,,,,,,,,,,,,,,,,,,,,,,,,,,,90.42955689970404,None,qh13,1,2023-02-28_10h21.05.610,threat_forest,2021.2.3,60.065074563757044,
2,0,2,0,0,0,0,0,,,,,,,92.49849779997021,96.00765359960496,None,left,2.3195274001918733,99.18164689978585,qh13,92.49849779997021,96.00765359960496,99.18164689978585,None,False,5,['p'],False,0.1728395061728395,0.2222222222222222,0.2222222222222222,2.0,2.0,0.8571721972794328,0.0,wait_cost,1,4,,,qh13,1,2023-02-28_10h21.05.610,threat_forest,2021.2.3,60.065074563757044,
2,0,2,0,1,0,1,0,,,,,,,,,,left,2.141581700183451,104.4867112999782,qh13,92.49849779997021,96.00765359960496,104.4867112999782,None,False,4,['p'],False,0.1728395061728395,0.2222222222222222,0.2222222222222222,2.0,2.0,0.8571721972794328,0.0,wait_cost,1,3,103.53347979998216,None,qh13,1,2023-02-28_10h21.05.610,threat_forest,2021.2.3,60.065074563757044,
2,0,2,0,2,0,2,0,,,,,,,,,,left,1.813370999880135,109.21895339991897,qh13,109.21895339991897,None,106.64780699973926,108.66215109964833,True,3,['p'],True,0.375,0.5,0.25,1.0,2.0,0.9850568223215076,-0.25,succ_gain,0,5,108.66215109964833,None,qh13,1,2023-02-28_10h21.05.610,threat_forest,2021.2.3,60.065074563757044,
2,0,2,0,3,0,3,0,,,,,,,,,,left,1.5910923997871578,115.25169649999589,qh13,111.06016009999439,113.07463819999248,115.25169649999589,None,False,5,['p'],False,0.1728395061728395,0.2222222222222222,0.2222222222222222,2.0,2.0,0.8571721972794328,0.0,wait_cost,1,4,113.07463819999248,None,qh13,1,2023-02-28_10h21.05.610,threat_forest,2021.2.3,60.065074563757044,
2,0,2,0,4,0,4,0,,,,,,,,,,right,1.6078196000307798,120.59648259961978,qh13,120.59648259961978,None,116.87155719986185,118.88595949998125,False,4,['p'],True,0.375,0.5,0.25,1.0,2.0,0.9850568223215076,0.0,wait_cost,0,3,118.88595949998125,None,qh13,1,2023-02-28_10h21.05.610,threat_forest,2021.2.3,60.065074563757044,
2,0,2,0,5,0,5,0,,,,,,,,,,left,1.3962324000895023,127.60093860002235,qh13,122.2330285999924,124.24748629983515,127.60093860002235,None,False,3,['p'],False,0.1728395061728395,0.2222222222222222,0.2222222222222222,2.0,2.0,0.8571721972794328,-0.2222222222222222,wait_cost,1,2,124.24748629983515,None,qh13,1,2023-02-28_10h21.05.610,threat_forest,2021.2.3,60.065074563757044,
2,0,2,0,6,0,6,0,,,,,,,,,,left,1.5170121002011,132.8119165999815,qh13,122.2330285999924,124.24748629983515,132.8119165999815,None,False,2,['p'],False,0.1728395061728395,0.2222222222222222,0.2222222222222222,2.0,2.0,0.8571721972794328,-0.8271604938271605,wait_cost,1,1,131.04115829989314,None,qh13,1,2023-02-28_10h21.05.610,threat_forest,2021.2.3,60.065074563757044,
2,0,2,0,7,0,7,0,,,,,,,,,,left,1.7550943000242114,137.05751849990338,qh13,137.05751849990338,None,134.3551302999258,136.36949689965695,True,1,['p'],True,0.375,0.5,0.25,1.0,2.0,0.9850568223215076,0.375,succ_gain,0,3,136.36949689965695,None,qh13,1,2023-02-28_10h21.05.610,threat_forest,2021.2.3,60.065074563757044,
2,0,2,0,,,,,,,,,,,,,,,,,,,,,,,,,,,,,,,,,,,,140.84861749969423,None,qh13,1,2023-02-28_10h21.05.610,threat_forest,2021.2.3,60.065074563757044,
3,0,3,0,0,0,0,0,,,,,,,141.66750209964812,145.16861619986594,None,left,1.1859638998284936,146.88866299996153,qh13,146.88866299996153,None,141.66750209964812,145.16861619986594,True,4,['p'],True,0.4444444444444445,0.6666666666666666,0.3333333333333333,1.0,1.0,0.9656336071428248,0.0,figh_cost,0,1,,,qh13,1,2023-02-28_10h21.05.610,threat_forest,2021.2.3,60.065074563757044,
3,0,3,0,1,0,1,0,,,,,,,,,,left,1.6189577002078295,153.27402699971572,qh13,153.27402699971572,None,141.66750209964812,145.16861619986594,True,1,['p'],True,0.4444444444444445,0.6666666666666666,0.3333333333333333,1.0,1.0,0.9656336071428248,0.4444444444444444,unsucc_cost,0,0,150.10687209991738,None,qh13,1,2023-02-28_10h21.05.610,threat_forest,2021.2.3,60.065074563757044,
3,0,3,0,,,,,,,,,,,,,,,,,,,,,,,,,,,,,,,,,,,,156.9339154995978,None,qh13,1,2023-02-28_10h21.05.610,threat_forest,2021.2.3,60.065074563757044,
4,0,4,0,0,0,0,0,,,,,,,158.41400799993426,161.91145979985595,None,right,1.255156600382179,164.78509779972956,qh13,158.41400799993426,161.91145979985595,164.78509779972956,None,True,5,['r'],False,0.3333333333333333,0.5,0.3333333333333333,2.0,1.0,1.0,0.0,unsucc_cost,1,3,,,qh13,1,2023-02-28_10h21.05.610,threat_forest,2021.2.3,60.065074563757044,
4,0,4,0,1,0,1,0,,,,,,,,,,right,1.1102511999197304,169.80776839982718,qh13,158.41400799993426,161.91145979985595,169.80776839982718,None,True,3,['r'],False,0.3333333333333333,0.5,0.3333333333333333,2.0,1.0,1.0,-0.3333333333333333,unsucc_cost,1,1,168.0732967997901,None,qh13,1,2023-02-28_10h21.05.610,threat_forest,2021.2.3,60.065074563757044,
4,0,4,0,2,0,2,0,,,,,,,,,,right,1.4792062998749316,175.73342659976333,qh13,158.41400799993426,161.91145979985595,175.73342659976333,None,True,1,['r'],False,0.3333333333333333,0.5,0.3333333333333333,2.0,1.0,1.0,0.3333333333333332,succ_gain,1,2,172.95206459984183,None,qh13,1,2023-02-28_10h21.05.610,threat_forest,2021.2.3,60.065074563757044,
4,0,4,0,3,0,3,0,,,,,,,,,,right,2.725699200294912,180.27118429960683,qh13,180.27118429960683,None,177.23181159980595,179.24621669994667,False,2,['r'],True,0.4,0.4,0.0,0.0,1.0,0.6126016192893442,-0.6,wait_cost,0,1,179.24621669994667,None,qh13,1,2023-02-28_10h21.05.610,threat_forest,2021.2.3,60.065074563757044,
4,0,4,0,4,0,4,0,,,,,,,,,,right,2.0259313001297414,188.37495039962232,qh13,183.0154321999289,185.0241731000133,188.37495039962232,None,True,1,['r'],False,0.3333333333333333,0.5,0.3333333333333333,2.0,1.0,1.0,0.3333333333333332,succ_gain,1,2,185.0241731000133,None,qh13,1,2023-02-28_10h21.05.610,threat_forest,2021.2.3,60.065074563757044,
4,0,4,0,5,0,5,0,,,,,,,,,,right,2.232770400121808,193.39521199977025,qh13,193.39521199977025,None,190.4194534998387,192.4339752998203,False,2,['r'],True,0.4,0.4,0.0,0.0,1.0,0.6126016192893442,-0.6,wait_cost,0,1,192.4339752998203,None,qh13,1,2023-02-28_10h21.05.610,threat_forest,2021.2.3,60.065074563757044,
4,0,4,0,6,0,6,0,,,,,,,,,,left,2.0112370997667313,199.63728589983657,qh13,199.63728589983657,None,190.4194534998387,192.4339752998203,True,1,['r'],True,0.4,0.4,0.0,0.0,1.0,0.6126016192893442,0.4,unsucc_cost,0,0,197.6624171999283,None,qh13,1,2023-02-28_10h21.05.610,threat_forest,2021.2.3,60.065074563757044,
4,0,4,0,,,,,,,,,,,,,,,,,,,,,,,,,,,,,,,,,,,,203.69004429969937,None,qh13,1,2023-02-28_10h21.05.610,threat_forest,2021.2.3,60.065074563757044,
5,0,5,0,0,0,0,0,,,,,,,205.15173809975386,208.65503179980442,None,right,1.4397460999898612,210.79335169959813,qh13,205.15173809975386,208.65503179980442,210.79335169959813,None,True,4,['r'],False,0.46875,0.625,0.25,2.0,2.0,0.9634951148421658,0.0,unsucc_cost,1,2,,,qh13,1,2023-02-28_10h21.05.610,threat_forest,2021.2.3,60.065074563757044,
5,0,5,0,1,0,1,0,,,,,,,,,,right,2.750104600097984,214.9750827997923,qh13,214.9750827997923,None,212.26542499987409,214.27993429964408,False,2,['r'],True,0.6,0.6,0.0,0.0,2.0,0.6126016192893442,-0.4,wait_cost,0,1,214.27993429964408,None,qh13,1,2023-02-28_10h21.05.610,threat_forest,2021.2.3,60.065074563757044,
5,0,5,0,2,0,2,0,,,,,,,,,,left,1.7923169997520745,223.16019179997966,qh13,223.16019179997966,None,212.26542499987409,214.27993429964408,True,1,['r'],True,0.6,0.6,0.0,0.0,2.0,0.6126016192893442,0.6,unsucc_cost,0,0,219.7581603997387,None,qh13,1,2023-02-28_10h21.05.610,threat_forest,2021.2.3,60.065074563757044,
5,0,5,0,,,,,,,,,,,,,,,,,,,,,,,,,,,,,,,,,,,,226.98471119999886,None,qh13,1,2023-02-28_10h21.05.610,threat_forest,2021.2.3,60.065074563757044,
6,0,6,0,0,0,0,0,,,,,,,229.65299709979445,233.14729660004377,None,left,1.948574900161475,233.85806699981913,qh13,233.85806699981913,None,229.65299709979445,233.14729660004377,True,4,['r'],True,0.4,0.4,0.0,0.0,2.0,0.6126016192893442,0.0,figh_cost,0,1,,,qh13,1,2023-02-28_10h21.05.610,threat_forest,2021.2.3,60.065074563757044,
6,0,6,0,1,0,1,0,,,,,,,,,,right,1.807616800069809,239.34604940004647,qh13,235.82668579975143,237.84111379971728,239.34604940004647,None,True,1,['r'],False,0.3061224489795918,0.4285714285714285,0.2857142857142857,2.0,2.0,0.9885754083994552,0.3061224489795917,unsucc_cost,1,0,237.84111379971728,None,qh13,1,2023-02-28_10h21.05.610,threat_forest,2021.2.3,60.065074563757044,
6,0,6,0,,,,,,,,,,,,,,,,,,,,,,,,,,,,,,,,,,,,243.18618499999866,None,qh13,1,2023-02-28_10h21.05.610,threat_forest,2021.2.3,60.065074563757044,
7,0,7,0,0,0,0,0,,,,,,,245.8205564999953,249.31592019973323,None,left,1.5372533001936972,251.9072925997898,qh13,251.9072925997898,None,245.8205564999953,249.31592019973323,True,4,['r'],True,0.6,0.6,0.0,0.0,1.0,0.6126016192893442,0.0,succ_gain,0,5,,,qh13,1,2023-02-28_10h21.05.610,threat_forest,2021.2.3,60.065074563757044,
7,0,7,0,1,0,1,0,,,,,,,,,,left,2.4539502998813987,257.41863540001214,qh13,253.4771044999361,255.49152299994603,257.41863540001214,None,False,5,['r'],False,0.46875,0.625,0.25,2.0,1.0,0.9634951148421658,0.0,wait_cost,1,4,255.49152299994603,None,qh13,1,2023-02-28_10h21.05.610,threat_forest,2021.2.3,60.065074563757044,
7,0,7,0,2,0,2,0,,,,,,,,,,left,2.3429287001490593,265.36974459979683,qh13,253.4771044999361,255.49152299994603,265.36974459979683,None,False,4,['r'],False,0.46875,0.625,0.25,2.0,1.0,0.9634951148421658,0.0,wait_cost,1,3,261.919137599878,None,qh13,1,2023-02-28_10h21.05.610,threat_forest,2021.2.3,60.065074563757044,
7,0,7,0,3,0,3,0,,,,,,,,,,left,1.2232825001701713,270.3848321996629,qh13,270.3848321996629,None,267.7304075998254,269.74465399980545,True,3,['r'],True,0.6,0.6,0.0,0.0,1.0,0.6126016192893442,0.0,succ_gain,0,4,269.74465399980545,None,qh13,1,2023-02-28_10h21.05.610,threat_forest,2021.2.3,60.065074563757044,
7,0,7,0,4,0,4,0,,,,,,,,,,left,1.5724574998021126,276.1698100999929,qh13,271.62655469961464,273.64104350004345,276.1698100999929,None,False,4,['r'],False,0.46875,0.625,0.25,2.0,1.0,0.9634951148421658,0.0,wait_cost,1,3,273.64104350004345,None,qh13,1,2023-02-28_10h21.05.610,threat_forest,2021.2.3,60.065074563757044,
7,0,7,0,5,0,5,0,,,,,,,,,,left,1.2369438000023365,283.5223967996426,qh13,283.5223967996426,None,277.7710108999163,279.78539289999753,True,3,['r'],True,0.6,0.6,0.0,0.0,1.0,0.6126016192893442,0.0,succ_gain,0,4,279.78539289999753,None,qh13,1,2023-02-28_10h21.05.610,threat_forest,2021.2.3,60.065074563757044,
7,0,7,0,6,0,6,0,,,,,,,,,,left,1.1996696996502578,289.19561259960756,qh13,289.19561259960756,None,277.7710108999163,279.78539289999753,True,4,['r'],True,0.6,0.6,0.0,0.0,1.0,0.6126016192893442,0.0,succ_gain,0,5,286.7954037999734,None,qh13,1,2023-02-28_10h21.05.610,threat_forest,2021.2.3,60.065074563757044,
7,0,7,0,7,0,7,0,,,,,,,,,,left,1.0552508002147079,295.21003929991275,qh13,295.21003929991275,None,277.7710108999163,279.78539289999753,True,5,['r'],True,0.6,0.6,0.0,0.0,1.0,0.6126016192893442,0.0,succ_gain,0,6,292.44007600005716,None,qh13,1,2023-02-28_10h21.05.610,threat_forest,2021.2.3,60.065074563757044,
7,0,7,0,,,,,,,,,,,,,,,,,,,,,,,,,,,,,,,,,,,,298.3012848999351,None,qh13,1,2023-02-28_10h21.05.610,threat_forest,2021.2.3,60.065074563757044,
8,0,8,0,0,0,0,0,,,,,,,301.53711819974706,305.0450919000432,None,left,1.2820913000032306,308.4190152999945,qh13,308.4190152999945,None,301.53711819974706,305.0450919000432,True,4,['r'],True,0.25,0.25,0.0,0.0,2.0,0.5118595071429148,0.0,unsucc_cost,0,2,,,qh13,1,2023-02-28_10h21.05.610,threat_forest,2021.2.3,60.065074563757044,
8,0,8,0,1,0,1,0,,,,,,,,,,right,2.380381300114095,315.23574330005795,qh13,315.23574330005795,None,301.53711819974706,305.0450919000432,False,2,['r'],True,0.25,0.25,0.0,0.0,2.0,0.5118595071429148,-0.75,wait_cost,0,1,311.7386457999237,None,qh13,1,2023-02-28_10h21.05.610,threat_forest,2021.2.3,60.065074563757044,
8,0,8,0,2,0,2,0,,,,,,,,,,right,1.242821500170976,322.3729610997252,qh13,317.6336286999285,319.64800519961864,322.3729610997252,None,True,1,['r'],False,0.2040816326530612,0.2857142857142857,0.2857142857142857,2.0,2.0,0.9335459102197724,0.2040816326530612,unsucc_cost,1,0,319.64800519961864,None,qh13,1,2023-02-28_10h21.05.610,threat_forest,2021.2.3,60.065074563757044,
8,0,8,0,,,,,,,,,,,,,,,,,,,,,,,,,,,,,,,,,,,,325.659282699693,None,qh13,1,2023-02-28_10h21.05.610,threat_forest,2021.2.3,60.065074563757044,
9,0,9,0,0,0,0,0,,,,,,,326.54128269990906,330.04281539982185,None,right,2.0672048004344106,333.3434416996315,qh13,326.54128269990906,330.04281539982185,333.3434416996315,None,True,5,['p'],False,0.18,0.2,0.1,1.0,2.0,0.7058405977926203,0.0,succ_gain,1,6,,,qh13,1,2023-02-28_10h21.05.610,threat_forest,2021.2.3,60.065074563757044,
9,0,9,0,1,0,1,0,,,,,,,,,,right,2.209077099803835,338.42826689966023,qh13,338.42826689966023,None,335.433566799853,337.44815699988976,False,6,['p'],True,0.4444444444444445,0.6666666666666666,0.3333333333333333,1.0,2.0,0.9656336071428248,0.0,wait_cost,0,5,337.44815699988976,None,qh13,1,2023-02-28_10h21.05.610,threat_forest,2021.2.3,60.065074563757044,
9,0,9,0,2,0,2,0,,,,,,,,,,right,1.6705706003122032,344.8467469997704,qh13,344.8467469997704,None,335.433566799853,337.44815699988976,False,5,['p'],True,0.4444444444444445,0.6666666666666666,0.3333333333333333,1.0,2.0,0.9656336071428248,0.0,wait_cost,0,4,342.6767189996317,None,qh13,1,2023-02-28_10h21.05.610,threat_forest,2021.2.3,60.065074563757044,
9,0,9,0,3,0,3,0,,,,,,,,,,right,1.1508097001351416,351.42584449984133,qh13,346.54012639960274,348.55454989988357,351.42584449984133,None,True,4,['p'],False,0.18,0.2,0.1,1.0,2.0,0.7058405977926203,0.0,unsucc_cost,1,2,348.55454989988357,None,qh13,1,2023-02-28_10h21.05.610,threat_forest,2021.2.3,60.065074563757044,
9,0,9,0,4,0,4,0,,,,,,,,,,right,2.2936375001445413,355.5843916996382,qh13,346.54012639960274,348.55454989988357,355.5843916996382,None,True,2,['p'],False,0.18,0.2,0.1,1.0,2.0,0.7058405977926203,-0.8200000000000001,unsucc_cost,1,0,354.6154238996096,None,qh13,1,2023-02-28_10h21.05.610,threat_forest,2021.2.3,60.065074563757044,
9,0,9,0,,,,,,,,,,,,,,,,,,,,,,,,,,,,,,,,,,,,359.9105491996743,None,qh13,1,2023-02-28_10h21.05.610,threat_forest,2021.2.3,60.065074563757044,
10,0,10,0,0,0,0,0,,,,,,,363.5842017997056,367.07877129968256,None,left,1.6395525000989437,368.99579569976777,qh13,363.5842017997056,367.07877129968256,368.99579569976777,None,False,4,['r'],False,0.25,0.5,0.5,2.0,1.0,0.9463946303571862,0.0,wait_cost,1,3,,,qh13,1,2023-02-28_10h21.05.610,threat_forest,2021.2.3,60.065074563757044,
10,0,10,0,1,0,1,0,,,,,,,,,,left,1.6949546998366714,373.83286239998415,qh13,363.5842017997056,367.07877129968256,373.83286239998415,None,False,3,['r'],False,0.25,0.5,0.5,2.0,1.0,0.9463946303571862,-0.5,wait_cost,1,2,372.6818071999587,None,qh13,1,2023-02-28_10h21.05.610,threat_forest,2021.2.3,60.065074563757044,
10,0,10,0,2,0,2,0,,,,,,,,,,left,1.4980869004502892,378.463149999734,qh13,363.5842017997056,367.07877129968256,378.463149999734,None,False,2,['r'],False,0.25,0.5,0.5,2.0,1.0,0.9463946303571862,-0.75,wait_cost,1,1,377.5606967997737,None,qh13,1,2023-02-28_10h21.05.610,threat_forest,2021.2.3,60.065074563757044,
10,0,10,0,3,0,3,0,,,,,,,,,,right,1.408312600106001,384.8718260996975,qh13,363.5842017997056,367.07877129968256,384.8718260996975,None,True,1,['r'],False,0.25,0.5,0.5,2.0,1.0,0.9463946303571862,0.25,unsucc_cost,1,0,382.0065981997177,None,qh13,1,2023-02-28_10h21.05.610,threat_forest,2021.2.3,60.065074563757044,
10,0,10,0,,,,,,,,,,,,,,,,,,,,,,,,,,,,,,,,,,,,388.317399200052,None,qh13,1,2023-02-28_10h21.05.610,threat_forest,2021.2.3,60.065074563757044,
11,0,11,0,0,0,0,0,,,,,,,389.46766959968954,392.9698657998815,None,right,2.5073871999047697,396.57099130004644,qh13,396.57099130004644,None,389.46766959968954,392.9698657998815,False,4,['p'],True,0.375,0.5,0.25,1.0,2.0,0.9850568223215076,0.0,wait_cost,0,3,,,qh13,1,2023-02-28_10h21.05.610,threat_forest,2021.2.3,60.065074563757044,
11,0,11,0,1,0,1,0,,,,,,,,,,right,1.386232300195843,402.11527139972895,qh13,399.1074993996881,401.1216503996402,402.11527139972895,None,True,3,['p'],False,0.2448979591836734,0.2857142857142857,0.1428571428571428,1.0,2.0,0.8400769154957735,-0.1428571428571428,unsucc_cost,1,1,401.1216503996402,None,qh13,1,2023-02-28_10h21.05.610,threat_forest,2021.2.3,60.065074563757044,
11,0,11,0,2,0,2,0,,,,,,,,,,left,1.4536822000518441,408.5572223998606,qh13,408.5572223998606,None,403.5197435999289,405.5342401997186,True,1,['p'],True,0.375,0.5,0.25,1.0,2.0,0.9850568223215076,0.375,unsucc_cost,0,0,405.5342401997186,None,qh13,1,2023-02-28_10h21.05.610,threat_forest,2021.2.3,60.065074563757044,
11,0,11,0,,,,,,,,,,,,,,,,,,,,,,,,,,,,,,,,,,,,412.0450629000552,None,qh13,1,2023-02-28_10h21.05.610,threat_forest,2021.2.3,60.065074563757044,
12,0,12,0,0,0,0,0,,,,,,,413.6406605998054,417.13998400000855,None,left,0.7951075998134911,417.94797550002113,qh13,417.94797550002113,None,413.6406605998054,417.13998400000855,True,4,['r'],True,0.5,0.5,0.0,0.0,2.0,0.6309297535714574,0.0,unsucc_cost,0,2,,,qh13,1,2023-02-28_10h21.05.610,threat_forest,2021.2.3,60.065074563757044,
12,0,12,0,1,0,1,0,,,,,,,,,,right,1.4832015000283718,422.3418376999907,qh13,418.7721622996032,420.7866736999713,422.3418376999907,None,True,2,['r'],False,0.36,0.6,0.4,2.0,2.0,0.9801625908629508,-0.64,figh_cost,1,0,420.7866736999713,None,qh13,1,2023-02-28_10h21.05.610,threat_forest,2021.2.3,60.065074563757044,
12,0,12,0,,,,,,,,,,,,,,,,,,,,,,,,,,,,,,,,,,,,425.8652895996347,None,qh13,1,2023-02-28_10h21.05.610,threat_forest,2021.2.3,60.065074563757044,
13,0,13,0,0,0,0,0,,,,,,,426.823285699822,430.32197909988463,None,left,2.50485169980675,433.9187082997523,qh13,433.9187082997523,None,426.823285699822,430.32197909988463,True,4,['r'],True,0.2857142857142857,0.2857142857142857,0.0,0.0,2.0,0.5445684476282007,0.0,unsucc_cost,0,2,,,qh13,1,2023-02-28_10h21.05.610,threat_forest,2021.2.3,60.065074563757044,
13,0,13,0,1,0,1,0,,,,,,,,,,right,1.9001100999303162,440.09551299968734,qh13,436.4556371998042,438.47012129984796,440.09551299968734,None,True,2,['r'],False,0.24,0.3,0.2,2.0,2.0,0.9003120349047065,-0.76,unsucc_cost,1,0,438.47012129984796,None,qh13,1,2023-02-28_10h21.05.610,threat_forest,2021.2.3,60.065074563757044,
13,0,13,0,,,,,,,,,,,,,,,,,,,,,,,,,,,,,,,,,,,,444.03157609980553,None,qh13,1,2023-02-28_10h21.05.610,threat_forest,2021.2.3,60.065074563757044,
14,0,14,0,0,0,0,0,,,,,,,444.63146149972454,448.1382122999057,None,left,1.4149969001300633,449.08886109991,qh13,444.63146149972454,448.1382122999057,449.08886109991,None,False,5,['r'],False,0.2040816326530612,0.2857142857142857,0.2857142857142857,2.0,1.0,0.9335459102197724,0.0,wait_cost,1,4,,,qh13,1,2023-02-28_10h21.05.610,threat_forest,2021.2.3,60.065074563757044,
14,0,14,0,1,0,1,0,,,,,,,,,,None,,454.59773939987645,qh13,454.59773939987645,None,450.52595829963684,452.5404417999089,None,4,['r'],True,0.25,0.25,0.0,0.0,1.0,0.5118595071429148,0.0,wait_cost,0,3,452.5404417999089,None,qh13,1,2023-02-28_10h21.05.610,threat_forest,2021.2.3,60.065074563757044,
14,0,14,0,2,0,2,0,,,,,,,,,,right,1.442200000397861,460.72794279968366,qh13,457.6026983000338,459.617177200038,460.72794279968366,None,True,3,['r'],False,0.2040816326530612,0.2857142857142857,0.2857142857142857,2.0,1.0,0.9335459102197724,-0.2857142857142857,unsucc_cost,1,1,459.617177200038,None,qh13,1,2023-02-28_10h21.05.610,threat_forest,2021.2.3,60.065074563757044,
14,0,14,0,3,0,3,0,,,,,,,,,,left,1.5491460002958775,465.53394649969414,qh13,465.53394649969414,None,462.1985506997444,464.21284849988297,True,1,['r'],True,0.25,0.25,0.0,0.0,1.0,0.5118595071429148,0.25,unsucc_cost,0,0,464.21284849988297,None,qh13,1,2023-02-28_10h21.05.610,threat_forest,2021.2.3,60.065074563757044,
14,0,14,0,,,,,,,,,,,,,,,,,,,,,,,,,,,,,,,,,,,,469.1251693996601,None,qh13,1,2023-02-28_10h21.05.610,threat_forest,2021.2.3,60.065074563757044,
15,0,15,0,0,0,0,0,,,,,,,470.834279099945,474.3366832998581,None,right,1.5707444003783166,475.97196529991925,qh13,470.834279099945,474.3366832998581,475.97196529991925,None,True,4,['r'],False,0.2222222222222222,0.6666666666666666,0.6666666666666666,2.0,2.0,0.77250688571426,0.0,figh_cost,1,1,,,qh13,1,2023-02-28_10h21.05.610,threat_forest,2021.2.3,60.065074563757044,
15,0,15,0,1,0,1,0,,,,,,,,,,left,0.7837300002574921,482.200858599972,qh13,482.200858599972,None,477.5673630000092,479.58183909999207,True,1,['r'],True,0.25,0.25,0.0,0.0,2.0,0.5118595071429148,0.25,succ_gain,0,3,479.58183909999207,None,qh13,1,2023-02-28_10h21.05.610,threat_forest,2021.2.3,60.065074563757044,
15,0,15,0,2,0,2,0,,,,,,,,,,right,1.4111210000701249,486.1674925996922,qh13,483.0121573000215,485.0267385998741,486.1674925996922,None,True,3,['r'],False,0.2222222222222222,0.6666666666666666,0.6666666666666666,2.0,2.0,0.77250688571426,-0.6666666666666666,figh_cost,1,0,485.0267385998741,None,qh13,1,2023-02-28_10h21.05.610,threat_forest,2021.2.3,60.065074563757044,
15,0,15,0,,,,,,,,,,,,,,,,,,,,,,,,,,,,,,,,,,,,489.6225652997382,None,qh13,1,2023-02-28_10h21.05.610,threat_forest,2021.2.3,60.065074563757044,
16,0,16,0,0,0,0,0,,,,,,,492.68654849985614,496.19412239966914,None,left,1.4997315998189151,499.9602226000279,qh13,499.9602226000279,None,492.68654849985614,496.19412239966914,True,5,['p'],True,0.375,0.5,0.25,1.0,1.0,0.9850568223215076,0.0,succ_gain,0,6,,,qh13,1,2023-02-28_10h21.05.610,threat_forest,2021.2.3,60.065074563757044,
16,0,16,0,1,0,1,0,,,,,,,,,,right,1.861005799844861,505.584542399738,qh13,501.48126539960504,503.4760324000381,505.584542399738,None,True,6,['p'],False,0.24,0.3,0.2,2.0,1.0,0.9003120349047065,0.0,succ_gain,1,6,503.4760324000381,None,qh13,1,2023-02-28_10h21.05.610,threat_forest,2021.2.3,60.065074563757044,
16,0,16,0,2,0,2,0,,,,,,,,,,right,2.04033189965412,510.9563467996195,qh13,510.9563467996195,None,507.4727596999146,509.48726249998435,False,6,['p'],True,0.375,0.5,0.25,1.0,1.0,0.9850568223215076,0.0,wait_cost,0,5,509.48726249998435,None,qh13,1,2023-02-28_10h21.05.610,threat_forest,2021.2.3,60.065074563757044,
16,0,16,0,3,0,3,0,,,,,,,,,,right,0.9593235002830625,515.7386097996496,qh13,513.0177312996238,515.0320763997734,515.7386097996496,None,True,5,['p'],False,0.24,0.3,0.2,2.0,1.0,0.9003120349047065,0.0,unsucc_cost,1,3,515.0320763997734,None,qh13,1,2023-02-28_10h21.05.610,threat_forest,2021.2.3,60.065074563757044,
16,0,16,0,4,0,4,0,,,,,,,,,,right,1.0972242001444101,522.0648125996813,qh13,513.0177312996238,515.0320763997734,522.0648125996813,None,True,3,['p'],False,0.24,0.3,0.2,2.0,1.0,0.9003120349047065,-0.2,unsucc_cost,1,1,518.7451927997172,None,qh13,1,2023-02-28_10h21.05.610,threat_forest,2021.2.3,60.065074563757044,
16,0,16,0,5,0,5,0,,,,,,,,,,left,2.0116955996491015,527.3152171997353,qh13,527.3152171997353,None,523.1912868996151,525.2058456996456,True,1,['p'],True,0.375,0.5,0.25,1.0,1.0,0.9850568223215076,0.375,unsucc_cost,0,0,525.2058456996456,None,qh13,1,2023-02-28_10h21.05.610,threat_forest,2021.2.3,60.065074563757044,
16,0,16,0,,,,,,,,,,,,,,,,,,,,,,,,,,,,,,,,,,,,531.3666078997776,None,qh13,1,2023-02-28_10h21.05.610,threat_forest,2021.2.3,60.065074563757044,
17,0,17,0,0,0,0,0,,,,,,,532.7901332997717,536.2821082998998,None,left,1.6019814000464976,537.4805189999752,qh13,537.4805189999752,None,532.7901332997717,536.2821082998998,True,5,['p'],True,0.2222222222222222,0.3333333333333333,0.3333333333333333,2.0,2.0,0.9656336071428248,0.0,unsucc_cost,0,3,,,qh13,1,2023-02-28_10h21.05.610,threat_forest,2021.2.3,60.065074563757044,
17,0,17,0,1,0,1,0,,,,,,,,,,left,1.5908657000400126,544.1946425996721,qh13,544.1946425996721,None,532.7901332997717,536.2821082998998,True,3,['p'],True,0.2222222222222222,0.3333333333333333,0.3333333333333333,2.0,2.0,0.9656336071428248,-0.3333333333333333,figh_cost,0,0,541.1241405997425,None,qh13,1,2023-02-28_10h21.05.610,threat_forest,2021.2.3,60.065074563757044,
17,0,17,0,,,,,,,,,,,,,,,,,,,,,,,,,,,,,,,,,,,,547.8181121996604,None,qh13,1,2023-02-28_10h21.05.610,threat_forest,2021.2.3,60.065074563757044,
