miniblock.thisRepN,miniblock.thisTrialN,miniblock.thisN,miniblock.thisIndex,day.thisRepN,day.thisTrialN,day.thisN,day.thisIndex,welcoming.started,welcoming.stopped,key_resp_2.keys,key_resp_2.rt,key_resp_2.started,key_resp_2.stopped,forest.started,fixation_forest.started,fixation_forest.stopped,key_resp.keys,key_resp.rt,key_resp.started,Subject_ID,weather_left.started,weather_left.stopped,weather_right.started,weather_right.stopped,foraging T/F,in_LP,p/r heuristic,good_weather.T/F,p_succ_correct,p_succ_uncorrected,r_threat,n_oponents,gain_if_succ,weather_entropy,OP_value_difference,action_outcome,forest_side_L=0_R=1,out_LP,fixation_day.started,fixation_day.stopped,n_day-1.out_LP.,participant,session,date,expName,psychopyVersion,frameRate,
,,,,,,,,10.957763600163162,None,space,7.502539899898693,10.957763600163162,None,,,,,,,,,,,,,,,,,,,,,,,,,,,,,iz8,2,2022-04-21_11h42.20.437,threat_forest,2021.2.3,60.012266544794215,
0,0,0,0,0,0,0,0,,,,,,,18.514010700164363,22.015705400146544,None,right,0.9432210999075323,22.99287600000389,iz8,18.514010700164363,22.015705400146544,22.99287600000389,None,True,5,['p'],False,0.2222222222222222,0.6666666666666666,0.6666666666666666,2.0,1.0,0.77250688571426,0.0,succ_gain,1,6,,,,iz8,2,2022-04-21_11h42.20.437,threat_forest,2021.2.3,60.012266544794215,
0,0,0,0,1,0,1,0,,,,,,,,,,left,0.4072920000180602,27.982439400162548,iz8,18.514010700164363,22.015705400146544,27.982439400162548,None,False,6,['p'],False,0.2222222222222222,0.6666666666666666,0.6666666666666666,2.0,1.0,0.77250688571426,0.0,wait_cost,1,5,25.965699300169945,None,6,iz8,2,2022-04-21_11h42.20.437,threat_forest,2021.2.3,60.012266544794215,
0,0,0,0,2,0,2,0,,,,,,,,,,left,1.4644934998359531,33.98235320020467,iz8,18.514010700164363,22.015705400146544,33.98235320020467,None,False,5,['p'],False,0.2222222222222222,0.6666666666666666,0.6666666666666666,2.0,1.0,0.77250688571426,0.0,wait_cost,1,4,30.415432000067085,None,5,iz8,2,2022-04-21_11h42.20.437,threat_forest,2021.2.3,60.012266544794215,
0,0,0,0,3,0,3,0,,,,,,,,,,right,0.6948277000337839,39.69949270016514,iz8,18.514010700164363,22.015705400146544,39.69949270016514,None,True,4,['p'],False,0.2222222222222222,0.6666666666666666,0.6666666666666666,2.0,1.0,0.77250688571426,0.0,succ_gain,1,5,37.46559250005521,None,4,iz8,2,2022-04-21_11h42.20.437,threat_forest,2021.2.3,60.012266544794215,
0,0,0,0,4,0,4,0,,,,,,,,,,right,0.9311975000891834,45.91688899998553,iz8,45.91688899998553,None,40.416076900204644,42.41569500020705,False,5,['p'],True,0.5,0.5,0.0,0.0,1.0,0.6309297535714574,0.0,wait_cost,0,4,42.41569500020705,None,5,iz8,2,2022-04-21_11h42.20.437,threat_forest,2021.2.3,60.012266544794215,
0,0,0,0,5,0,5,0,,,,,,,,,,right,0.9879748001694679,49.415936400182545,iz8,49.415936400182545,None,40.416076900204644,42.41569500020705,False,4,['p'],True,0.5,0.5,0.0,0.0,1.0,0.6309297535714574,0.0,wait_cost,0,3,48.86575310002081,None,4,iz8,2,2022-04-21_11h42.20.437,threat_forest,2021.2.3,60.012266544794215,
0,0,0,0,6,0,6,0,,,,,,,,,,right,0.9826106000691652,54.9831383000128,iz8,50.4326153001748,52.43263990012929,54.9831383000128,None,True,3,['p'],False,0.2222222222222222,0.6666666666666666,0.6666666666666666,2.0,1.0,0.77250688571426,-0.6666666666666666,succ_gain,1,4,52.43263990012929,None,3,iz8,2,2022-04-21_11h42.20.437,threat_forest,2021.2.3,60.012266544794215,
0,0,0,0,7,0,7,0,,,,,,,,,,right,0.5331053000409156,58.88309979997575,iz8,58.88309979997575,None,55.983171000145376,57.98255060007796,False,4,['p'],True,0.5,0.5,0.0,0.0,1.0,0.6309297535714574,0.0,wait_cost,0,3,57.98255060007796,None,4,iz8,2,2022-04-21_11h42.20.437,threat_forest,2021.2.3,60.012266544794215,
0,0,0,0,,,,,,,,,,,,,,,,,,,,,,,,,,,,,,,,,,,,61.432582000037655,None,3,iz8,2,2022-04-21_11h42.20.437,threat_forest,2021.2.3,60.012266544794215,
1,0,1,0,0,0,0,0,,,,,,,63.51205840008333,67.01642150012776,None,left,0.7615443000104278,69.01813690015115,iz8,69.01813690015115,None,63.51205840008333,67.01642150012776,True,4,['p'],True,0.4444444444444445,0.6666666666666666,0.3333333333333333,1.0,2.0,0.9656336071428248,0.0,unsucc_cost,0,2,,,,iz8,2,2022-04-21_11h42.20.437,threat_forest,2021.2.3,60.012266544794215,
1,0,1,0,1,0,1,0,,,,,,,,,,right,1.2683568000793457,74.79978900006972,iz8,69.7999081001617,71.79942540009506,74.79978900006972,None,True,2,['p'],False,0.18,0.2,0.1,1.0,2.0,0.7058405977926203,-0.8200000000000001,succ_gain,1,4,71.79942540009506,None,2,iz8,2,2022-04-21_11h42.20.437,threat_forest,2021.2.3,60.012266544794215,
1,0,1,0,2,0,2,0,,,,,,,,,,right,0.5071922999341041,80.13406609999947,iz8,80.13406609999947,None,76.09974270011298,78.09949810011312,False,4,['p'],True,0.4444444444444445,0.6666666666666666,0.3333333333333333,1.0,2.0,0.9656336071428248,0.0,wait_cost,0,3,78.09949810011312,None,4,iz8,2,2022-04-21_11h42.20.437,threat_forest,2021.2.3,60.012266544794215,
1,0,1,0,3,0,3,0,,,,,,,,,,right,1.4661307001952082,83.40015710005537,iz8,83.40015710005537,None,76.09974270011298,78.09949810011312,False,3,['p'],True,0.4444444444444445,0.6666666666666666,0.3333333333333333,1.0,2.0,0.9656336071428248,-0.3333333333333333,wait_cost,0,2,82.66616140003316,None,3,iz8,2,2022-04-21_11h42.20.437,threat_forest,2021.2.3,60.012266544794215,
1,0,1,0,4,0,4,0,,,,,,,,,,right,1.047121600015089,88.2668434001971,iz8,84.88322690012865,86.88295660004951,88.2668434001971,None,True,2,['p'],False,0.18,0.2,0.1,1.0,2.0,0.7058405977926203,-0.8200000000000001,fight_cost,1,0,86.88295660004951,None,2,iz8,2,2022-04-21_11h42.20.437,threat_forest,2021.2.3,60.012266544794215,
1,0,1,0,,,,,,,,,,,,,,,,,,,,,,,,,,,,,,,,,,,,91.33381710015237,None,0,iz8,2,2022-04-21_11h42.20.437,threat_forest,2021.2.3,60.012266544794215,
2,0,2,0,0,0,0,0,,,,,,,93.97491009999067,97.48309070011601,None,left,1.1653728000819683,100.167941900203,iz8,100.167941900203,None,93.97491009999067,97.48309070011601,True,4,['r'],True,0.5555555555555556,0.6666666666666666,0.1666666666666666,1.0,2.0,0.8929352898779306,0.0,succ_gain,0,6,,,,iz8,2,2022-04-21_11h42.20.437,threat_forest,2021.2.3,60.012266544794215,
2,0,2,0,1,0,1,0,,,,,,,,,,left,1.2202619998715818,106.6671327999793,iz8,101.3520043999888,103.3665542001836,106.6671327999793,None,False,6,['r'],False,0.3950617283950617,0.4444444444444444,0.1111111111111111,1.0,2.0,0.8733423231021583,0.0,wait_cost,1,5,103.3665542001836,None,6,iz8,2,2022-04-21_11h42.20.437,threat_forest,2021.2.3,60.012266544794215,
2,0,2,0,2,0,2,0,,,,,,,,,,left,1.1526694998610765,112.0003502999898,iz8,101.3520043999888,103.3665542001836,112.0003502999898,None,False,5,['r'],False,0.3950617283950617,0.4444444444444444,0.1111111111111111,1.0,2.0,0.8733423231021583,0.0,wait_cost,1,4,109.9166834000498,None,5,iz8,2,2022-04-21_11h42.20.437,threat_forest,2021.2.3,60.012266544794215,
2,0,2,0,3,0,3,0,,,,,,,,,,right,0.6286552001256496,116.73365930002183,iz8,101.3520043999888,103.3665542001836,116.73365930002183,None,True,4,['r'],False,0.3950617283950617,0.4444444444444444,0.1111111111111111,1.0,2.0,0.8733423231021583,0.0,fight_cost,1,1,115.20009570010006,None,4,iz8,2,2022-04-21_11h42.20.437,threat_forest,2021.2.3,60.012266544794215,
2,0,2,0,4,0,4,0,,,,,,,,,,left,1.1891203001141548,120.96765910019167,iz8,120.96765910019167,None,117.38384710019454,119.38345149997622,True,1,['r'],True,0.5555555555555556,0.6666666666666666,0.1666666666666666,1.0,2.0,0.8929352898779306,0.5555555555555556,succ_gain,0,3,119.38345149997622,None,1,iz8,2,2022-04-21_11h42.20.437,threat_forest,2021.2.3,60.012266544794215,
2,0,2,0,5,0,5,0,,,,,,,,,,right,1.4641747998539358,126.31766490009613,iz8,126.31766490009613,None,117.38384710019454,119.38345149997622,False,3,['r'],True,0.5555555555555556,0.6666666666666666,0.1666666666666666,1.0,2.0,0.8929352898779306,-0.1666666666666666,wait_cost,0,2,124.18353610020131,None,3,iz8,2,2022-04-21_11h42.20.437,threat_forest,2021.2.3,60.012266544794215,
2,0,2,0,6,0,6,0,,,,,,,,,,left,1.0724990000016987,131.501237800112,iz8,131.501237800112,None,117.38384710019454,119.38345149997622,True,2,['r'],True,0.5555555555555556,0.6666666666666666,0.1666666666666666,1.0,2.0,0.8929352898779306,-0.4444444444444444,unsucc_cost,0,0,129.8002923000604,None,2,iz8,2,2022-04-21_11h42.20.437,threat_forest,2021.2.3,60.012266544794215,
2,0,2,0,,,,,,,,,,,,,,,,,,,,,,,,,,,,,,,,,,,,134.6003903001547,None,0,iz8,2,2022-04-21_11h42.20.437,threat_forest,2021.2.3,60.012266544794215,
3,0,3,0,0,0,0,0,,,,,,,136.59182620001957,140.10042580007575,None,right,0.7688708000350744,141.78418459999375,iz8,136.59182620001957,140.10042580007575,141.78418459999375,None,True,4,['r'],False,0.18,0.2,0.1,1.0,1.0,0.7058405977926203,0.0,succ_gain,1,5,,,,iz8,2,2022-04-21_11h42.20.437,threat_forest,2021.2.3,60.012266544794215,
3,0,3,0,1,0,1,0,,,,,,,,,,right,1.158459500176832,145.1701175000053,iz8,145.1701175000053,None,142.5842892001383,144.58381920005195,False,5,['r'],True,0.375,0.5,0.25,1.0,1.0,0.9850568223215076,0.0,wait_cost,0,4,144.58381920005195,None,5,iz8,2,2022-04-21_11h42.20.437,threat_forest,2021.2.3,60.012266544794215,
3,0,3,0,2,0,2,0,,,,,,,,,,right,0.820884000044316,150.7344832001254,iz8,150.7344832001254,None,142.5842892001383,144.58381920005195,False,4,['r'],True,0.375,0.5,0.25,1.0,1.0,0.9850568223215076,0.0,wait_cost,0,3,148.3505931000691,None,4,iz8,2,2022-04-21_11h42.20.437,threat_forest,2021.2.3,60.012266544794215,
3,0,3,0,3,0,3,0,,,,,,,,,,right,0.4622881000395864,155.80114570003934,iz8,155.80114570003934,None,142.5842892001383,144.58381920005195,False,3,['r'],True,0.375,0.5,0.25,1.0,1.0,0.9850568223215076,-0.25,wait_cost,0,2,153.58399579999968,None,3,iz8,2,2022-04-21_11h42.20.437,threat_forest,2021.2.3,60.012266544794215,
3,0,3,0,4,0,4,0,,,,,,,,,,right,0.9111775001510978,161.1676754001528,iz8,161.1676754001528,None,142.5842892001383,144.58381920005195,False,2,['r'],True,0.375,0.5,0.25,1.0,1.0,0.9850568223215076,-0.625,wait_cost,0,1,158.28404190018773,None,2,iz8,2,2022-04-21_11h42.20.437,threat_forest,2021.2.3,60.012266544794215,
3,0,3,0,5,0,5,0,,,,,,,,,,left,0.683275599963963,167.784483600175,iz8,167.784483600175,None,142.5842892001383,144.58381920005195,True,1,['r'],True,0.375,0.5,0.25,1.0,1.0,0.9850568223215076,0.375,succ_gain,0,2,164.1008014001418,None,1,iz8,2,2022-04-21_11h42.20.437,threat_forest,2021.2.3,60.012266544794215,
3,0,3,0,6,0,6,0,,,,,,,,,,right,0.6997454999946058,172.401340899989,iz8,172.401340899989,None,142.5842892001383,144.58381920005195,False,2,['r'],True,0.375,0.5,0.25,1.0,1.0,0.9850568223215076,-0.625,wait_cost,0,1,170.4842144001741,None,2,iz8,2,2022-04-21_11h42.20.437,threat_forest,2021.2.3,60.012266544794215,
3,0,3,0,7,0,7,0,,,,,,,,,,left,1.4918198001105338,177.96821640012786,iz8,173.11806690017693,175.11764250020497,177.96821640012786,None,False,1,['r'],False,0.18,0.2,0.1,1.0,1.0,0.7058405977926203,0.1799999999999999,wait_cost,1,0,175.11764250020497,None,1,iz8,2,2022-04-21_11h42.20.437,threat_forest,2021.2.3,60.012266544794215,
3,0,3,0,,,,,,,,,,,,,,,,,,,,,,,,,,,,,,,,,,,,181.4846242000349,None,0,iz8,2,2022-04-21_11h42.20.437,threat_forest,2021.2.3,60.012266544794215,
4,0,4,0,0,0,0,0,,,,,,,184.2950756000355,187.80114680016413,None,right,1.6444165001157671,190.33556540007703,iz8,190.33556540007703,None,184.2950756000355,187.80114680016413,False,4,['r'],True,0.2857142857142857,0.2857142857142857,0.0,0.0,2.0,0.5445684476282007,0.0,wait_cost,0,3,,,,iz8,2,2022-04-21_11h42.20.437,threat_forest,2021.2.3,60.012266544794215,
4,0,4,0,1,0,1,0,,,,,,,,,,right,1.875227800104767,194.6865394001361,iz8,192.00148390000686,194.00125090009533,194.6865394001361,None,True,3,['r'],False,0.24,0.3,0.2,2.0,2.0,0.9003120349047065,-0.2,succ_gain,1,5,194.00125090009533,None,3,iz8,2,2022-04-21_11h42.20.437,threat_forest,2021.2.3,60.012266544794215,
4,0,4,0,2,0,2,0,,,,,,,,,,right,0.8736285998020321,202.1018656999804,iz8,202.1018656999804,None,196.5849339000415,198.58468129998073,False,5,['r'],True,0.2857142857142857,0.2857142857142857,0.0,0.0,2.0,0.5445684476282007,0.0,wait_cost,0,4,198.58468129998073,None,5,iz8,2,2022-04-21_11h42.20.437,threat_forest,2021.2.3,60.012266544794215,
4,0,4,0,3,0,3,0,,,,,,,,,,right,1.2114062001928687,208.50188120012172,iz8,208.50188120012172,None,196.5849339000415,198.58468129998073,False,4,['r'],True,0.2857142857142857,0.2857142857142857,0.0,0.0,2.0,0.5445684476282007,0.0,wait_cost,0,3,205.00151960016228,None,4,iz8,2,2022-04-21_11h42.20.437,threat_forest,2021.2.3,60.012266544794215,
4,0,4,0,4,0,4,0,,,,,,,,,,left,1.362870799843222,215.00338140013628,iz8,209.7351023000665,211.73488570004702,215.00338140013628,None,False,3,['r'],False,0.24,0.3,0.2,2.0,2.0,0.9003120349047065,-0.2,wait_cost,1,2,211.73488570004702,None,3,iz8,2,2022-04-21_11h42.20.437,threat_forest,2021.2.3,60.012266544794215,
4,0,4,0,5,0,5,0,,,,,,,,,,right,0.8139253000263125,219.55206210003234,iz8,209.7351023000665,211.73488570004702,219.55206210003234,None,True,2,['r'],False,0.24,0.3,0.2,2.0,2.0,0.9003120349047065,-0.76,unsucc_cost,1,0,218.38497090013698,None,2,iz8,2,2022-04-21_11h42.20.437,threat_forest,2021.2.3,60.012266544794215,
4,0,4,0,,,,,,,,,,,,,,,,,,,,,,,,,,,,,,,,,,,,222.38511320017278,None,0,iz8,2,2022-04-21_11h42.20.437,threat_forest,2021.2.3,60.012266544794215,
5,0,5,0,0,0,0,0,,,,,,,226.14306470006704,229.65177670004778,None,left,1.4566474000457674,231.25239949999377,iz8,226.14306470006704,229.65177670004778,231.25239949999377,None,False,5,['p'],False,0.16,0.2,0.2,2.0,2.0,0.8198746470064713,0.0,wait_cost,1,4,,,,iz8,2,2022-04-21_11h42.20.437,threat_forest,2021.2.3,60.012266544794215,
5,0,5,0,1,0,1,0,,,,,,,,,,right,0.9272147000301629,236.86882950016297,iz8,226.14306470006704,229.65177670004778,236.86882950016297,None,True,4,['p'],False,0.16,0.2,0.2,2.0,2.0,0.8198746470064713,0.0,fight_cost,1,1,234.73522919998504,None,4,iz8,2,2022-04-21_11h42.20.437,threat_forest,2021.2.3,60.012266544794215,
5,0,5,0,2,0,2,0,,,,,,,,,,right,0.6553184001240879,240.50216130004264,iz8,226.14306470006704,229.65177670004778,240.50216130004264,None,True,1,['p'],False,0.16,0.2,0.2,2.0,2.0,0.8198746470064713,0.1599999999999999,fight_cost,1,0,239.8185382001102,None,1,iz8,2,2022-04-21_11h42.20.437,threat_forest,2021.2.3,60.012266544794215,
5,0,5,0,,,,,,,,,,,,,,,,,,,,,,,,,,,,,,,,,,,,243.18543220008723,None,0,iz8,2,2022-04-21_11h42.20.437,threat_forest,2021.2.3,60.012266544794215,
6,0,6,0,0,0,0,0,,,,,,,244.5392574002035,248.0520987000782,None,right,0.9253873999696225,249.3189970999956,iz8,249.3189970999956,None,244.5392574002035,248.0520987000782,False,4,['r'],True,0.5,0.5,0.0,0.0,1.0,0.6309297535714574,0.0,wait_cost,0,3,,,,iz8,2,2022-04-21_11h42.20.437,threat_forest,2021.2.3,60.012266544794215,
6,0,6,0,1,0,1,0,,,,,,,,,,right,1.3334220999386162,255.46937060006894,iz8,255.46937060006894,None,244.5392574002035,248.0520987000782,False,3,['r'],True,0.5,0.5,0.0,0.0,1.0,0.6309297535714574,0.0,wait_cost,0,2,252.26881929999217,None,3,iz8,2,2022-04-21_11h42.20.437,threat_forest,2021.2.3,60.012266544794215,
6,0,6,0,2,0,2,0,,,,,,,,,,right,1.1694041001610458,261.75268650008366,iz8,261.75268650008366,None,244.5392574002035,248.0520987000782,False,2,['r'],True,0.5,0.5,0.0,0.0,1.0,0.6309297535714574,-0.5,wait_cost,0,1,258.8355807000771,None,2,iz8,2,2022-04-21_11h42.20.437,threat_forest,2021.2.3,60.012266544794215,
6,0,6,0,3,0,3,0,,,,,,,,,,left,1.129770299885422,268.2527001001872,iz8,268.2527001001872,None,244.5392574002035,248.0520987000782,True,1,['r'],True,0.5,0.5,0.0,0.0,1.0,0.6309297535714574,0.5,succ_gain,0,2,264.9523548001889,None,1,iz8,2,2022-04-21_11h42.20.437,threat_forest,2021.2.3,60.012266544794215,
6,0,6,0,4,0,4,0,,,,,,,,,,right,1.4729196999687701,273.85268320003524,iz8,273.85268320003524,None,244.5392574002035,248.0520987000782,False,2,['r'],True,0.5,0.5,0.0,0.0,1.0,0.6309297535714574,-0.5,wait_cost,0,1,271.4024501000531,None,2,iz8,2,2022-04-21_11h42.20.437,threat_forest,2021.2.3,60.012266544794215,
6,0,6,0,5,0,5,0,,,,,,,,,,right,0.8480328000150621,280.30292030004784,iz8,275.35269820014946,277.35245660017245,280.30292030004784,None,True,1,['r'],False,0.4081632653061224,0.5714285714285714,0.2857142857142857,2.0,1.0,0.9885754083994552,0.4081632653061224,succ_gain,1,2,277.35245660017245,None,1,iz8,2,2022-04-21_11h42.20.437,threat_forest,2021.2.3,60.012266544794215,
6,0,6,0,6,0,6,0,,,,,,,,,,left,1.7138116999994963,286.4195012000855,iz8,275.35269820014946,277.35245660017245,286.4195012000855,None,False,2,['r'],False,0.4081632653061224,0.5714285714285714,0.2857142857142857,2.0,1.0,0.9885754083994552,-0.5918367346938775,wait_cost,1,1,283.16929330001585,None,2,iz8,2,2022-04-21_11h42.20.437,threat_forest,2021.2.3,60.012266544794215,
6,0,6,0,7,0,7,0,,,,,,,,,,right,0.7620212000329047,291.96970390016213,iz8,275.35269820014946,277.35245660017245,291.96970390016213,None,True,1,['r'],False,0.4081632653061224,0.5714285714285714,0.2857142857142857,2.0,1.0,0.9885754083994552,0.4081632653061224,succ_gain,1,2,290.1526626001578,None,1,iz8,2,2022-04-21_11h42.20.437,threat_forest,2021.2.3,60.012266544794215,
6,0,6,0,,,,,,,,,,,,,,,,,,,,,,,,,,,,,,,,,,,,294.75285849999636,None,2,iz8,2,2022-04-21_11h42.20.437,threat_forest,2021.2.3,60.012266544794215,
7,0,7,0,0,0,0,0,,,,,,,297.6125413000118,301.10360840009525,None,right,1.0779533998575062,304.85552950017154,iz8,304.85552950017154,None,297.6125413000118,301.10360840009525,False,5,['r'],True,0.24,0.4,0.4,2.0,2.0,0.9801625908629508,0.0,wait_cost,0,4,,,,iz8,2,2022-04-21_11h42.20.437,threat_forest,2021.2.3,60.012266544794215,
7,0,7,0,1,0,1,0,,,,,,,,,,right,1.757234999909997,308.71986240008846,iz8,305.95321780000813,307.9529472000431,308.71986240008846,None,True,4,['r'],False,0.16,0.2,0.2,2.0,2.0,0.8198746470064713,0.0,unsucc_cost,1,2,307.9529472000431,None,4,iz8,2,2022-04-21_11h42.20.437,threat_forest,2021.2.3,60.012266544794215,
7,0,7,0,2,0,2,0,,,,,,,,,,left,1.486605399986729,315.0201571001671,iz8,305.95321780000813,307.9529472000431,315.0201571001671,None,False,2,['r'],False,0.16,0.2,0.2,2.0,2.0,0.8198746470064713,-0.8400000000000001,wait_cost,1,1,312.50311960000545,None,2,iz8,2,2022-04-21_11h42.20.437,threat_forest,2021.2.3,60.012266544794215,
7,0,7,0,3,0,3,0,,,,,,,,,,right,0.48005260014906526,321.25353490002453,iz8,305.95321780000813,307.9529472000431,321.25353490002453,None,True,1,['r'],False,0.16,0.2,0.2,2.0,2.0,0.8198746470064713,0.1599999999999999,succ_gain,1,3,318.53646320011467,None,1,iz8,2,2022-04-21_11h42.20.437,threat_forest,2021.2.3,60.012266544794215,
7,0,7,0,4,0,4,0,,,,,,,,,,right,0.9170214999467134,326.00350670004264,iz8,305.95321780000813,307.9529472000431,326.00350670004264,None,True,3,['r'],False,0.16,0.2,0.2,2.0,2.0,0.8198746470064713,-0.2,fight_cost,1,0,323.7531338001136,None,3,iz8,2,2022-04-21_11h42.20.437,threat_forest,2021.2.3,60.012266544794215,
7,0,7,0,,,,,,,,,,,,,,,,,,,,,,,,,,,,,,,,,,,,328.95349930017255,None,0,iz8,2,2022-04-21_11h42.20.437,threat_forest,2021.2.3,60.012266544794215,
8,0,8,0,0,0,0,0,,,,,,,330.0281872001942,333.53666840004735,None,right,0.9515670000109822,335.1207179001067,iz8,335.1207179001067,None,330.0281872001942,333.53666840004735,False,4,['p'],True,0.375,0.5,0.25,1.0,1.0,0.9850568223215076,0.0,wait_cost,0,3,,,,iz8,2,2022-04-21_11h42.20.437,threat_forest,2021.2.3,60.012266544794215,
8,0,8,0,1,0,1,0,,,,,,,,,,right,0.7136793998070061,341.2039162002038,iz8,336.1036903001368,338.1034391000867,341.2039162002038,None,True,3,['p'],False,0.2448979591836734,0.2857142857142857,0.1428571428571428,1.0,1.0,0.8400769154957735,-0.1428571428571428,unsucc_cost,1,1,338.1034391000867,None,3,iz8,2,2022-04-21_11h42.20.437,threat_forest,2021.2.3,60.012266544794215,
8,0,8,0,2,0,2,0,,,,,,,,,,left,1.6438368998933583,347.5204682999756,iz8,347.5204682999756,None,341.9372843001038,343.936825199984,True,1,['p'],True,0.375,0.5,0.25,1.0,1.0,0.9850568223215076,0.375,unsucc_cost,0,0,343.936825199984,None,1,iz8,2,2022-04-21_11h42.20.437,threat_forest,2021.2.3,60.012266544794215,
8,0,8,0,,,,,,,,,,,,,,,,,,,,,,,,,,,,,,,,,,,,351.18697000015527,None,0,iz8,2,2022-04-21_11h42.20.437,threat_forest,2021.2.3,60.012266544794215,
9,0,9,0,0,0,0,0,,,,,,,352.95879380009137,356.47039180016145,None,right,1.0048211999237537,360.05433430010453,iz8,352.95879380009137,356.47039180016145,360.05433430010453,None,True,4,['p'],False,0.4444444444444445,0.6666666666666666,0.3333333333333333,2.0,2.0,0.9656336071428248,0.0,succ_gain,1,6,,,,iz8,2,2022-04-21_11h42.20.437,threat_forest,2021.2.3,60.012266544794215,
9,0,9,0,1,0,1,0,,,,,,,,,,right,1.0154099999926984,364.6722435001284,iz8,364.6722435001284,None,361.0873897999991,363.0871150000021,False,6,['p'],True,0.6,0.6,0.0,0.0,2.0,0.6126016192893442,0.0,wait_cost,0,5,363.0871150000021,None,6,iz8,2,2022-04-21_11h42.20.437,threat_forest,2021.2.3,60.012266544794215,
9,0,9,0,2,0,2,0,,,,,,,,,,right,0.5629194001667202,370.1370826000348,iz8,370.1370826000348,None,361.0873897999991,363.0871150000021,False,5,['p'],True,0.6,0.6,0.0,0.0,2.0,0.6126016192893442,0.0,wait_cost,0,4,367.70385320018977,None,5,iz8,2,2022-04-21_11h42.20.437,threat_forest,2021.2.3,60.012266544794215,
9,0,9,0,3,0,3,0,,,,,,,,,,right,0.7072491999715567,375.25468260003254,iz8,375.25468260003254,None,361.0873897999991,363.0871150000021,False,4,['p'],True,0.6,0.6,0.0,0.0,2.0,0.6126016192893442,0.0,wait_cost,0,3,372.72060650005005,None,4,iz8,2,2022-04-21_11h42.20.437,threat_forest,2021.2.3,60.012266544794215,
9,0,9,0,4,0,4,0,,,,,,,,,,right,0.45210120012052357,379.55473940004595,iz8,375.9876973000355,377.98724420019425,379.55473940004595,None,True,3,['p'],False,0.4444444444444445,0.6666666666666666,0.3333333333333333,2.0,2.0,0.9656336071428248,-0.3333333333333333,succ_gain,1,5,377.98724420019425,None,3,iz8,2,2022-04-21_11h42.20.437,threat_forest,2021.2.3,60.012266544794215,
9,0,9,0,5,0,5,0,,,,,,,,,,right,0.6524224998429418,385.35434220009483,iz8,385.35434220009483,None,380.0378475000616,382.037436200073,False,5,['p'],True,0.6,0.6,0.0,0.0,2.0,0.6126016192893442,0.0,wait_cost,0,4,382.037436200073,None,5,iz8,2,2022-04-21_11h42.20.437,threat_forest,2021.2.3,60.012266544794215,
9,0,9,0,6,0,6,0,,,,,,,,,,left,0.9152381999883801,390.2048319000751,iz8,386.0377430000808,388.03743370017037,390.2048319000751,None,False,4,['p'],False,0.4444444444444445,0.6666666666666666,0.3333333333333333,2.0,2.0,0.9656336071428248,0.0,wait_cost,1,3,388.03743370017037,None,4,iz8,2,2022-04-21_11h42.20.437,threat_forest,2021.2.3,60.012266544794215,
9,0,9,0,7,0,7,0,,,,,,,,,,left,0.8767689000815153,394.2384003000334,iz8,386.0377430000808,388.03743370017037,394.2384003000334,None,False,3,['p'],False,0.4444444444444445,0.6666666666666666,0.3333333333333333,2.0,2.0,0.9656336071428248,-0.3333333333333333,wait_cost,1,2,393.1376277001109,None,3,iz8,2,2022-04-21_11h42.20.437,threat_forest,2021.2.3,60.012266544794215,
9,0,9,0,,,,,,,,,,,,,,,,,,,,,,,,,,,,,,,,,,,,397.13762579998,None,2,iz8,2,2022-04-21_11h42.20.437,threat_forest,2021.2.3,60.012266544794215,
10,0,10,0,0,0,0,0,,,,,,,398.7801421000622,402.28760390006937,None,right,1.660341199953109,404.1219813001808,iz8,398.7801421000622,402.28760390006937,404.1219813001808,None,True,5,['p'],False,0.24,0.3,0.2,2.0,1.0,0.9003120349047065,0.0,succ_gain,1,6,,,,iz8,2,2022-04-21_11h42.20.437,threat_forest,2021.2.3,60.012266544794215,
10,0,10,0,1,0,1,0,,,,,,,,,,left,0.8402102999389172,411.27195900003426,iz8,398.7801421000622,402.28760390006937,411.27195900003426,None,False,6,['p'],False,0.24,0.3,0.2,2.0,1.0,0.9003120349047065,0.0,wait_cost,1,5,407.8044488001615,None,6,iz8,2,2022-04-21_11h42.20.437,threat_forest,2021.2.3,60.012266544794215,
10,0,10,0,2,0,2,0,,,,,,,,,,right,0.7160153000149876,414.8913571999874,iz8,414.8913571999874,None,412.13812250015326,414.1378876999952,False,5,['p'],True,0.375,0.5,0.25,1.0,1.0,0.9850568223215076,0.0,wait_cost,0,4,414.1378876999952,None,5,iz8,2,2022-04-21_11h42.20.437,threat_forest,2021.2.3,60.012266544794215,
10,0,10,0,3,0,3,0,,,,,,,,,,right,0.6784446998499334,421.33860850008205,iz8,421.33860850008205,None,412.13812250015326,414.1378876999952,False,4,['p'],True,0.375,0.5,0.25,1.0,1.0,0.9850568223215076,0.0,wait_cost,0,3,417.6379470000975,None,4,iz8,2,2022-04-21_11h42.20.437,threat_forest,2021.2.3,60.012266544794215,
10,0,10,0,4,0,4,0,,,,,,,,,,right,0.6879202998243272,424.60508230002597,iz8,424.60508230002597,None,412.13812250015326,414.1378876999952,False,3,['p'],True,0.375,0.5,0.25,1.0,1.0,0.9850568223215076,-0.25,wait_cost,0,2,424.03802330000326,None,3,iz8,2,2022-04-21_11h42.20.437,threat_forest,2021.2.3,60.012266544794215,
10,0,10,0,5,0,5,0,,,,,,,,,,right,0.5519318000879139,431.05530220014043,iz8,425.3216012001503,427.3214104999788,431.05530220014043,None,True,2,['p'],False,0.24,0.3,0.2,2.0,1.0,0.9003120349047065,-0.76,fight_cost,1,0,427.3214104999788,None,2,iz8,2,2022-04-21_11h42.20.437,threat_forest,2021.2.3,60.012266544794215,
10,0,10,0,,,,,,,,,,,,,,,,,,,,,,,,,,,,,,,,,,,,433.6383901000954,None,0,iz8,2,2022-04-21_11h42.20.437,threat_forest,2021.2.3,60.012266544794215,
11,0,11,0,0,0,0,0,,,,,,,435.16449240013026,438.6715286001563,None,right,1.2604727998841554,442.1722298001405,iz8,435.16449240013026,438.6715286001563,442.1722298001405,None,True,4,['r'],False,0.21875,0.25,0.125,1.0,1.0,0.7908280489481783,0.0,unsucc_cost,1,2,,,,iz8,2,2022-04-21_11h42.20.437,threat_forest,2021.2.3,60.012266544794215,
11,0,11,0,1,0,1,0,,,,,,,,,,right,0.887665799818933,448.6895983000286,iz8,435.16449240013026,438.6715286001563,448.6895983000286,None,True,2,['r'],False,0.21875,0.25,0.125,1.0,1.0,0.7908280489481783,-0.78125,succ_gain,1,3,445.45519520016387,None,2,iz8,2,2022-04-21_11h42.20.437,threat_forest,2021.2.3,60.012266544794215,
11,0,11,0,2,0,2,0,,,,,,,,,,right,0.5140444999560714,454.05575520009734,iz8,435.16449240013026,438.6715286001563,454.05575520009734,None,True,3,['r'],False,0.21875,0.25,0.125,1.0,1.0,0.7908280489481783,-0.125,fight_cost,1,0,451.60502500017174,None,3,iz8,2,2022-04-21_11h42.20.437,threat_forest,2021.2.3,60.012266544794215,
11,0,11,0,,,,,,,,,,,,,,,,,,,,,,,,,,,,,,,,,,,,456.5887369001284,None,0,iz8,2,2022-04-21_11h42.20.437,threat_forest,2021.2.3,60.012266544794215,
12,0,12,0,0,0,0,0,,,,,,,459.87973180017434,463.3886498999782,None,right,0.616639900021255,464.955878400011,iz8,459.87973180017434,463.3886498999782,464.955878400011,None,True,4,['r'],False,0.27,0.3,0.1,1.0,1.0,0.7963326591781347,0.0,succ_gain,1,5,,,,iz8,2,2022-04-21_11h42.20.437,threat_forest,2021.2.3,60.012266544794215,
12,0,12,0,1,0,1,0,,,,,,,,,,right,0.8420794000849128,468.49111810000613,iz8,468.49111810000613,None,465.58928770013154,467.5887186001055,False,5,['r'],True,0.4444444444444445,0.6666666666666666,0.3333333333333333,1.0,1.0,0.9656336071428248,0.0,wait_cost,0,4,467.5887186001055,None,5,iz8,2,2022-04-21_11h42.20.437,threat_forest,2021.2.3,60.012266544794215,
12,0,12,0,2,0,2,0,,,,,,,,,,right,0.7448528001550585,475.072408700129,iz8,475.072408700129,None,465.58928770013154,467.5887186001055,False,4,['r'],True,0.4444444444444445,0.6666666666666666,0.3333333333333333,1.0,1.0,0.9656336071428248,0.0,wait_cost,0,3,471.3554209000431,None,4,iz8,2,2022-04-21_11h42.20.437,threat_forest,2021.2.3,60.012266544794215,
12,0,12,0,3,0,3,0,,,,,,,,,,right,0.5703251999802887,479.2893950000871,iz8,475.8390818000771,477.8388883001171,479.2893950000871,None,True,3,['r'],False,0.27,0.3,0.1,1.0,1.0,0.7963326591781347,-0.1,succ_gain,1,4,477.8388883001171,None,3,iz8,2,2022-04-21_11h42.20.437,threat_forest,2021.2.3,60.012266544794215,
12,0,12,0,4,0,4,0,,,,,,,,,,right,0.44418850005604327,483.807619899977,iz8,483.807619899977,None,479.8891557001043,481.88918150006793,False,4,['r'],True,0.4444444444444445,0.6666666666666666,0.3333333333333333,1.0,1.0,0.9656336071428248,0.0,wait_cost,0,3,481.88918150006793,None,4,iz8,2,2022-04-21_11h42.20.437,threat_forest,2021.2.3,60.012266544794215,
12,0,12,0,5,0,5,0,,,,,,,,,,right,0.45967649994418025,487.38926530000754,iz8,487.38926530000754,None,479.8891557001043,481.88918150006793,False,3,['r'],True,0.4444444444444445,0.6666666666666666,0.3333333333333333,1.0,1.0,0.9656336071428248,-0.3333333333333333,wait_cost,0,2,486.2723097000271,None,3,iz8,2,2022-04-21_11h42.20.437,threat_forest,2021.2.3,60.012266544794215,
12,0,12,0,6,0,6,0,,,,,,,,,,right,0.4491202998906374,493.28966990020126,iz8,487.8727063999977,489.87238260009326,493.28966990020126,None,True,2,['r'],False,0.27,0.3,0.1,1.0,1.0,0.7963326591781347,-0.73,succ_gain,1,3,489.87238260009326,None,2,iz8,2,2022-04-21_11h42.20.437,threat_forest,2021.2.3,60.012266544794215,
12,0,12,0,7,0,7,0,,,,,,,,,,left,0.67737410007976,499.2564255001489,iz8,487.8727063999977,489.87238260009326,499.2564255001489,None,False,3,['r'],False,0.27,0.3,0.1,1.0,1.0,0.7963326591781347,-0.1,wait_cost,1,2,495.75590350013226,None,3,iz8,2,2022-04-21_11h42.20.437,threat_forest,2021.2.3,60.012266544794215,
12,0,12,0,,,,,,,,,,,,,,,,,,,,,,,,,,,,,,,,,,,,501.9559022001922,None,2,iz8,2,2022-04-21_11h42.20.437,threat_forest,2021.2.3,60.012266544794215,
13,0,13,0,0,0,0,0,,,,,,,503.194438100094,506.70582760008983,None,left,0.9661958001088351,510.2401273001451,iz8,510.2401273001451,None,503.194438100094,506.70582760008983,True,4,['r'],True,0.25,0.25,0.0,0.0,2.0,0.5118595071429148,0.0,succ_gain,0,6,,,,iz8,2,2022-04-21_11h42.20.437,threat_forest,2021.2.3,60.012266544794215,
13,0,13,0,1,0,1,0,,,,,,,,,,left,1.2978901998139918,516.5232650001999,iz8,511.2228161999956,513.2227231999859,516.5232650001999,None,False,6,['r'],False,0.2040816326530612,0.2857142857142857,0.2857142857142857,2.0,2.0,0.9335459102197724,0.0,wait_cost,1,5,513.2227231999859,None,6,iz8,2,2022-04-21_11h42.20.437,threat_forest,2021.2.3,60.012266544794215,
13,0,13,0,2,0,2,0,,,,,,,,,,left,0.7563678999431431,522.7898149001412,iz8,511.2228161999956,513.2227231999859,522.7898149001412,None,False,5,['r'],False,0.2040816326530612,0.2857142857142857,0.2857142857142857,2.0,2.0,0.9335459102197724,0.0,wait_cost,1,4,519.8394685001113,None,5,iz8,2,2022-04-21_11h42.20.437,threat_forest,2021.2.3,60.012266544794215,
13,0,13,0,3,0,3,0,,,,,,,,,,left,0.8510968000628054,527.9231579999905,iz8,511.2228161999956,513.2227231999859,527.9231579999905,None,False,4,['r'],False,0.2040816326530612,0.2857142857142857,0.2857142857142857,2.0,2.0,0.9335459102197724,0.0,wait_cost,1,3,525.5728379001375,None,4,iz8,2,2022-04-21_11h42.20.437,threat_forest,2021.2.3,60.012266544794215,
13,0,13,0,4,0,4,0,,,,,,,,,,right,0.8012465999927372,533.5235365000553,iz8,511.2228161999956,513.2227231999859,533.5235365000553,None,True,3,['r'],False,0.2040816326530612,0.2857142857142857,0.2857142857142857,2.0,2.0,0.9335459102197724,-0.2857142857142857,unsucc_cost,1,1,530.8063596000429,None,3,iz8,2,2022-04-21_11h42.20.437,threat_forest,2021.2.3,60.012266544794215,
13,0,13,0,5,0,5,0,,,,,,,,,,right,0.7624395000748336,538.4404674000107,iz8,511.2228161999956,513.2227231999859,538.4404674000107,None,True,1,['r'],False,0.2040816326530612,0.2857142857142857,0.2857142857142857,2.0,2.0,0.9335459102197724,0.2040816326530612,unsucc_cost,1,0,536.3563740001991,None,1,iz8,2,2022-04-21_11h42.20.437,threat_forest,2021.2.3,60.012266544794215,
13,0,13,0,,,,,,,,,,,,,,,,,,,,,,,,,,,,,,,,,,,,541.2231872000266,None,0,iz8,2,2022-04-21_11h42.20.437,threat_forest,2021.2.3,60.012266544794215,
14,0,14,0,0,0,0,0,,,,,,,543.0151498999912,546.5231365000363,None,right,1.7718710999470204,547.8404809001368,iz8,547.8404809001368,None,543.0151498999912,546.5231365000363,False,5,['r'],True,0.3333333333333333,0.3333333333333333,0.0,0.0,2.0,0.5793801642856949,0.0,wait_cost,0,4,,,,iz8,2,2022-04-21_11h42.20.437,threat_forest,2021.2.3,60.012266544794215,
14,0,14,0,1,0,1,0,,,,,,,,,,right,0.7234839999582618,555.0590205001645,iz8,549.6401585000567,551.6399623001926,555.0590205001645,None,True,4,['r'],False,0.28125,0.375,0.25,2.0,2.0,0.9634951148421658,0.0,fight_cost,1,1,551.6399623001926,None,4,iz8,2,2022-04-21_11h42.20.437,threat_forest,2021.2.3,60.012266544794215,
14,0,14,0,2,0,2,0,,,,,,,,,,left,1.668173999991268,560.9574612001888,iz8,549.6401585000567,551.6399623001926,560.9574612001888,None,False,1,['r'],False,0.28125,0.375,0.25,2.0,2.0,0.9634951148421658,0.28125,wait_cost,1,0,557.8066691001877,None,1,iz8,2,2022-04-21_11h42.20.437,threat_forest,2021.2.3,60.012266544794215,
14,0,14,0,,,,,,,,,,,,,,,,,,,,,,,,,,,,,,,,,,,,564.656934000086,None,0,iz8,2,2022-04-21_11h42.20.437,threat_forest,2021.2.3,60.012266544794215,
15,0,15,0,0,0,0,0,,,,,,,565.6970836000983,569.2068306000438,None,right,1.136853399919346,572.2073580999859,iz8,565.6970836000983,569.2068306000438,572.2073580999859,None,True,4,['p'],False,0.4081632653061224,0.5714285714285714,0.2857142857142857,2.0,1.0,0.9885754083994552,0.0,succ_gain,1,5,,,,iz8,2,2022-04-21_11h42.20.437,threat_forest,2021.2.3,60.012266544794215,
15,0,15,0,1,0,1,0,,,,,,,,,,left,1.0300465000327677,576.3242868999951,iz8,565.6970836000983,569.2068306000438,576.3242868999951,None,False,5,['p'],False,0.4081632653061224,0.5714285714285714,0.2857142857142857,2.0,1.0,0.9885754083994552,0.0,wait_cost,1,4,575.3736338000745,None,5,iz8,2,2022-04-21_11h42.20.437,threat_forest,2021.2.3,60.012266544794215,
15,0,15,0,2,0,2,0,,,,,,,,,,left,1.5313675999641418,581.3741864999756,iz8,565.6970836000983,569.2068306000438,581.3741864999756,None,False,4,['p'],False,0.4081632653061224,0.5714285714285714,0.2857142857142857,2.0,1.0,0.9885754083994552,0.0,wait_cost,1,3,579.3737165001221,None,4,iz8,2,2022-04-21_11h42.20.437,threat_forest,2021.2.3,60.012266544794215,
15,0,15,0,3,0,3,0,,,,,,,,,,left,1.054784500040114,587.0578956000973,iz8,565.6970836000983,569.2068306000438,587.0578956000973,None,False,3,['p'],False,0.4081632653061224,0.5714285714285714,0.2857142857142857,2.0,1.0,0.9885754083994552,-0.2857142857142857,wait_cost,1,2,584.9237085001078,None,3,iz8,2,2022-04-21_11h42.20.437,threat_forest,2021.2.3,60.012266544794215,
15,0,15,0,4,0,4,0,,,,,,,,,,right,0.902276299893856,592.2578983001877,iz8,565.6970836000983,569.2068306000438,592.2578983001877,None,True,2,['p'],False,0.4081632653061224,0.5714285714285714,0.2857142857142857,2.0,1.0,0.9885754083994552,-0.5918367346938775,unsucc_cost,1,0,590.1405152999796,None,2,iz8,2,2022-04-21_11h42.20.437,threat_forest,2021.2.3,60.012266544794215,
15,0,15,0,,,,,,,,,,,,,,,,,,,,,,,,,,,,,,,,,,,,595.1908186001237,None,0,iz8,2,2022-04-21_11h42.20.437,threat_forest,2021.2.3,60.012266544794215,
16,0,16,0,0,0,0,0,,,,,,,597.0292452001013,600.5405894999858,None,left,1.1420061998069286,602.9911332000047,iz8,597.0292452001013,600.5405894999858,602.9911332000047,None,False,4,['r'],False,0.2222222222222222,0.2222222222222222,0.0,0.0,1.0,0.4821593609696809,0.0,wait_cost,1,3,,,,iz8,2,2022-04-21_11h42.20.437,threat_forest,2021.2.3,60.012266544794215,
16,0,16,0,1,0,1,0,,,,,,,,,,left,0.8613348000217229,607.7415630000178,iz8,607.7415630000178,None,604.157921000151,606.1573350001127,True,3,['r'],True,0.4444444444444445,0.6666666666666666,0.3333333333333333,1.0,1.0,0.9656336071428248,-0.3333333333333333,succ_gain,0,4,606.1573350001127,None,3,iz8,2,2022-04-21_11h42.20.437,threat_forest,2021.2.3,60.012266544794215,
16,0,16,0,2,0,2,0,,,,,,,,,,left,1.0485646999441087,613.5244117002003,iz8,608.6243491000496,610.6242755001877,613.5244117002003,None,False,4,['r'],False,0.2222222222222222,0.2222222222222222,0.0,0.0,1.0,0.4821593609696809,0.0,wait_cost,1,3,610.6242755001877,None,4,iz8,2,2022-04-21_11h42.20.437,threat_forest,2021.2.3,60.012266544794215,
16,0,16,0,3,0,3,0,,,,,,,,,,left,0.6598169000353664,618.3413879000582,iz8,618.3413879000582,None,614.5912697000895,616.5908874000888,True,3,['r'],True,0.4444444444444445,0.6666666666666666,0.3333333333333333,1.0,1.0,0.9656336071428248,-0.3333333333333333,unsucc_cost,0,1,616.5908874000888,None,3,iz8,2,2022-04-21_11h42.20.437,threat_forest,2021.2.3,60.012266544794215,
16,0,16,0,4,0,4,0,,,,,,,,,,left,1.0091192000545561,624.2914373001549,iz8,624.2914373001549,None,614.5912697000895,616.5908874000888,True,1,['r'],True,0.4444444444444445,0.6666666666666666,0.3333333333333333,1.0,1.0,0.9656336071428248,0.4444444444444444,unsucc_cost,0,0,621.024323000107,None,1,iz8,2,2022-04-21_11h42.20.437,threat_forest,2021.2.3,60.012266544794215,
16,0,16,0,,,,,,,,,,,,,,,,,,,,,,,,,,,,,,,,,,,,627.3246332001872,None,0,iz8,2,2022-04-21_11h42.20.437,threat_forest,2021.2.3,60.012266544794215,
17,0,17,0,0,0,0,0,,,,,,,630.5461513001937,634.0578344999813,None,right,0.6144171999767423,637.7584526999854,iz8,630.5461513001937,634.0578344999813,637.7584526999854,None,True,4,['r'],False,0.2448979591836734,0.2857142857142857,0.1428571428571428,1.0,1.0,0.8400769154957735,0.0,succ_gain,1,5,,,,iz8,2,2022-04-21_11h42.20.437,threat_forest,2021.2.3,60.012266544794215,
17,0,17,0,1,0,1,0,,,,,,,,,,left,1.4276927998289466,642.3417062000372,iz8,630.5461513001937,634.0578344999813,642.3417062000372,None,False,5,['r'],False,0.2448979591836734,0.2857142857142857,0.1428571428571428,1.0,1.0,0.8400769154957735,0.0,wait_cost,1,4,640.3912613000721,None,5,iz8,2,2022-04-21_11h42.20.437,threat_forest,2021.2.3,60.012266544794215,
17,0,17,0,2,0,2,0,,,,,,,,,,right,0.8961350000463426,648.7087026999798,iz8,630.5461513001937,634.0578344999813,648.7087026999798,None,True,4,['r'],False,0.2448979591836734,0.2857142857142857,0.1428571428571428,1.0,1.0,0.8400769154957735,0.0,fight_cost,1,1,645.7913064002059,None,4,iz8,2,2022-04-21_11h42.20.437,threat_forest,2021.2.3,60.012266544794215,
17,0,17,0,3,0,3,0,,,,,,,,,,right,0.591495200060308,653.8920859000646,iz8,630.5461513001937,634.0578344999813,653.8920859000646,None,True,1,['r'],False,0.2448979591836734,0.2857142857142857,0.1428571428571428,1.0,1.0,0.8400769154957735,0.2448979591836735,fight_cost,1,0,651.6248174000066,None,1,iz8,2,2022-04-21_11h42.20.437,threat_forest,2021.2.3,60.012266544794215,
17,0,17,0,,,,,,,,,,,,,,,,,,,,,,,,,,,,,,,,,,,,656.5083393000532,None,0,iz8,2,2022-04-21_11h42.20.437,threat_forest,2021.2.3,60.012266544794215,
