miniblock.thisRepN,miniblock.thisTrialN,miniblock.thisN,miniblock.thisIndex,day.thisRepN,day.thisTrialN,day.thisN,day.thisIndex,welcoming.started,welcoming.stopped,key_resp_2.keys,key_resp_2.rt,key_resp_2.started,key_resp_2.stopped,forest.started,fixation_forest.started,fixation_forest.stopped,key_resp.keys,key_resp.rt,key_resp.started,Subject_ID,weather_left.started,weather_left.stopped,weather_right.started,weather_right.stopped,foraging T/F,in_LP,p/r heuristic,good_weather.T/F,p_succ_correct,p_succ_uncorrected,r_threat,n_oponents,gain_if_succ,weather_entropy,OP_value_difference,action_outcome,forest_side_L=0_R=1,out_LP,fixation_day.started,fixation_day.stopped,n_day-1.out_LP.,participant,session,date,expName,psychopyVersion,frameRate,
,,,,,,,,10.822863799985498,None,space,1.8650411004200578,10.822863799985498,None,,,,,,,,,,,,,,,,,,,,,,,,,,,,,ae11,4,2022-04-29_15h02.02.612,threat_forest,2021.2.3,59.909225464118215,
0,0,0,0,0,0,0,0,,,,,,,12.765475099906325,16.269959600176662,None,left,0.766550499945879,17.38696220004931,ae11,17.38696220004931,None,12.765475099906325,16.269959600176662,True,5,['r'],True,0.32,0.4,0.2,1.0,2.0,0.9455672104350704,0.0,succ_gain,0,6,,,,ae11,4,2022-04-29_15h02.02.612,threat_forest,2021.2.3,59.909225464118215,
0,0,0,0,1,0,1,0,,,,,,,,,,left,0.8508072001859546,21.68196550011635,ae11,18.180513500235975,20.17983049992472,21.68196550011635,None,False,6,['r'],False,0.1975308641975308,0.2222222222222222,0.1111111111111111,1.0,2.0,0.7461067557824965,0.0,wait_cost,1,5,20.17983049992472,None,6,ae11,4,2022-04-29_15h02.02.612,threat_forest,2021.2.3,59.909225464118215,
0,0,0,0,2,0,2,0,,,,,,,,,,left,1.0234276996925473,27.619803899899125,ae11,27.619803899899125,None,22.569745399989188,24.580032899975777,True,5,['r'],True,0.32,0.4,0.2,1.0,2.0,0.9455672104350704,0.0,fight_cost,0,2,24.580032899975777,None,5,ae11,4,2022-04-29_15h02.02.612,threat_forest,2021.2.3,59.909225464118215,
0,0,0,0,3,0,3,0,,,,,,,,,,left,0.9285069997422397,31.220773700159043,ae11,28.663610000163317,30.663278500083834,31.220773700159043,None,False,2,['r'],False,0.1975308641975308,0.2222222222222222,0.1111111111111111,1.0,2.0,0.7461067557824965,-0.8024691358024691,wait_cost,1,1,30.663278500083834,None,2,ae11,4,2022-04-29_15h02.02.612,threat_forest,2021.2.3,59.909225464118215,
0,0,0,0,4,0,4,0,,,,,,,,,,right,1.303717799950391,35.19980990001932,ae11,28.663610000163317,30.663278500083834,35.19980990001932,None,True,1,['r'],False,0.1975308641975308,0.2222222222222222,0.1111111111111111,1.0,2.0,0.7461067557824965,0.1975308641975308,succ_gain,1,3,34.179913700092584,None,1,ae11,4,2022-04-29_15h02.02.612,threat_forest,2021.2.3,59.909225464118215,
0,0,0,0,5,0,5,0,,,,,,,,,,left,1.263117500115186,42.0540187000297,ae11,42.0540187000297,None,36.530276000034064,38.530004899948835,True,3,['r'],True,0.32,0.4,0.2,1.0,2.0,0.9455672104350704,-0.2,unsucc_cost,0,1,38.530004899948835,None,3,ae11,4,2022-04-29_15h02.02.612,threat_forest,2021.2.3,59.909225464118215,
0,0,0,0,6,0,6,0,,,,,,,,,,right,0.4984724000096321,47.69191939989105,ae11,43.34966460010037,45.36360769998282,47.69191939989105,None,True,1,['r'],False,0.1975308641975308,0.2222222222222222,0.1111111111111111,1.0,2.0,0.7461067557824965,0.1975308641975308,unsucc_cost,1,0,45.36360769998282,None,1,ae11,4,2022-04-29_15h02.02.612,threat_forest,2021.2.3,59.909225464118215,
0,0,0,0,,,,,,,,,,,,,,,,,,,,,,,,,,,,,,,,,,,,50.21915609994903,None,0,ae11,4,2022-04-29_15h02.02.612,threat_forest,2021.2.3,59.909225464118215,
1,0,1,0,0,0,0,0,,,,,,,50.815138600301,54.31487140012905,None,left,1.002325899899006,57.132327700033784,ae11,57.132327700033784,None,50.815138600301,54.31487140012905,True,5,['p'],True,0.5,0.5,0.0,0.0,2.0,0.6309297535714574,0.0,succ_gain,0,6,,,,ae11,4,2022-04-29_15h02.02.612,threat_forest,2021.2.3,59.909225464118215,
1,0,1,0,1,0,1,0,,,,,,,,,,right,1.0544064003042877,63.26656620018184,ae11,63.26656620018184,None,50.815138600301,54.31487140012905,False,6,['p'],True,0.5,0.5,0.0,0.0,2.0,0.6309297535714574,0.0,wait_cost,0,5,60.16367210028693,None,6,ae11,4,2022-04-29_15h02.02.612,threat_forest,2021.2.3,59.909225464118215,
1,0,1,0,2,0,2,0,,,,,,,,,,right,1.9855959000997245,67.63273790013045,ae11,67.63273790013045,None,50.815138600301,54.31487140012905,False,5,['p'],True,0.5,0.5,0.0,0.0,2.0,0.6309297535714574,0.0,wait_cost,0,4,66.34709249995649,None,5,ae11,4,2022-04-29_15h02.02.612,threat_forest,2021.2.3,59.909225464118215,
1,0,1,0,3,0,3,0,,,,,,,,,,left,0.7904604002833366,73.33271230012178,ae11,73.33271230012178,None,50.815138600301,54.31487140012905,True,4,['p'],True,0.5,0.5,0.0,0.0,2.0,0.6309297535714574,0.0,succ_gain,0,6,71.66363140009344,None,4,ae11,4,2022-04-29_15h02.02.612,threat_forest,2021.2.3,59.909225464118215,
1,0,1,0,4,0,4,0,,,,,,,,,,left,0.9948936002328992,78.07557650003582,ae11,74.14743999997154,76.14729240024462,78.07557650003582,None,False,6,['p'],False,0.4081632653061224,0.5714285714285714,0.2857142857142857,2.0,2.0,0.9885754083994552,0.0,wait_cost,1,5,76.14729240024462,None,6,ae11,4,2022-04-29_15h02.02.612,threat_forest,2021.2.3,59.909225464118215,
1,0,1,0,5,0,5,0,,,,,,,,,,left,0.6993133001960814,82.05231379996985,ae11,74.14743999997154,76.14729240024462,82.05231379996985,None,False,5,['p'],False,0.4081632653061224,0.5714285714285714,0.2857142857142857,2.0,2.0,0.9885754083994552,0.0,wait_cost,1,4,81.09740140009671,None,5,ae11,4,2022-04-29_15h02.02.612,threat_forest,2021.2.3,59.909225464118215,
1,0,1,0,6,0,6,0,,,,,,,,,,right,1.1094236997887492,87.30475219991058,ae11,87.30475219991058,None,82.78076440002769,84.7807761002332,False,4,['p'],True,0.5,0.5,0.0,0.0,2.0,0.6309297535714574,0.0,wait_cost,0,3,84.7807761002332,None,4,ae11,4,2022-04-29_15h02.02.612,threat_forest,2021.2.3,59.909225464118215,
1,0,1,0,7,0,7,0,,,,,,,,,,left,1.8164433999918401,92.23269159998745,ae11,92.23269159998745,None,82.78076440002769,84.7807761002332,True,3,['p'],True,0.5,0.5,0.0,0.0,2.0,0.6309297535714574,0.0,succ_gain,0,5,90.44775519985706,None,3,ae11,4,2022-04-29_15h02.02.612,threat_forest,2021.2.3,59.909225464118215,
1,0,1,0,,,,,,,,,,,,,,,,,,,,,,,,,,,,,,,,,,,,96.08131769997999,None,5,ae11,4,2022-04-29_15h02.02.612,threat_forest,2021.2.3,59.909225464118215,
2,0,2,0,0,0,0,0,,,,,,,96.66165440017357,100.15369530022144,None,right,0.5379810999147594,102.97833930002525,ae11,102.97833930002525,None,96.66165440017357,100.15369530022144,False,5,['r'],True,0.24,0.4,0.4,2.0,2.0,0.9801625908629508,0.0,wait_cost,0,4,,,,ae11,4,2022-04-29_15h02.02.612,threat_forest,2021.2.3,59.909225464118215,
2,0,2,0,1,0,1,0,,,,,,,,,,right,0.5625132001005113,108.8105255998671,ae11,103.54810609994456,105.54756900016218,108.8105255998671,None,True,4,['r'],False,0.16,0.2,0.2,2.0,2.0,0.8198746470064713,0.0,succ_gain,1,6,105.54756900016218,None,4,ae11,4,2022-04-29_15h02.02.612,threat_forest,2021.2.3,59.909225464118215,
2,0,2,0,2,0,2,0,,,,,,,,,,right,0.7340062004514039,115.05776710016653,ae11,115.05776710016653,None,109.39856939995661,111.39765449985862,False,6,['r'],True,0.24,0.4,0.4,2.0,2.0,0.9801625908629508,0.0,wait_cost,0,5,111.39765449985862,None,6,ae11,4,2022-04-29_15h02.02.612,threat_forest,2021.2.3,59.909225464118215,
2,0,2,0,3,0,3,0,,,,,,,,,,right,0.7198582999408245,119.53627260029316,ae11,119.53627260029316,None,109.39856939995661,111.39765449985862,False,5,['r'],True,0.24,0.4,0.4,2.0,2.0,0.9801625908629508,0.0,wait_cost,0,4,117.8147873999551,None,5,ae11,4,2022-04-29_15h02.02.612,threat_forest,2021.2.3,59.909225464118215,
2,0,2,0,4,0,4,0,,,,,,,,,,left,1.3173833000473678,125.7674711002037,ae11,120.28149720001966,122.28167840000242,125.7674711002037,None,False,4,['r'],False,0.16,0.2,0.2,2.0,2.0,0.8198746470064713,0.0,wait_cost,1,3,122.28167840000242,None,4,ae11,4,2022-04-29_15h02.02.612,threat_forest,2021.2.3,59.909225464118215,
2,0,2,0,5,0,5,0,,,,,,,,,,right,0.7941742995753884,131.37861690018326,ae11,131.37861690018326,None,127.11500340001658,129.1148275001906,False,3,['r'],True,0.24,0.4,0.4,2.0,2.0,0.9801625908629508,-0.4,wait_cost,0,2,129.1148275001906,None,3,ae11,4,2022-04-29_15h02.02.612,threat_forest,2021.2.3,59.909225464118215,
2,0,2,0,6,0,6,0,,,,,,,,,,right,0.5842506000772119,135.65397550025955,ae11,135.65397550025955,None,127.11500340001658,129.1148275001906,False,2,['r'],True,0.24,0.4,0.4,2.0,2.0,0.9801625908629508,-0.76,wait_cost,0,1,134.19825340015814,None,2,ae11,4,2022-04-29_15h02.02.612,threat_forest,2021.2.3,59.909225464118215,
2,0,2,0,7,0,7,0,,,,,,,,,,right,1.1271530999802053,141.6553270998411,ae11,141.6553270998411,None,127.11500340001658,129.1148275001906,False,1,['r'],True,0.24,0.4,0.4,2.0,2.0,0.9801625908629508,0.24,wait_cost,0,0,138.26501820003614,None,1,ae11,4,2022-04-29_15h02.02.612,threat_forest,2021.2.3,59.909225464118215,
2,0,2,0,,,,,,,,,,,,,,,,,,,,,,,,,,,,,,,,,,,,144.81527979997918,None,0,ae11,4,2022-04-29_15h02.02.612,threat_forest,2021.2.3,59.909225464118215,
3,0,3,0,0,0,0,0,,,,,,,145.8126771003008,149.31544149992988,None,right,0.5420941999182105,151.93816820019856,ae11,145.8126771003008,149.31544149992988,151.93816820019856,None,True,5,['p'],False,0.1875,0.25,0.25,2.0,1.0,0.895754137500101,0.0,unsucc_cost,1,3,,,,ae11,4,2022-04-29_15h02.02.612,threat_forest,2021.2.3,59.909225464118215,
3,0,3,0,1,0,1,0,,,,,,,,,,right,0.610753099899739,156.83183300029486,ae11,145.8126771003008,149.31544149992988,156.83183300029486,None,True,3,['p'],False,0.1875,0.25,0.25,2.0,1.0,0.895754137500101,-0.25,succ_gain,1,4,154.49861370027065,None,3,ae11,4,2022-04-29_15h02.02.612,threat_forest,2021.2.3,59.909225464118215,
3,0,3,0,2,0,2,0,,,,,,,,,,right,0.9319877997040749,162.0666415002197,ae11,145.8126771003008,149.31544149992988,162.0666415002197,None,True,4,['p'],False,0.1875,0.25,0.25,2.0,1.0,0.895754137500101,0.0,succ_gain,1,5,159.46537119988352,None,4,ae11,4,2022-04-29_15h02.02.612,threat_forest,2021.2.3,59.909225464118215,
3,0,3,0,3,0,3,0,,,,,,,,,,right,0.635574399959296,167.3907941998914,ae11,167.3907941998914,None,163.01556369988248,165.01519070006907,False,5,['p'],True,0.4444444444444445,0.6666666666666666,0.3333333333333333,1.0,1.0,0.9656336071428248,0.0,wait_cost,0,4,165.01519070006907,None,5,ae11,4,2022-04-29_15h02.02.612,threat_forest,2021.2.3,59.909225464118215,
3,0,3,0,4,0,4,0,,,,,,,,,,right,0.7010041000321507,173.81955280015245,ae11,173.81955280015245,None,163.01556369988248,165.01519070006907,False,4,['p'],True,0.4444444444444445,0.6666666666666666,0.3333333333333333,1.0,1.0,0.9656336071428248,0.0,wait_cost,0,3,170.0487641999498,None,4,ae11,4,2022-04-29_15h02.02.612,threat_forest,2021.2.3,59.909225464118215,
3,0,3,0,5,0,5,0,,,,,,,,,,left,1.6764573999680579,179.6688039000146,ae11,174.54904980026186,176.54868880007416,179.6688039000146,None,False,3,['p'],False,0.1875,0.25,0.25,2.0,1.0,0.895754137500101,-0.25,wait_cost,1,2,176.54868880007416,None,3,ae11,4,2022-04-29_15h02.02.612,threat_forest,2021.2.3,59.909225464118215,
3,0,3,0,6,0,6,0,,,,,,,,,,right,1.6266787997446954,184.98936280002818,ae11,184.98936280002818,None,181.36584979994223,183.36575620016083,False,2,['p'],True,0.4444444444444445,0.6666666666666666,0.3333333333333333,1.0,1.0,0.9656336071428248,-0.5555555555555556,wait_cost,0,1,183.36575620016083,None,2,ae11,4,2022-04-29_15h02.02.612,threat_forest,2021.2.3,59.909225464118215,
3,0,3,0,7,0,7,0,,,,,,,,,,left,0.7185045001097023,192.40150160016492,ae11,192.40150160016492,None,181.36584979994223,183.36575620016083,True,1,['p'],True,0.4444444444444445,0.6666666666666666,0.3333333333333333,1.0,1.0,0.9656336071428248,0.4444444444444444,unsucc_cost,0,0,188.632098400034,None,1,ae11,4,2022-04-29_15h02.02.612,threat_forest,2021.2.3,59.909225464118215,
3,0,3,0,,,,,,,,,,,,,,,,,,,,,,,,,,,,,,,,,,,,195.14946909993887,None,0,ae11,4,2022-04-29_15h02.02.612,threat_forest,2021.2.3,59.909225464118215,
4,0,4,0,0,0,0,0,,,,,,,197.471423599869,200.9827133999206,None,left,0.7472430001944304,202.2385923000984,ae11,202.2385923000984,None,197.471423599869,200.9827133999206,True,4,['r'],True,0.4444444444444445,0.6666666666666666,0.3333333333333333,1.0,2.0,0.9656336071428248,0.0,unsucc_cost,0,2,,,,ae11,4,2022-04-29_15h02.02.612,threat_forest,2021.2.3,59.909225464118215,
4,0,4,0,1,0,1,0,,,,,,,,,,left,0.6932991999201477,208.023674600292,ae11,203.0161588001065,205.01613230025396,208.023674600292,None,False,2,['r'],False,0.2222222222222222,0.2222222222222222,0.0,0.0,2.0,0.4821593609696809,-0.7777777777777778,wait_cost,1,1,205.01613230025396,None,2,ae11,4,2022-04-29_15h02.02.612,threat_forest,2021.2.3,59.909225464118215,
4,0,4,0,2,0,2,0,,,,,,,,,,left,0.8256395999342203,213.23887640004978,ae11,213.23887640004978,None,208.7375165000558,210.74926930014044,True,1,['r'],True,0.4444444444444445,0.6666666666666666,0.3333333333333333,1.0,2.0,0.9656336071428248,0.4444444444444444,fight_cost,0,0,210.74926930014044,None,1,ae11,4,2022-04-29_15h02.02.612,threat_forest,2021.2.3,59.909225464118215,
4,0,4,0,,,,,,,,,,,,,,,,,,,,,,,,,,,,,,,,,,,,216.08302769996226,None,0,ae11,4,2022-04-29_15h02.02.612,threat_forest,2021.2.3,59.909225464118215,
5,0,5,0,0,0,0,0,,,,,,,217.0468274001032,220.5496109998785,None,left,0.7001228998415172,221.5237147998996,ae11,221.5237147998996,None,217.0468274001032,220.5496109998785,True,5,['p'],True,0.5,0.5,0.0,0.0,1.0,0.6309297535714574,0.0,unsucc_cost,0,3,,,,ae11,4,2022-04-29_15h02.02.612,threat_forest,2021.2.3,59.909225464118215,
5,0,5,0,1,0,1,0,,,,,,,,,,left,0.47738830000162125,226.36627939995378,ae11,226.36627939995378,None,217.0468274001032,220.5496109998785,True,3,['p'],True,0.5,0.5,0.0,0.0,1.0,0.6309297535714574,0.0,unsucc_cost,0,1,224.24968740018085,None,3,ae11,4,2022-04-29_15h02.02.612,threat_forest,2021.2.3,59.909225464118215,
5,0,5,0,2,0,2,0,,,,,,,,,,right,0.8771744999103248,232.3396328999661,ae11,226.8663837001659,228.8661873000674,232.3396328999661,None,True,1,['p'],False,0.4081632653061224,0.5714285714285714,0.2857142857142857,2.0,1.0,0.9885754083994552,0.4081632653061224,unsucc_cost,1,0,228.8661873000674,None,1,ae11,4,2022-04-29_15h02.02.612,threat_forest,2021.2.3,59.909225464118215,
5,0,5,0,,,,,,,,,,,,,,,,,,,,,,,,,,,,,,,,,,,,235.2333911000751,None,0,ae11,4,2022-04-29_15h02.02.612,threat_forest,2021.2.3,59.909225464118215,
6,0,6,0,0,0,0,0,,,,,,,237.39572100015357,240.89987119985744,None,left,0.631351999938488,242.4907905999571,ae11,242.4907905999571,None,237.39572100015357,240.89987119985744,True,4,['p'],True,0.4,0.4,0.0,0.0,2.0,0.6126016192893442,0.0,unsucc_cost,0,2,,,,ae11,4,2022-04-29_15h02.02.612,threat_forest,2021.2.3,59.909225464118215,
6,0,6,0,1,0,1,0,,,,,,,,,,left,1.0291984998621047,246.42221869993955,ae11,243.15354199986905,245.16616530017927,246.42221869993955,None,False,2,['p'],False,0.3333333333333333,0.5,0.3333333333333333,2.0,2.0,1.0,-0.6666666666666667,wait_cost,1,1,245.16616530017927,None,2,ae11,4,2022-04-29_15h02.02.612,threat_forest,2021.2.3,59.909225464118215,
6,0,6,0,2,0,2,0,,,,,,,,,,left,0.7138752001337707,251.1367071000859,ae11,251.1367071000859,None,247.48381190001965,249.48328160028905,True,1,['p'],True,0.4,0.4,0.0,0.0,2.0,0.6126016192893442,0.4,unsucc_cost,0,0,249.48328160028905,None,1,ae11,4,2022-04-29_15h02.02.612,threat_forest,2021.2.3,59.909225464118215,
6,0,6,0,,,,,,,,,,,,,,,,,,,,,,,,,,,,,,,,,,,,253.88382779993117,None,0,ae11,4,2022-04-29_15h02.02.612,threat_forest,2021.2.3,59.909225464118215,
7,0,7,0,0,0,0,0,,,,,,,255.20671440009028,258.7163034998812,None,left,1.0076028001494706,262.52468639984727,ae11,255.20671440009028,258.7163034998812,262.52468639984727,None,False,5,['r'],False,0.2222222222222222,0.6666666666666666,0.6666666666666666,2.0,2.0,0.77250688571426,0.0,wait_cost,1,4,,,,ae11,4,2022-04-29_15h02.02.612,threat_forest,2021.2.3,59.909225464118215,
7,0,7,0,1,0,1,0,,,,,,,,,,left,0.9268632000312209,266.33765059988946,ae11,266.33765059988946,None,263.55010069999844,265.5502745001577,True,4,['r'],True,0.3333333333333333,0.3333333333333333,0.0,0.0,2.0,0.5793801642856949,0.0,succ_gain,0,6,265.5502745001577,None,4,ae11,4,2022-04-29_15h02.02.612,threat_forest,2021.2.3,59.909225464118215,
7,0,7,0,2,0,2,0,,,,,,,,,,right,1.1807564999908209,269.8348608002998,ae11,269.8348608002998,None,263.55010069999844,265.5502745001577,False,6,['r'],True,0.3333333333333333,0.3333333333333333,0.0,0.0,2.0,0.5793801642856949,0.0,wait_cost,0,5,269.2834431999363,None,6,ae11,4,2022-04-29_15h02.02.612,threat_forest,2021.2.3,59.909225464118215,
7,0,7,0,3,0,3,0,,,,,,,,,,right,1.337711799889803,273.9510290999897,ae11,273.9510290999897,None,263.55010069999844,265.5502745001577,False,5,['r'],True,0.3333333333333333,0.3333333333333333,0.0,0.0,2.0,0.5793801642856949,0.0,wait_cost,0,4,273.033516400028,None,5,ae11,4,2022-04-29_15h02.02.612,threat_forest,2021.2.3,59.909225464118215,
7,0,7,0,4,0,4,0,,,,,,,,,,left,0.414478600025177,279.4879967998713,ae11,275.31727800006047,277.3166208001785,279.4879967998713,None,False,4,['r'],False,0.2222222222222222,0.6666666666666666,0.6666666666666666,2.0,2.0,0.77250688571426,0.0,wait_cost,1,3,277.3166208001785,None,4,ae11,4,2022-04-29_15h02.02.612,threat_forest,2021.2.3,59.909225464118215,
7,0,7,0,5,0,5,0,,,,,,,,,,left,0.43028319999575615,284.7355936001986,ae11,275.31727800006047,277.3166208001785,284.7355936001986,None,False,3,['r'],False,0.2222222222222222,0.6666666666666666,0.6666666666666666,2.0,2.0,0.77250688571426,-0.6666666666666666,wait_cost,1,2,281.9334034998901,None,3,ae11,4,2022-04-29_15h02.02.612,threat_forest,2021.2.3,59.909225464118215,
7,0,7,0,6,0,6,0,,,,,,,,,,left,0.8943260000087321,288.23602800024673,ae11,275.31727800006047,277.3166208001785,288.23602800024673,None,False,2,['r'],False,0.2222222222222222,0.6666666666666666,0.6666666666666666,2.0,2.0,0.77250688571426,-0.7777777777777778,wait_cost,1,1,287.18346380023286,None,2,ae11,4,2022-04-29_15h02.02.612,threat_forest,2021.2.3,59.909225464118215,
7,0,7,0,7,0,7,0,,,,,,,,,,right,0.9810603000223637,294.2506352001801,ae11,275.31727800006047,277.3166208001785,294.2506352001801,None,True,1,['r'],False,0.2222222222222222,0.6666666666666666,0.6666666666666666,2.0,2.0,0.77250688571426,0.2222222222222222,succ_gain,1,3,291.15062860026956,None,1,ae11,4,2022-04-29_15h02.02.612,threat_forest,2021.2.3,59.909225464118215,
7,0,7,0,,,,,,,,,,,,,,,,,,,,,,,,,,,,,,,,,,,,297.25040009990335,None,3,ae11,4,2022-04-29_15h02.02.612,threat_forest,2021.2.3,59.909225464118215,
8,0,8,0,0,0,0,0,,,,,,,299.2932687001303,302.800256700255,None,left,1.066468299832195,306.4239064999856,ae11,306.4239064999856,None,299.2932687001303,302.800256700255,True,5,['r'],True,0.5,0.5,0.0,0.0,2.0,0.6309297535714574,0.0,unsucc_cost,0,3,,,,ae11,4,2022-04-29_15h02.02.612,threat_forest,2021.2.3,59.909225464118215,
8,0,8,0,1,0,1,0,,,,,,,,,,left,0.7191822999157012,312.40259280009195,ae11,312.40259280009195,None,299.2932687001303,302.800256700255,True,3,['r'],True,0.5,0.5,0.0,0.0,2.0,0.6309297535714574,0.0,unsucc_cost,0,1,309.51752640027553,None,3,ae11,4,2022-04-29_15h02.02.612,threat_forest,2021.2.3,59.909225464118215,
8,0,8,0,2,0,2,0,,,,,,,,,,right,1.3592382003553212,317.6239038002677,ae11,313.1521319001913,315.1674700998701,317.6239038002677,None,True,1,['r'],False,0.36,0.6,0.4,2.0,2.0,0.9801625908629508,0.36,succ_gain,1,3,315.1674700998701,None,1,ae11,4,2022-04-29_15h02.02.612,threat_forest,2021.2.3,59.909225464118215,
8,0,8,0,3,0,3,0,,,,,,,,,,left,0.6901043998077512,322.70698750019073,ae11,322.70698750019073,None,319.0010800999589,321.00121039990336,True,3,['r'],True,0.5,0.5,0.0,0.0,2.0,0.6309297535714574,0.0,unsucc_cost,0,1,321.00121039990336,None,3,ae11,4,2022-04-29_15h02.02.612,threat_forest,2021.2.3,59.909225464118215,
8,0,8,0,4,0,4,0,,,,,,,,,,left,0.574573100078851,328.76775470003486,ae11,328.76775470003486,None,319.0010800999589,321.00121039990336,True,1,['r'],True,0.5,0.5,0.0,0.0,2.0,0.6309297535714574,0.5,succ_gain,0,3,325.4175873002969,None,1,ae11,4,2022-04-29_15h02.02.612,threat_forest,2021.2.3,59.909225464118215,
8,0,8,0,5,0,5,0,,,,,,,,,,left,1.4169711996801198,332.6086757001467,ae11,332.6086757001467,None,319.0010800999589,321.00121039990336,True,3,['r'],True,0.5,0.5,0.0,0.0,2.0,0.6309297535714574,0.0,unsucc_cost,0,1,331.3678724998608,None,3,ae11,4,2022-04-29_15h02.02.612,threat_forest,2021.2.3,59.909225464118215,
8,0,8,0,6,0,6,0,,,,,,,,,,left,0.7800102001056075,337.7010273002088,ae11,337.7010273002088,None,319.0010800999589,321.00121039990336,True,1,['r'],True,0.5,0.5,0.0,0.0,2.0,0.6309297535714574,0.5,unsucc_cost,0,0,336.0511047001928,None,1,ae11,4,2022-04-29_15h02.02.612,threat_forest,2021.2.3,59.909225464118215,
8,0,8,0,,,,,,,,,,,,,,,,,,,,,,,,,,,,,,,,,,,,340.5013900999911,None,0,ae11,4,2022-04-29_15h02.02.612,threat_forest,2021.2.3,59.909225464118215,
9,0,9,0,0,0,0,0,,,,,,,342.61206280020997,346.11802880000323,None,right,0.35901750018820167,347.0287045002915,ae11,347.0287045002915,None,342.61206280020997,346.11802880000323,False,5,['r'],True,0.4444444444444445,0.6666666666666666,0.3333333333333333,1.0,1.0,0.9656336071428248,0.0,wait_cost,0,4,,,,ae11,4,2022-04-29_15h02.02.612,threat_forest,2021.2.3,59.909225464118215,
9,0,9,0,1,0,1,0,,,,,,,,,,right,0.37860130006447434,351.8073929999955,ae11,347.41792060015723,349.41791009996086,351.8073929999955,None,True,4,['r'],False,0.1975308641975308,0.2222222222222222,0.1111111111111111,1.0,1.0,0.7461067557824965,0.0,unsucc_cost,1,2,349.41791009996086,None,4,ae11,4,2022-04-29_15h02.02.612,threat_forest,2021.2.3,59.909225464118215,
9,0,9,0,2,0,2,0,,,,,,,,,,right,0.6679297997616231,356.35136649990454,ae11,347.41792060015723,349.41791009996086,356.35136649990454,None,True,2,['r'],False,0.1975308641975308,0.2222222222222222,0.1111111111111111,1.0,1.0,0.7461067557824965,-0.8024691358024691,succ_gain,1,3,354.21781609999016,None,2,ae11,4,2022-04-29_15h02.02.612,threat_forest,2021.2.3,59.909225464118215,
9,0,9,0,3,0,3,0,,,,,,,,,,right,0.4754592999815941,360.6438286001794,ae11,360.6438286001794,None,357.05172439990565,359.05192500026897,False,3,['r'],True,0.4444444444444445,0.6666666666666666,0.3333333333333333,1.0,1.0,0.9656336071428248,-0.3333333333333333,wait_cost,0,2,359.05192500026897,None,3,ae11,4,2022-04-29_15h02.02.612,threat_forest,2021.2.3,59.909225464118215,
9,0,9,0,4,0,4,0,,,,,,,,,,right,0.7520971996709704,364.6714842999354,ae11,364.6714842999354,None,357.05172439990565,359.05192500026897,False,2,['r'],True,0.4444444444444445,0.6666666666666666,0.3333333333333333,1.0,1.0,0.9656336071428248,-0.5555555555555556,wait_cost,0,1,363.15152959991246,None,2,ae11,4,2022-04-29_15h02.02.612,threat_forest,2021.2.3,59.909225464118215,
9,0,9,0,5,0,5,0,,,,,,,,,,left,2.740921600256115,370.05573710007593,ae11,370.05573710007593,None,357.05172439990565,359.05192500026897,True,1,['r'],True,0.4444444444444445,0.6666666666666666,0.3333333333333333,1.0,1.0,0.9656336071428248,0.4444444444444444,succ_gain,0,2,367.4516696999781,None,1,ae11,4,2022-04-29_15h02.02.612,threat_forest,2021.2.3,59.909225464118215,
9,0,9,0,6,0,6,0,,,,,,,,,,right,2.016747400164604,376.2054961002432,ae11,376.2054961002432,None,357.05172439990565,359.05192500026897,False,2,['r'],True,0.4444444444444445,0.6666666666666666,0.3333333333333333,1.0,1.0,0.9656336071428248,-0.5555555555555556,wait_cost,0,1,374.8179879998788,None,2,ae11,4,2022-04-29_15h02.02.612,threat_forest,2021.2.3,59.909225464118215,
9,0,9,0,7,0,7,0,,,,,,,,,,left,0.9132668999955058,381.8388594002463,ae11,381.8388594002463,None,357.05172439990565,359.05192500026897,True,1,['r'],True,0.4444444444444445,0.6666666666666666,0.3333333333333333,1.0,1.0,0.9656336071428248,0.4444444444444444,unsucc_cost,0,0,380.2515711998567,None,1,ae11,4,2022-04-29_15h02.02.612,threat_forest,2021.2.3,59.909225464118215,
9,0,9,0,,,,,,,,,,,,,,,,,,,,,,,,,,,,,,,,,,,,384.76851540012285,None,0,ae11,4,2022-04-29_15h02.02.612,threat_forest,2021.2.3,59.909225464118215,
10,0,10,0,0,0,0,0,,,,,,,386.7472635000013,390.25210150005296,None,left,0.7027758997865021,392.7869762000628,ae11,392.7869762000628,None,386.7472635000013,390.25210150005296,True,4,['p'],True,0.25,0.5,0.5,1.0,2.0,0.9463946303571862,0.0,fight_cost,0,1,,,,ae11,4,2022-04-29_15h02.02.612,threat_forest,2021.2.3,59.909225464118215,
10,0,10,0,1,0,1,0,,,,,,,,,,left,0.9772856999188662,399.15226870030165,ae11,399.15226870030165,None,386.7472635000013,390.25210150005296,True,1,['p'],True,0.25,0.5,0.5,1.0,2.0,0.9463946303571862,0.25,unsucc_cost,0,0,395.5189948002808,None,1,ae11,4,2022-04-29_15h02.02.612,threat_forest,2021.2.3,59.909225464118215,
10,0,10,0,,,,,,,,,,,,,,,,,,,,,,,,,,,,,,,,,,,,402.152111900039,None,0,ae11,4,2022-04-29_15h02.02.612,threat_forest,2021.2.3,59.909225464118215,
11,0,11,0,0,0,0,0,,,,,,,404.3915753001347,407.9027261999436,None,left,0.4114815001375973,410.80954799987376,ae11,410.80954799987376,None,404.3915753001347,407.9027261999436,True,4,['r'],True,0.4,0.4,0.0,0.0,1.0,0.6126016192893442,0.0,unsucc_cost,0,2,,,,ae11,4,2022-04-29_15h02.02.612,threat_forest,2021.2.3,59.909225464118215,
11,0,11,0,1,0,1,0,,,,,,,,,,left,1.1486689997836947,415.1359538999386,ae11,415.1359538999386,None,404.3915753001347,407.9027261999436,True,2,['r'],True,0.4,0.4,0.0,0.0,1.0,0.6126016192893442,-0.6,succ_gain,0,3,413.2524442002177,None,2,ae11,4,2022-04-29_15h02.02.612,threat_forest,2021.2.3,59.909225464118215,
11,0,11,0,2,0,2,0,,,,,,,,,,left,0.3584394003264606,421.8953072000295,ae11,416.30305900005624,418.3025100999512,421.8953072000295,None,False,3,['r'],False,0.3061224489795918,0.4285714285714285,0.2857142857142857,2.0,1.0,0.9885754083994552,-0.2857142857142857,wait_cost,1,2,418.3025100999512,None,3,ae11,4,2022-04-29_15h02.02.612,threat_forest,2021.2.3,59.909225464118215,
11,0,11,0,3,0,3,0,,,,,,,,,,left,1.7928220997564495,425.23990030027926,ae11,425.23990030027926,None,422.2860846002586,424.2860228000209,True,2,['r'],True,0.4,0.4,0.0,0.0,1.0,0.6126016192893442,-0.6,succ_gain,0,3,424.2860228000209,None,2,ae11,4,2022-04-29_15h02.02.612,threat_forest,2021.2.3,59.909225464118215,
11,0,11,0,4,0,4,0,,,,,,,,,,left,1.4652207996696234,430.70917980000377,ae11,427.05280529987067,429.0528478999622,430.70917980000377,None,False,3,['r'],False,0.3061224489795918,0.4285714285714285,0.2857142857142857,2.0,1.0,0.9885754083994552,-0.2857142857142857,wait_cost,1,2,429.0528478999622,None,3,ae11,4,2022-04-29_15h02.02.612,threat_forest,2021.2.3,59.909225464118215,
11,0,11,0,5,0,5,0,,,,,,,,,,left,1.6259012999944389,434.9589689001441,ae11,434.9589689001441,None,432.20325870020315,434.2028705999255,True,2,['r'],True,0.4,0.4,0.0,0.0,1.0,0.6126016192893442,-0.6,unsucc_cost,0,0,434.2028705999255,None,2,ae11,4,2022-04-29_15h02.02.612,threat_forest,2021.2.3,59.909225464118215,
11,0,11,0,,,,,,,,,,,,,,,,,,,,,,,,,,,,,,,,,,,,438.60291220014915,None,0,ae11,4,2022-04-29_15h02.02.612,threat_forest,2021.2.3,59.909225464118215,
12,0,12,0,0,0,0,0,,,,,,,441.2525712000206,444.75694700004533,None,right,0.8465105001814663,446.4106999998912,ae11,441.2525712000206,444.75694700004533,446.4106999998912,None,True,5,['p'],False,0.27,0.3,0.1,1.0,1.0,0.7963326591781347,0.0,unsucc_cost,1,3,,,,ae11,4,2022-04-29_15h02.02.612,threat_forest,2021.2.3,59.909225464118215,
12,0,12,0,1,0,1,0,,,,,,,,,,right,1.0488008996471763,450.5386227001436,ae11,441.2525712000206,444.75694700004533,450.5386227001436,None,True,3,['p'],False,0.27,0.3,0.1,1.0,1.0,0.7963326591781347,-0.1,succ_gain,1,4,449.2859760001302,None,3,ae11,4,2022-04-29_15h02.02.612,threat_forest,2021.2.3,59.909225464118215,
12,0,12,0,2,0,2,0,,,,,,,,,,right,1.5994715001434088,456.43616360006854,ae11,441.2525712000206,444.75694700004533,456.43616360006854,None,True,4,['p'],False,0.27,0.3,0.1,1.0,1.0,0.7963326591781347,0.0,succ_gain,1,5,453.6192240002565,None,4,ae11,4,2022-04-29_15h02.02.612,threat_forest,2021.2.3,59.909225464118215,
12,0,12,0,3,0,3,0,,,,,,,,,,right,0.7178253000602126,462.03596229990944,ae11,462.03596229990944,None,458.0531808002852,460.0529175000265,False,5,['p'],True,0.4166666666666667,0.5,0.1666666666666666,1.0,1.0,0.9358932809493992,0.0,wait_cost,0,4,460.0529175000265,None,5,ae11,4,2022-04-29_15h02.02.612,threat_forest,2021.2.3,59.909225464118215,
12,0,12,0,4,0,4,0,,,,,,,,,,left,0.5756410001777112,465.5796202002093,ae11,462.77202029991895,464.78656420018524,465.5796202002093,None,False,4,['p'],False,0.27,0.3,0.1,1.0,1.0,0.7963326591781347,0.0,wait_cost,1,3,464.78656420018524,None,4,ae11,4,2022-04-29_15h02.02.612,threat_forest,2021.2.3,59.909225464118215,
12,0,12,0,5,0,5,0,,,,,,,,,,left,1.834979200270027,471.9214917002246,ae11,462.77202029991895,464.78656420018524,471.9214917002246,None,False,3,['p'],False,0.27,0.3,0.1,1.0,1.0,0.7963326591781347,-0.1,wait_cost,1,2,468.1864454001188,None,3,ae11,4,2022-04-29_15h02.02.612,threat_forest,2021.2.3,59.909225464118215,
12,0,12,0,6,0,6,0,,,,,,,,,,right,0.8056797999888659,477.8388260002248,ae11,462.77202029991895,464.78656420018524,477.8388260002248,None,True,2,['p'],False,0.27,0.3,0.1,1.0,1.0,0.7963326591781347,-0.73,succ_gain,1,3,475.7864041002467,None,2,ae11,4,2022-04-29_15h02.02.612,threat_forest,2021.2.3,59.909225464118215,
12,0,12,0,7,0,7,0,,,,,,,,,,right,0.6353335003368556,482.92712240014225,ae11,482.92712240014225,None,478.66993630025536,480.6700629000552,False,3,['p'],True,0.4166666666666667,0.5,0.1666666666666666,1.0,1.0,0.9358932809493992,-0.1666666666666666,wait_cost,0,2,480.6700629000552,None,3,ae11,4,2022-04-29_15h02.02.612,threat_forest,2021.2.3,59.909225464118215,
12,0,12,0,,,,,,,,,,,,,,,,,,,,,,,,,,,,,,,,,,,,485.5864333002828,None,2,ae11,4,2022-04-29_15h02.02.612,threat_forest,2021.2.3,59.909225464118215,
13,0,13,0,0,0,0,0,,,,,,,488.2372004999779,491.7297669001855,None,right,0.48320019990205765,492.6957959998399,ae11,488.2372004999779,491.7297669001855,492.6957959998399,None,True,5,['r'],False,0.24,0.3,0.2,2.0,2.0,0.9003120349047065,0.0,unsucc_cost,1,3,,,,ae11,4,2022-04-29_15h02.02.612,threat_forest,2021.2.3,59.909225464118215,
13,0,13,0,1,0,1,0,,,,,,,,,,right,0.5286147003062069,498.657108000014,ae11,488.2372004999779,491.7297669001855,498.657108000014,None,True,3,['r'],False,0.24,0.3,0.2,2.0,2.0,0.9003120349047065,-0.2,unsucc_cost,1,1,495.2029638001695,None,3,ae11,4,2022-04-29_15h02.02.612,threat_forest,2021.2.3,59.909225464118215,
13,0,13,0,2,0,2,0,,,,,,,,,,left,0.631695399992168,504.777991599869,ae11,504.777991599869,None,499.2038313001394,501.20302319992334,True,1,['r'],True,0.2857142857142857,0.2857142857142857,0.0,0.0,2.0,0.5445684476282007,0.2857142857142857,succ_gain,0,3,501.20302319992334,None,1,ae11,4,2022-04-29_15h02.02.612,threat_forest,2021.2.3,59.909225464118215,
13,0,13,0,3,0,3,0,,,,,,,,,,right,0.7605140996165574,509.04743519984186,ae11,505.4374036998488,507.43710059998557,509.04743519984186,None,True,3,['r'],False,0.24,0.3,0.2,2.0,2.0,0.9003120349047065,-0.2,unsucc_cost,1,1,507.43710059998557,None,3,ae11,4,2022-04-29_15h02.02.612,threat_forest,2021.2.3,59.909225464118215,
13,0,13,0,4,0,4,0,,,,,,,,,,right,0.5049050999805331,515.5225248001516,ae11,505.4374036998488,507.43710059998557,515.5225248001516,None,True,1,['r'],False,0.24,0.3,0.2,2.0,2.0,0.9003120349047065,0.24,succ_gain,1,3,511.8373461002484,None,1,ae11,4,2022-04-29_15h02.02.612,threat_forest,2021.2.3,59.909225464118215,
13,0,13,0,5,0,5,0,,,,,,,,,,right,0.8380617997609079,520.2131568002515,ae11,520.2131568002515,None,516.0539962998591,518.0538083002903,False,3,['r'],True,0.2857142857142857,0.2857142857142857,0.0,0.0,2.0,0.5445684476282007,0.0,wait_cost,0,2,518.0538083002903,None,3,ae11,4,2022-04-29_15h02.02.612,threat_forest,2021.2.3,59.909225464118215,
13,0,13,0,6,0,6,0,,,,,,,,,,right,0.7831433000974357,525.0746734002605,ae11,525.0746734002605,None,516.0539962998591,518.0538083002903,False,2,['r'],True,0.2857142857142857,0.2857142857142857,0.0,0.0,2.0,0.5445684476282007,-0.7142857142857143,wait_cost,0,1,523.0706664999016,None,2,ae11,4,2022-04-29_15h02.02.612,threat_forest,2021.2.3,59.909225464118215,
13,0,13,0,7,0,7,0,,,,,,,,,,left,0.7734687998890877,530.9113171002828,ae11,530.9113171002828,None,516.0539962998591,518.0538083002903,True,1,['r'],True,0.2857142857142857,0.2857142857142857,0.0,0.0,2.0,0.5445684476282007,0.2857142857142857,unsucc_cost,0,0,527.8873525001109,None,1,ae11,4,2022-04-29_15h02.02.612,threat_forest,2021.2.3,59.909225464118215,
13,0,13,0,,,,,,,,,,,,,,,,,,,,,,,,,,,,,,,,,,,,533.704318900127,None,0,ae11,4,2022-04-29_15h02.02.612,threat_forest,2021.2.3,59.909225464118215,
14,0,14,0,0,0,0,0,,,,,,,537.3155775000341,540.8208186998963,None,right,0.49355110013857484,543.6596063002944,ae11,537.3155775000341,540.8208186998963,543.6596063002944,None,True,4,['r'],False,0.4081632653061224,0.5714285714285714,0.2857142857142857,2.0,1.0,0.9885754083994552,0.0,unsucc_cost,1,2,,,,ae11,4,2022-04-29_15h02.02.612,threat_forest,2021.2.3,59.909225464118215,
14,0,14,0,1,0,1,0,,,,,,,,,,right,0.7182828998193145,548.6374840000644,ae11,537.3155775000341,540.8208186998963,548.6374840000644,None,True,2,['r'],False,0.4081632653061224,0.5714285714285714,0.2857142857142857,2.0,1.0,0.9885754083994552,-0.5918367346938775,unsucc_cost,1,0,546.1709165000357,None,2,ae11,4,2022-04-29_15h02.02.612,threat_forest,2021.2.3,59.909225464118215,
14,0,14,0,,,,,,,,,,,,,,,,,,,,,,,,,,,,,,,,,,,,551.3880080999807,None,0,ae11,4,2022-04-29_15h02.02.612,threat_forest,2021.2.3,59.909225464118215,
15,0,15,0,0,0,0,0,,,,,,,554.4666089001112,557.9711573999375,None,left,0.894875600002706,559.1890806001611,ae11,559.1890806001611,None,554.4666089001112,557.9711573999375,True,4,['r'],True,0.6,0.6,0.0,0.0,1.0,0.6126016192893442,0.0,succ_gain,0,5,,,,ae11,4,2022-04-29_15h02.02.612,threat_forest,2021.2.3,59.909225464118215,
15,0,15,0,1,0,1,0,,,,,,,,,,left,1.1779755000025034,562.8352151000872,ae11,560.1047881999984,562.1044303001836,562.8352151000872,None,False,5,['r'],False,0.46875,0.625,0.25,2.0,1.0,0.9634951148421658,0.0,wait_cost,1,4,562.1044303001836,None,5,ae11,4,2022-04-29_15h02.02.612,threat_forest,2021.2.3,59.909225464118215,
15,0,15,0,2,0,2,0,,,,,,,,,,left,0.9369340999983251,567.8610252002254,ae11,567.8610252002254,None,564.0382747999392,566.038319000043,True,4,['r'],True,0.6,0.6,0.0,0.0,1.0,0.6126016192893442,0.0,succ_gain,0,5,566.038319000043,None,4,ae11,4,2022-04-29_15h02.02.612,threat_forest,2021.2.3,59.909225464118215,
15,0,15,0,3,0,3,0,,,,,,,,,,left,1.43796919984743,572.6455375002697,ae11,568.821439600084,570.8214257000946,572.6455375002697,None,False,5,['r'],False,0.46875,0.625,0.25,2.0,1.0,0.9634951148421658,0.0,wait_cost,1,4,570.8214257000946,None,5,ae11,4,2022-04-29_15h02.02.612,threat_forest,2021.2.3,59.909225464118215,
15,0,15,0,4,0,4,0,,,,,,,,,,left,1.178113100118935,579.2446674001403,ae11,568.821439600084,570.8214257000946,579.2446674001403,None,False,4,['r'],False,0.46875,0.625,0.25,2.0,1.0,0.9634951148421658,0.0,wait_cost,1,3,576.121354599949,None,4,ae11,4,2022-04-29_15h02.02.612,threat_forest,2021.2.3,59.909225464118215,
15,0,15,0,5,0,5,0,,,,,,,,,,left,1.9986248002387583,584.4397276998498,ae11,584.4397276998498,None,580.4549356000498,582.4546219999902,True,3,['r'],True,0.6,0.6,0.0,0.0,1.0,0.6126016192893442,0.0,succ_gain,0,4,582.4546219999902,None,3,ae11,4,2022-04-29_15h02.02.612,threat_forest,2021.2.3,59.909225464118215,
15,0,15,0,6,0,6,0,,,,,,,,,,left,0.926239600405097,591.5125955999829,ae11,586.4600137001835,588.4713457999751,591.5125955999829,None,False,4,['r'],False,0.46875,0.625,0.25,2.0,1.0,0.9634951148421658,0.0,wait_cost,1,3,588.4713457999751,None,4,ae11,4,2022-04-29_15h02.02.612,threat_forest,2021.2.3,59.909225464118215,
15,0,15,0,7,0,7,0,,,,,,,,,,left,0.8489036001265049,596.8419360001571,ae11,586.4600137001835,588.4713457999751,596.8419360001571,None,False,3,['r'],False,0.46875,0.625,0.25,2.0,1.0,0.9634951148421658,-0.25,wait_cost,1,2,594.4717712001875,None,3,ae11,4,2022-04-29_15h02.02.612,threat_forest,2021.2.3,59.909225464118215,
15,0,15,0,,,,,,,,,,,,,,,,,,,,,,,,,,,,,,,,,,,,599.7220077002421,None,2,ae11,4,2022-04-29_15h02.02.612,threat_forest,2021.2.3,59.909225464118215,
16,0,16,0,0,0,0,0,,,,,,,601.5150160999037,605.0219999002293,None,right,0.6371806003153324,606.2970777000301,ae11,606.2970777000301,None,601.5150160999037,605.0219999002293,False,4,['r'],True,0.4444444444444445,0.6666666666666666,0.3333333333333333,1.0,2.0,0.9656336071428248,0.0,wait_cost,0,3,,,,ae11,4,2022-04-29_15h02.02.612,threat_forest,2021.2.3,59.909225464118215,
16,0,16,0,1,0,1,0,,,,,,,,,,right,0.5054565998725593,612.1336794001982,ae11,606.9553251001053,608.9552755998448,612.1336794001982,None,True,3,['r'],False,0.2448979591836734,0.2857142857142857,0.1428571428571428,1.0,2.0,0.8400769154957735,-0.1428571428571428,succ_gain,1,5,608.9552755998448,None,3,ae11,4,2022-04-29_15h02.02.612,threat_forest,2021.2.3,59.909225464118215,
16,0,16,0,2,0,2,0,,,,,,,,,,right,1.0394704001955688,618.4082154002972,ae11,606.9553251001053,608.9552755998448,618.4082154002972,None,True,5,['r'],False,0.2448979591836734,0.2857142857142857,0.1428571428571428,1.0,2.0,0.8400769154957735,0.0,unsucc_cost,1,3,614.6555977002718,None,5,ae11,4,2022-04-29_15h02.02.612,threat_forest,2021.2.3,59.909225464118215,
16,0,16,0,3,0,3,0,,,,,,,,,,right,1.1411641002632678,623.0406406000257,ae11,606.9553251001053,608.9552755998448,623.0406406000257,None,True,3,['r'],False,0.2448979591836734,0.2857142857142857,0.1428571428571428,1.0,2.0,0.8400769154957735,-0.1428571428571428,succ_gain,1,5,621.4721844000742,None,3,ae11,4,2022-04-29_15h02.02.612,threat_forest,2021.2.3,59.909225464118215,
16,0,16,0,4,0,4,0,,,,,,,,,,left,0.7263426003046334,627.9752263999544,ae11,606.9553251001053,608.9552755998448,627.9752263999544,None,False,5,['r'],False,0.2448979591836734,0.2857142857142857,0.1428571428571428,1.0,2.0,0.8400769154957735,0.0,wait_cost,1,4,626.2058633002453,None,5,ae11,4,2022-04-29_15h02.02.612,threat_forest,2021.2.3,59.909225464118215,
16,0,16,0,5,0,5,0,,,,,,,,,,right,0.6612189998850226,634.4791985000484,ae11,634.4791985000484,None,628.7224870999344,630.7222703001462,False,4,['r'],True,0.4444444444444445,0.6666666666666666,0.3333333333333333,1.0,2.0,0.9656336071428248,0.0,wait_cost,0,3,630.7222703001462,None,4,ae11,4,2022-04-29_15h02.02.612,threat_forest,2021.2.3,59.909225464118215,
16,0,16,0,6,0,6,0,,,,,,,,,,right,0.6952021000906825,640.3575479001738,ae11,640.3575479001738,None,628.7224870999344,630.7222703001462,False,3,['r'],True,0.4444444444444445,0.6666666666666666,0.3333333333333333,1.0,2.0,0.9656336071428248,-0.3333333333333333,wait_cost,0,2,637.1723405001685,None,3,ae11,4,2022-04-29_15h02.02.612,threat_forest,2021.2.3,59.909225464118215,
16,0,16,0,7,0,7,0,,,,,,,,,,left,1.383978699799627,645.0935324998572,ae11,641.0729225999676,643.0722843999974,645.0935324998572,None,False,2,['r'],False,0.2448979591836734,0.2857142857142857,0.1428571428571428,1.0,2.0,0.8400769154957735,-0.7551020408163265,wait_cost,1,1,643.0722843999974,None,2,ae11,4,2022-04-29_15h02.02.612,threat_forest,2021.2.3,59.909225464118215,
16,0,16,0,,,,,,,,,,,,,,,,,,,,,,,,,,,,,,,,,,,,648.5061665000394,None,1,ae11,4,2022-04-29_15h02.02.612,threat_forest,2021.2.3,59.909225464118215,
17,0,17,0,0,0,0,0,,,,,,,649.8078447002918,653.3221648000181,None,left,1.1216017003171146,655.4832501001656,ae11,649.8078447002918,653.3221648000181,655.4832501001656,None,False,4,['r'],False,0.1728395061728395,0.2222222222222222,0.2222222222222222,2.0,2.0,0.8571721972794328,0.0,wait_cost,1,3,,,,ae11,4,2022-04-29_15h02.02.612,threat_forest,2021.2.3,59.909225464118215,
17,0,17,0,1,0,1,0,,,,,,,,,,left,0.6781267002224922,659.9268157999031,ae11,649.8078447002918,653.3221648000181,659.9268157999031,None,False,3,['r'],False,0.1728395061728395,0.2222222222222222,0.2222222222222222,2.0,2.0,0.8571721972794328,-0.2222222222222222,wait_cost,1,2,658.622761900071,None,3,ae11,4,2022-04-29_15h02.02.612,threat_forest,2021.2.3,59.909225464118215,
17,0,17,0,2,0,2,0,,,,,,,,,,left,1.6242011999711394,665.4937617001124,ae11,649.8078447002918,653.3221648000181,665.4937617001124,None,False,2,['r'],False,0.1728395061728395,0.2222222222222222,0.2222222222222222,2.0,2.0,0.8571721972794328,-0.8271604938271605,wait_cost,1,1,662.623022200074,None,2,ae11,4,2022-04-29_15h02.02.612,threat_forest,2021.2.3,59.909225464118215,
17,0,17,0,3,0,3,0,,,,,,,,,,left,0.7309976001270115,669.8935058000498,ae11,649.8078447002918,653.3221648000181,669.8935058000498,None,False,1,['r'],False,0.1728395061728395,0.2222222222222222,0.2222222222222222,2.0,2.0,0.8571721972794328,0.1728395061728395,wait_cost,1,0,669.1394424000755,None,1,ae11,4,2022-04-29_15h02.02.612,threat_forest,2021.2.3,59.909225464118215,
17,0,17,0,,,,,,,,,,,,,,,,,,,,,,,,,,,,,,,,,,,,672.6562109999359,None,0,ae11,4,2022-04-29_15h02.02.612,threat_forest,2021.2.3,59.909225464118215,
