miniblock.thisRepN,miniblock.thisTrialN,miniblock.thisN,miniblock.thisIndex,day.thisRepN,day.thisTrialN,day.thisN,day.thisIndex,welcoming.started,welcoming.stopped,key_resp_2.keys,key_resp_2.rt,key_resp_2.started,key_resp_2.stopped,forest.started,fixation_forest.started,fixation_forest.stopped,key_resp.keys,key_resp.rt,key_resp.started,Subject_ID,weather_left.started,weather_left.stopped,weather_right.started,weather_right.stopped,foraging T/F,in_LP,p/r heuristic,good_weather.T/F,p_succ_correct,p_succ_uncorrected,r_threat,n_oponents,gain_if_succ,weather_entropy,OP_value_difference,action_outcome,forest_side_L=0_R=1,out_LP,fixation_day.started,fixation_day.stopped,n_day-1.out_LP.,participant,session,date,expName,psychopyVersion,frameRate,
,,,,,,,,9.825559299904853,None,space,8.054075099993497,9.825559299904853,None,,,,,,,,,,,,,,,,,,,,,,,,,,,,,sd9,2,2022-05-04_11h34.13.869,threat_forest,2021.2.3,59.9590838888053,
0,0,0,0,0,0,0,0,,,,,,,17.934052899945527,21.447835700120777,None,right,1.6548411003313959,23.910103000234812,sd9,17.934052899945527,21.447835700120777,23.910103000234812,None,True,5,['r'],False,0.2222222222222222,0.2222222222222222,0.0,0.0,1.0,0.4821593609696809,0.0,fight_cost,1,2,,,,sd9,2,2022-05-04_11h34.13.869,threat_forest,2021.2.3,59.9590838888053,
0,0,0,0,1,0,1,0,,,,,,,,,,left,2.04805519990623,29.51732120011002,sd9,29.51732120011002,None,25.581638100091368,27.58121300023049,True,2,['r'],True,0.4444444444444445,0.6666666666666666,0.3333333333333333,1.0,1.0,0.9656336071428248,-0.5555555555555556,unsucc_cost,0,0,27.58121300023049,None,2,sd9,2,2022-05-04_11h34.13.869,threat_forest,2021.2.3,59.9590838888053,
0,0,0,0,,,,,,,,,,,,,,,,,,,,,,,,,,,,,,,,,,,,33.6005667001009,None,0,sd9,2,2022-05-04_11h34.13.869,threat_forest,2021.2.3,59.9590838888053,
1,0,1,0,0,0,0,0,,,,,,,35.175629700068384,38.68174430029467,None,None,,42.032268200069666,sd9,35.175629700068384,38.68174430029467,42.032268200069666,None,None,5,['p'],False,0.1728395061728395,0.2222222222222222,0.2222222222222222,2.0,2.0,0.8571721972794328,0.0,wait_cost,1,4,,,,sd9,2,2022-05-04_11h34.13.869,threat_forest,2021.2.3,59.9590838888053,
1,0,1,0,1,0,1,0,,,,,,,,,,right,2.4692410002462566,49.60112040024251,sd9,49.60112040024251,None,45.03174210013822,47.03157710004598,False,4,['p'],True,0.2,0.2,0.0,0.0,2.0,0.4554859150035951,0.0,wait_cost,0,3,47.03157710004598,None,4,sd9,2,2022-05-04_11h34.13.869,threat_forest,2021.2.3,59.9590838888053,
1,0,1,0,2,0,2,0,,,,,,,,,,right,1.2427758001722395,57.30162690021098,sd9,57.30162690021098,None,45.03174210013822,47.03157710004598,False,3,['p'],True,0.2,0.2,0.0,0.0,2.0,0.4554859150035951,0.0,wait_cost,0,2,54.09877450019121,None,3,sd9,2,2022-05-04_11h34.13.869,threat_forest,2021.2.3,59.9590838888053,
1,0,1,0,3,0,3,0,,,,,,,,,,left,1.3305561998859048,61.248805300332606,sd9,61.248805300332606,None,45.03174210013822,47.03157710004598,True,2,['p'],True,0.2,0.2,0.0,0.0,2.0,0.4554859150035951,-0.8,fight_cost,0,0,60.56503490032628,None,2,sd9,2,2022-05-04_11h34.13.869,threat_forest,2021.2.3,59.9590838888053,
1,0,1,0,,,,,,,,,,,,,,,,,,,,,,,,,,,,,,,,,,,,64.59854080015793,None,0,sd9,2,2022-05-04_11h34.13.869,threat_forest,2021.2.3,59.9590838888053,
2,0,2,0,0,0,0,0,,,,,,,66.70326540013775,70.21516930032521,None,left,1.1012820997275412,71.9824220999144,sd9,71.9824220999144,None,66.70326540013775,70.21516930032521,True,4,['r'],True,0.4444444444444445,0.6666666666666666,0.3333333333333333,1.0,1.0,0.9656336071428248,0.0,succ_gain,0,5,,,,sd9,2,2022-05-04_11h34.13.869,threat_forest,2021.2.3,59.9590838888053,
2,0,2,0,1,0,1,0,,,,,,,,,,left,1.2936452999711037,76.6830342002213,sd9,73.11556440033019,75.11531920032576,76.6830342002213,None,False,5,['r'],False,0.1875,0.25,0.25,2.0,1.0,0.895754137500101,0.0,wait_cost,1,4,75.11531920032576,None,5,sd9,2,2022-05-04_11h34.13.869,threat_forest,2021.2.3,59.9590838888053,
2,0,2,0,2,0,2,0,,,,,,,,,,left,0.9605870000086725,81.84926450019702,sd9,81.84926450019702,None,77.99897229997441,79.99868560023606,True,4,['r'],True,0.4444444444444445,0.6666666666666666,0.3333333333333333,1.0,1.0,0.9656336071428248,0.0,unsucc_cost,0,2,79.99868560023606,None,4,sd9,2,2022-05-04_11h34.13.869,threat_forest,2021.2.3,59.9590838888053,
2,0,2,0,3,0,3,0,,,,,,,,,,left,1.368672899901867,85.61603040015325,sd9,85.61603040015325,None,77.99897229997441,79.99868560023606,True,2,['r'],True,0.4444444444444445,0.6666666666666666,0.3333333333333333,1.0,1.0,0.9656336071428248,-0.5555555555555556,succ_gain,0,3,84.83226920012385,None,2,sd9,2,2022-05-04_11h34.13.869,threat_forest,2021.2.3,59.9590838888053,
2,0,2,0,4,0,4,0,,,,,,,,,,left,1.0380065999925137,92.46589180035517,sd9,92.46589180035517,None,77.99897229997441,79.99868560023606,True,3,['r'],True,0.4444444444444445,0.6666666666666666,0.3333333333333333,1.0,1.0,0.9656336071428248,-0.3333333333333333,succ_gain,0,4,89.01562210032716,None,3,sd9,2,2022-05-04_11h34.13.869,threat_forest,2021.2.3,59.9590838888053,
2,0,2,0,5,0,5,0,,,,,,,,,,left,0.8943416997790337,99.25323919998482,sd9,93.53249410027638,95.5322746001184,99.25323919998482,None,False,4,['r'],False,0.1875,0.25,0.25,2.0,1.0,0.895754137500101,0.0,wait_cost,1,3,95.5322746001184,None,4,sd9,2,2022-05-04_11h34.13.869,threat_forest,2021.2.3,59.9590838888053,
2,0,2,0,6,0,6,0,,,,,,,,,,left,0.8603062001056969,103.86615190003067,sd9,93.53249410027638,95.5322746001184,103.86615190003067,None,False,3,['r'],False,0.1875,0.25,0.25,2.0,1.0,0.895754137500101,-0.25,wait_cost,1,2,102.16572420019656,None,3,sd9,2,2022-05-04_11h34.13.869,threat_forest,2021.2.3,59.9590838888053,
2,0,2,0,7,0,7,0,,,,,,,,,,right,1.9983938997611403,107.8165690000169,sd9,107.8165690000169,None,104.74956900021061,106.74912630021572,False,2,['r'],True,0.4444444444444445,0.6666666666666666,0.3333333333333333,1.0,1.0,0.9656336071428248,-0.5555555555555556,wait_cost,0,1,106.74912630021572,None,2,sd9,2,2022-05-04_11h34.13.869,threat_forest,2021.2.3,59.9590838888053,
2,0,2,0,,,,,,,,,,,,,,,,,,,,,,,,,,,,,,,,,,,,111.83306100033224,None,1,sd9,2,2022-05-04_11h34.13.869,threat_forest,2021.2.3,59.9590838888053,
3,0,3,0,0,0,0,0,,,,,,,112.37192710023373,115.88258440000936,None,left,1.7649878999218345,117.80040040006861,sd9,117.80040040006861,None,112.37192710023373,115.88258440000936,True,4,['r'],True,0.375,0.5,0.25,1.0,1.0,0.9850568223215076,0.0,unsucc_cost,0,2,,,,sd9,2,2022-05-04_11h34.13.869,threat_forest,2021.2.3,59.9590838888053,
3,0,3,0,1,0,1,0,,,,,,,,,,right,2.3547114999964833,124.33338000020012,sd9,124.33338000020012,None,112.37192710023373,115.88258440000936,False,2,['r'],True,0.375,0.5,0.25,1.0,1.0,0.9850568223215076,-0.625,wait_cost,0,1,121.58266500011086,None,2,sd9,2,2022-05-04_11h34.13.869,threat_forest,2021.2.3,59.9590838888053,
3,0,3,0,2,0,2,0,,,,,,,,,,right,0.9598501999862492,130.71649780031294,sd9,126.71655960008502,128.71604190021753,130.71649780031294,None,True,1,['r'],False,0.2,0.2,0.0,0.0,1.0,0.4554859150035951,0.1999999999999999,fight_cost,1,0,128.71604190021753,None,1,sd9,2,2022-05-04_11h34.13.869,threat_forest,2021.2.3,59.9590838888053,
3,0,3,0,,,,,,,,,,,,,,,,,,,,,,,,,,,,,,,,,,,,133.69961100025102,None,0,sd9,2,2022-05-04_11h34.13.869,threat_forest,2021.2.3,59.9590838888053,
4,0,4,0,0,0,0,0,,,,,,,134.25730790011585,137.766232999973,None,left,1.1917234999127686,140.0668868003413,sd9,140.0668868003413,None,134.25730790011585,137.766232999973,True,4,['p'],True,0.4166666666666667,0.5,0.1666666666666666,1.0,2.0,0.9358932809493992,0.0,unsucc_cost,0,2,,,,sd9,2,2022-05-04_11h34.13.869,threat_forest,2021.2.3,59.9590838888053,
4,0,4,0,1,0,1,0,,,,,,,,,,right,1.5561311999335885,144.98489439999685,sd9,141.2831532000564,143.28297870000824,144.98489439999685,None,True,2,['p'],False,0.2962962962962963,0.3333333333333333,0.1111111111111111,1.0,2.0,0.8325252476189534,-0.7037037037037037,unsucc_cost,1,0,143.28297870000824,None,2,sd9,2,2022-05-04_11h34.13.869,threat_forest,2021.2.3,59.9590838888053,
4,0,4,0,,,,,,,,,,,,,,,,,,,,,,,,,,,,,,,,,,,,148.5664324001409,None,0,sd9,2,2022-05-04_11h34.13.869,threat_forest,2021.2.3,59.9590838888053,
5,0,5,0,0,0,0,0,,,,,,,149.72289390023798,153.23319900035858,None,left,1.19275279995054,156.7214458999224,sd9,156.7214458999224,None,149.72289390023798,153.23319900035858,True,4,['r'],True,0.4444444444444445,0.6666666666666666,0.3333333333333333,1.0,2.0,0.9656336071428248,0.0,unsucc_cost,0,2,,,,sd9,2,2022-05-04_11h34.13.869,threat_forest,2021.2.3,59.9590838888053,
5,0,5,0,1,0,1,0,,,,,,,,,,right,1.184415700379759,163.58346530003473,sd9,157.9335628002882,159.93324699997902,163.58346530003473,None,True,2,['r'],False,0.27,0.3,0.1,1.0,2.0,0.7963326591781347,-0.73,unsucc_cost,1,0,159.93324699997902,None,2,sd9,2,2022-05-04_11h34.13.869,threat_forest,2021.2.3,59.9590838888053,
5,0,5,0,,,,,,,,,,,,,,,,,,,,,,,,,,,,,,,,,,,,166.80020599998534,None,0,sd9,2,2022-05-04_11h34.13.869,threat_forest,2021.2.3,59.9590838888053,
6,0,6,0,0,0,0,0,,,,,,,170.3341572000645,173.83342269994318,None,left,1.9213148998096585,174.4841109002009,sd9,170.3341572000645,173.83342269994318,174.4841109002009,None,False,4,['p'],False,0.36,0.6,0.4,2.0,2.0,0.9801625908629508,0.0,wait_cost,1,3,,,,sd9,2,2022-05-04_11h34.13.869,threat_forest,2021.2.3,59.9590838888053,
6,0,6,0,1,0,1,0,,,,,,,,,,left,0.9986708997748792,179.5171138001606,sd9,170.3341572000645,173.83342269994318,179.5171138001606,None,False,3,['p'],False,0.36,0.6,0.4,2.0,2.0,0.9801625908629508,-0.4,wait_cost,1,2,178.43345070024952,None,3,sd9,2,2022-05-04_11h34.13.869,threat_forest,2021.2.3,59.9590838888053,
6,0,6,0,2,0,2,0,,,,,,,,,,left,0.716357700061053,183.55046420032158,sd9,183.55046420032158,None,180.53398750023916,182.53363399999216,True,2,['p'],True,0.5,0.5,0.0,0.0,2.0,0.6309297535714574,-0.5,succ_gain,0,4,182.53363399999216,None,2,sd9,2,2022-05-04_11h34.13.869,threat_forest,2021.2.3,59.9590838888053,
6,0,6,0,3,0,3,0,,,,,,,,,,left,1.0129174999892712,188.01774869998917,sd9,188.01774869998917,None,180.53398750023916,182.53363399999216,True,4,['p'],True,0.5,0.5,0.0,0.0,2.0,0.6309297535714574,0.0,succ_gain,0,6,186.2835802999325,None,4,sd9,2,2022-05-04_11h34.13.869,threat_forest,2021.2.3,59.9590838888053,
6,0,6,0,4,0,4,0,,,,,,,,,,left,1.3602175996638834,192.3843057001941,sd9,192.3843057001941,None,180.53398750023916,182.53363399999216,True,6,['p'],True,0.5,0.5,0.0,0.0,2.0,0.6309297535714574,0.0,succ_gain,0,6,191.05040629999712,None,6,sd9,2,2022-05-04_11h34.13.869,threat_forest,2021.2.3,59.9590838888053,
6,0,6,0,5,0,5,0,,,,,,,,,,left,1.1312130000442266,197.0677012000233,sd9,197.0677012000233,None,180.53398750023916,182.53363399999216,True,6,['p'],True,0.5,0.5,0.0,0.0,2.0,0.6309297535714574,0.0,succ_gain,0,6,195.78381770011038,None,6,sd9,2,2022-05-04_11h34.13.869,threat_forest,2021.2.3,59.9590838888053,
6,0,6,0,6,0,6,0,,,,,,,,,,left,0.8149998998269439,202.26736100018024,sd9,202.26736100018024,None,180.53398750023916,182.53363399999216,True,6,['p'],True,0.5,0.5,0.0,0.0,2.0,0.6309297535714574,0.0,unsucc_cost,0,4,200.2173509001732,None,6,sd9,2,2022-05-04_11h34.13.869,threat_forest,2021.2.3,59.9590838888053,
6,0,6,0,7,0,7,0,,,,,,,,,,left,0.879868000280112,207.53477060003206,sd9,207.53477060003206,None,180.53398750023916,182.53363399999216,True,4,['p'],True,0.5,0.5,0.0,0.0,2.0,0.6309297535714574,0.0,succ_gain,0,6,205.10053210007027,None,4,sd9,2,2022-05-04_11h34.13.869,threat_forest,2021.2.3,59.9590838888053,
6,0,6,0,,,,,,,,,,,,,,,,,,,,,,,,,,,,,,,,,,,,210.43398330034688,None,6,sd9,2,2022-05-04_11h34.13.869,threat_forest,2021.2.3,59.9590838888053,
7,0,7,0,0,0,0,0,,,,,,,211.74436930008233,215.2479596999474,None,left,1.9206540999002755,217.98661440005526,sd9,217.98661440005526,None,211.74436930008233,215.2479596999474,True,5,['r'],True,0.2857142857142857,0.2857142857142857,0.0,0.0,2.0,0.5445684476282007,0.0,unsucc_cost,0,3,,,,sd9,2,2022-05-04_11h34.13.869,threat_forest,2021.2.3,59.9590838888053,
7,0,7,0,1,0,1,0,,,,,,,,,,right,0.9011781997978687,223.05170670012012,sd9,219.93433680012822,221.93411569995806,223.05170670012012,None,True,3,['r'],False,0.24,0.3,0.2,2.0,2.0,0.9003120349047065,-0.2,succ_gain,1,5,221.93411569995806,None,3,sd9,2,2022-05-04_11h34.13.869,threat_forest,2021.2.3,59.9590838888053,
7,0,7,0,2,0,2,0,,,,,,,,,,right,1.122366199735552,228.60192169994116,sd9,219.93433680012822,221.93411569995806,228.60192169994116,None,True,5,['r'],False,0.24,0.3,0.2,2.0,2.0,0.9003120349047065,0.0,unsucc_cost,1,3,225.98418910009786,None,5,sd9,2,2022-05-04_11h34.13.869,threat_forest,2021.2.3,59.9590838888053,
7,0,7,0,3,0,3,0,,,,,,,,,,right,1.4069886999204755,233.86934880027547,sd9,233.86934880027547,None,229.75111730024219,231.75100560020655,False,3,['r'],True,0.2857142857142857,0.2857142857142857,0.0,0.0,2.0,0.5445684476282007,0.0,wait_cost,0,2,231.75100560020655,None,3,sd9,2,2022-05-04_11h34.13.869,threat_forest,2021.2.3,59.9590838888053,
7,0,7,0,4,0,4,0,,,,,,,,,,left,2.0780822997912765,240.83509860001504,sd9,240.83509860001504,None,229.75111730024219,231.75100560020655,True,2,['r'],True,0.2857142857142857,0.2857142857142857,0.0,0.0,2.0,0.5445684476282007,-0.7142857142857143,unsucc_cost,0,0,237.30102130025625,None,2,sd9,2,2022-05-04_11h34.13.869,threat_forest,2021.2.3,59.9590838888053,
7,0,7,0,,,,,,,,,,,,,,,,,,,,,,,,,,,,,,,,,,,,244.93453689990565,None,0,sd9,2,2022-05-04_11h34.13.869,threat_forest,2021.2.3,59.9590838888053,
8,0,8,0,0,0,0,0,,,,,,,247.67469489993528,251.18465190008283,None,left,1.3865196998231113,254.25635970011353,sd9,247.67469489993528,251.18465190008283,254.25635970011353,None,False,4,['p'],False,0.1975308641975308,0.2222222222222222,0.1111111111111111,1.0,2.0,0.7461067557824965,0.0,wait_cost,1,3,,,,sd9,2,2022-05-04_11h34.13.869,threat_forest,2021.2.3,59.9590838888053,
8,0,8,0,1,0,1,0,,,,,,,,,,left,1.73577870009467,258.835354400333,sd9,258.835354400333,None,255.6683338000439,257.6680105999112,True,3,['p'],True,0.32,0.4,0.2,1.0,2.0,0.9455672104350704,-0.2,succ_gain,0,5,257.6680105999112,None,3,sd9,2,2022-05-04_11h34.13.869,threat_forest,2021.2.3,59.9590838888053,
8,0,8,0,2,0,2,0,,,,,,,,,,left,1.3554683001711965,265.4358785999939,sd9,260.6018525999971,262.6014099000022,265.4358785999939,None,False,5,['p'],False,0.1975308641975308,0.2222222222222222,0.1111111111111111,1.0,2.0,0.7461067557824965,0.0,wait_cost,1,4,262.6014099000022,None,5,sd9,2,2022-05-04_11h34.13.869,threat_forest,2021.2.3,59.9590838888053,
8,0,8,0,3,0,3,0,,,,,,,,,,left,1.4975650999695063,269.51881420006976,sd9,260.6018525999971,262.6014099000022,269.51881420006976,None,False,4,['p'],False,0.1975308641975308,0.2222222222222222,0.1111111111111111,1.0,2.0,0.7461067557824965,0.0,wait_cost,1,3,268.8182430001907,None,4,sd9,2,2022-05-04_11h34.13.869,threat_forest,2021.2.3,59.9590838888053,
8,0,8,0,4,0,4,0,,,,,,,,,,left,1.0910110999830067,275.3184432000853,sd9,275.3184432000853,None,271.03548090020195,273.03504260024056,True,3,['p'],True,0.32,0.4,0.2,1.0,2.0,0.9455672104350704,-0.2,succ_gain,0,5,273.03504260024056,None,3,sd9,2,2022-05-04_11h34.13.869,threat_forest,2021.2.3,59.9590838888053,
8,0,8,0,5,0,5,0,,,,,,,,,,left,1.5695868995971978,280.4357250002213,sd9,280.4357250002213,None,271.03548090020195,273.03504260024056,True,5,['p'],True,0.32,0.4,0.2,1.0,2.0,0.9455672104350704,0.0,unsucc_cost,0,3,278.43503569997847,None,5,sd9,2,2022-05-04_11h34.13.869,threat_forest,2021.2.3,59.9590838888053,
8,0,8,0,6,0,6,0,,,,,,,,,,right,1.5880185002461076,286.9020096003078,sd9,286.9020096003078,None,271.03548090020195,273.03504260024056,False,3,['p'],True,0.32,0.4,0.2,1.0,2.0,0.9455672104350704,-0.2,wait_cost,0,2,284.0351403001696,None,3,sd9,2,2022-05-04_11h34.13.869,threat_forest,2021.2.3,59.9590838888053,
8,0,8,0,7,0,7,0,,,,,,,,,,right,0.7014830000698566,294.06876310007647,sd9,294.06876310007647,None,271.03548090020195,273.03504260024056,False,2,['p'],True,0.32,0.4,0.2,1.0,2.0,0.9455672104350704,-0.6799999999999999,wait_cost,0,1,290.51854050019756,None,2,sd9,2,2022-05-04_11h34.13.869,threat_forest,2021.2.3,59.9590838888053,
8,0,8,0,,,,,,,,,,,,,,,,,,,,,,,,,,,,,,,,,,,,296.8019455000758,None,1,sd9,2,2022-05-04_11h34.13.869,threat_forest,2021.2.3,59.9590838888053,
9,0,9,0,0,0,0,0,,,,,,,298.0760282003321,301.5853396002203,None,right,1.1069024000316858,305.23673890018836,sd9,305.23673890018836,None,298.0760282003321,301.5853396002203,False,5,['r'],True,0.32,0.4,0.2,1.0,1.0,0.9455672104350704,0.0,wait_cost,0,4,,,,sd9,2,2022-05-04_11h34.13.869,threat_forest,2021.2.3,59.9590838888053,
9,0,9,0,1,0,1,0,,,,,,,,,,right,1.082446400076151,310.2692118003033,sd9,306.36899850005284,308.3688364000991,310.2692118003033,None,True,4,['r'],False,0.1975308641975308,0.2222222222222222,0.1111111111111111,1.0,1.0,0.7461067557824965,0.0,unsucc_cost,1,2,308.3688364000991,None,4,sd9,2,2022-05-04_11h34.13.869,threat_forest,2021.2.3,59.9590838888053,
9,0,9,0,2,0,2,0,,,,,,,,,,right,1.7181369001045823,316.7859038999304,sd9,316.7859038999304,None,311.36931260023266,313.3688031001948,False,2,['r'],True,0.32,0.4,0.2,1.0,1.0,0.9455672104350704,-0.6799999999999999,wait_cost,0,1,313.3688031001948,None,2,sd9,2,2022-05-04_11h34.13.869,threat_forest,2021.2.3,59.9590838888053,
9,0,9,0,3,0,3,0,,,,,,,,,,right,1.0341072999872267,323.9196729003452,sd9,318.5360352001153,320.5356423002668,323.9196729003452,None,True,1,['r'],False,0.1975308641975308,0.2222222222222222,0.1111111111111111,1.0,1.0,0.7461067557824965,0.1975308641975308,unsucc_cost,1,0,320.5356423002668,None,1,sd9,2,2022-05-04_11h34.13.869,threat_forest,2021.2.3,59.9590838888053,
9,0,9,0,,,,,,,,,,,,,,,,,,,,,,,,,,,,,,,,,,,,326.9859837000258,None,0,sd9,2,2022-05-04_11h34.13.869,threat_forest,2021.2.3,59.9590838888053,
10,0,10,0,0,0,0,0,,,,,,,329.2108595999889,332.71911430032924,None,left,0.8869741000235081,334.63661330007017,sd9,334.63661330007017,None,329.2108595999889,332.71911430032924,True,5,['r'],True,0.2777777777777778,0.3333333333333333,0.1666666666666666,1.0,2.0,0.8929352898779304,0.0,succ_gain,0,6,,,,sd9,2,2022-05-04_11h34.13.869,threat_forest,2021.2.3,59.9590838888053,
10,0,10,0,1,0,1,0,,,,,,,,,,left,2.0089773000217974,338.9866467001848,sd9,338.9866467001848,None,329.2108595999889,332.71911430032924,True,6,['r'],True,0.2777777777777778,0.3333333333333333,0.1666666666666666,1.0,2.0,0.8929352898779304,0.0,succ_gain,0,6,337.552507000044,None,6,sd9,2,2022-05-04_11h34.13.869,threat_forest,2021.2.3,59.9590838888053,
10,0,10,0,2,0,2,0,,,,,,,,,,left,1.4593401001766324,344.53954049991444,sd9,341.0194930001162,343.019268900156,344.53954049991444,None,False,6,['r'],False,0.1975308641975308,0.2222222222222222,0.1111111111111111,1.0,2.0,0.7461067557824965,0.0,wait_cost,1,5,343.019268900156,None,6,sd9,2,2022-05-04_11h34.13.869,threat_forest,2021.2.3,59.9590838888053,
10,0,10,0,3,0,3,0,,,,,,,,,,left,0.8620082000270486,349.5363725000061,sd9,341.0194930001162,343.019268900156,349.5363725000061,None,False,5,['r'],False,0.1975308641975308,0.2222222222222222,0.1111111111111111,1.0,2.0,0.7461067557824965,0.0,wait_cost,1,4,348.01964630000293,None,5,sd9,2,2022-05-04_11h34.13.869,threat_forest,2021.2.3,59.9590838888053,
10,0,10,0,4,0,4,0,,,,,,,,,,left,1.0952232000418007,354.86990960035473,sd9,341.0194930001162,343.019268900156,354.86990960035473,None,False,4,['r'],False,0.1975308641975308,0.2222222222222222,0.1111111111111111,1.0,2.0,0.7461067557824965,0.0,wait_cost,1,3,352.41938990028575,None,4,sd9,2,2022-05-04_11h34.13.869,threat_forest,2021.2.3,59.9590838888053,
10,0,10,0,5,0,5,0,,,,,,,,,,left,1.2625211998820305,358.50364740006626,sd9,341.0194930001162,343.019268900156,358.50364740006626,None,False,3,['r'],False,0.1975308641975308,0.2222222222222222,0.1111111111111111,1.0,2.0,0.7461067557824965,-0.1111111111111111,wait_cost,1,2,357.986168500036,None,3,sd9,2,2022-05-04_11h34.13.869,threat_forest,2021.2.3,59.9590838888053,
10,0,10,0,6,0,6,0,,,,,,,,,,left,1.26566579984501,362.77037560008466,sd9,341.0194930001162,343.019268900156,362.77037560008466,None,False,2,['r'],False,0.1975308641975308,0.2222222222222222,0.1111111111111111,1.0,2.0,0.7461067557824965,-0.8024691358024691,wait_cost,1,1,361.7862574001774,None,2,sd9,2,2022-05-04_11h34.13.869,threat_forest,2021.2.3,59.9590838888053,
10,0,10,0,7,0,7,0,,,,,,,,,,right,0.8096056999638677,368.7034868001938,sd9,341.0194930001162,343.019268900156,368.7034868001938,None,True,1,['r'],False,0.1975308641975308,0.2222222222222222,0.1111111111111111,1.0,2.0,0.7461067557824965,0.1975308641975308,unsucc_cost,1,0,366.0530242002569,None,1,sd9,2,2022-05-04_11h34.13.869,threat_forest,2021.2.3,59.9590838888053,
10,0,10,0,,,,,,,,,,,,,,,,,,,,,,,,,,,,,,,,,,,,371.5364502999,None,0,sd9,2,2022-05-04_11h34.13.869,threat_forest,2021.2.3,59.9590838888053,
11,0,11,0,0,0,0,0,,,,,,,373.21288770018145,376.70893459999934,None,left,1.3878430998884141,378.5704673998989,sd9,378.5704673998989,None,373.21288770018145,376.70893459999934,True,4,['r'],True,0.2222222222222222,0.3333333333333333,0.3333333333333333,2.0,2.0,0.9656336071428248,0.0,succ_gain,0,6,,,,sd9,2,2022-05-04_11h34.13.869,threat_forest,2021.2.3,59.9590838888053,
11,0,11,0,1,0,1,0,,,,,,,,,,right,1.6282950001768768,385.3038886003196,sd9,385.3038886003196,None,373.21288770018145,376.70893459999934,False,6,['r'],True,0.2222222222222222,0.3333333333333333,0.3333333333333333,2.0,2.0,0.9656336071428248,0.0,wait_cost,0,5,381.98650610027835,None,6,sd9,2,2022-05-04_11h34.13.869,threat_forest,2021.2.3,59.9590838888053,
11,0,11,0,2,0,2,0,,,,,,,,,,left,1.336698199622333,390.4537750002928,sd9,390.4537750002928,None,373.21288770018145,376.70893459999934,True,5,['r'],True,0.2222222222222222,0.3333333333333333,0.3333333333333333,2.0,2.0,0.9656336071428248,0.0,unsucc_cost,0,3,388.9533171001822,None,5,sd9,2,2022-05-04_11h34.13.869,threat_forest,2021.2.3,59.9590838888053,
11,0,11,0,3,0,3,0,,,,,,,,,,left,1.7303860997781157,395.63698770012707,sd9,395.63698770012707,None,373.21288770018145,376.70893459999934,True,3,['r'],True,0.2222222222222222,0.3333333333333333,0.3333333333333333,2.0,2.0,0.9656336071428248,-0.3333333333333333,unsucc_cost,0,1,393.82008090009913,None,3,sd9,2,2022-05-04_11h34.13.869,threat_forest,2021.2.3,59.9590838888053,
11,0,11,0,4,0,4,0,,,,,,,,,,right,0.8219727003015578,402.3228561002761,sd9,397.38694090023637,399.38680180022493,402.3228561002761,None,True,1,['r'],False,0.16,0.2,0.2,2.0,2.0,0.8198746470064713,0.1599999999999999,unsucc_cost,1,0,399.38680180022493,None,1,sd9,2,2022-05-04_11h34.13.869,threat_forest,2021.2.3,59.9590838888053,
11,0,11,0,,,,,,,,,,,,,,,,,,,,,,,,,,,,,,,,,,,,405.17033970030025,None,0,sd9,2,2022-05-04_11h34.13.869,threat_forest,2021.2.3,59.9590838888053,
12,0,12,0,0,0,0,0,,,,,,,406.68209769995883,410.1744186999276,None,right,0.7167160999961197,413.22132160002366,sd9,406.68209769995883,410.1744186999276,413.22132160002366,None,True,5,['p'],False,0.5185185185185185,0.6666666666666666,0.2222222222222222,2.0,2.0,0.9327883776363328,0.0,succ_gain,1,6,,,,sd9,2,2022-05-04_11h34.13.869,threat_forest,2021.2.3,59.9590838888053,
12,0,12,0,1,0,1,0,,,,,,,,,,left,1.2345332000404596,416.9734411002137,sd9,416.9734411002137,None,413.9706049002707,415.9703767001629,True,6,['p'],True,0.625,0.625,0.0,0.0,2.0,0.6021808102656677,0.0,unsucc_cost,0,4,415.9703767001629,None,6,sd9,2,2022-05-04_11h34.13.869,threat_forest,2021.2.3,59.9590838888053,
12,0,12,0,2,0,2,0,,,,,,,,,,right,0.6003307998180389,421.8376307999715,sd9,418.23739950032905,420.2370744002983,421.8376307999715,None,True,4,['p'],False,0.5185185185185185,0.6666666666666666,0.2222222222222222,2.0,2.0,0.9327883776363328,0.0,succ_gain,1,6,420.2370744002983,None,4,sd9,2,2022-05-04_11h34.13.869,threat_forest,2021.2.3,59.9590838888053,
12,0,12,0,3,0,3,0,,,,,,,,,,right,1.1700049000792205,428.15663730027154,sd9,428.15663730027154,None,422.4727564002387,424.48716580029577,False,6,['p'],True,0.625,0.625,0.0,0.0,2.0,0.6021808102656677,0.0,wait_cost,0,5,424.48716580029577,None,6,sd9,2,2022-05-04_11h34.13.869,threat_forest,2021.2.3,59.9590838888053,
12,0,12,0,4,0,4,0,,,,,,,,,,right,1.0993877002038062,432.3376406999305,sd9,429.3544660001062,431.3539255000651,432.3376406999305,None,True,5,['p'],False,0.5185185185185185,0.6666666666666666,0.2222222222222222,2.0,2.0,0.9327883776363328,0.0,unsucc_cost,1,3,431.3539255000651,None,5,sd9,2,2022-05-04_11h34.13.869,threat_forest,2021.2.3,59.9590838888053,
12,0,12,0,5,0,5,0,,,,,,,,,,right,1.1528737000189722,439.03814350022003,sd9,429.3544660001062,431.3539255000651,439.03814350022003,None,True,3,['p'],False,0.5185185185185185,0.6666666666666666,0.2222222222222222,2.0,2.0,0.9327883776363328,-0.2222222222222222,succ_gain,1,5,435.4540925999172,None,3,sd9,2,2022-05-04_11h34.13.869,threat_forest,2021.2.3,59.9590838888053,
12,0,12,0,6,0,6,0,,,,,,,,,,right,1.5606210003606975,445.92316849995404,sd9,445.92316849995404,None,440.22165370034054,442.22076490009204,False,5,['p'],True,0.625,0.625,0.0,0.0,2.0,0.6021808102656677,0.0,wait_cost,0,4,442.22076490009204,None,5,sd9,2,2022-05-04_11h34.13.869,threat_forest,2021.2.3,59.9590838888053,
12,0,12,0,7,0,7,0,,,,,,,,,,right,0.7596943001262844,450.07128940010443,sd9,450.07128940010443,None,440.22165370034054,442.22076490009204,False,4,['p'],True,0.625,0.625,0.0,0.0,2.0,0.6021808102656677,0.0,wait_cost,0,3,449.50422280002385,None,4,sd9,2,2022-05-04_11h34.13.869,threat_forest,2021.2.3,59.9590838888053,
12,0,12,0,,,,,,,,,,,,,,,,,,,,,,,,,,,,,,,,,,,,452.85429259995,None,3,sd9,2,2022-05-04_11h34.13.869,threat_forest,2021.2.3,59.9590838888053,
13,0,13,0,0,0,0,0,,,,,,,453.8782031000592,457.3876281003468,None,right,1.6461737998761237,458.4880042001605,sd9,458.4880042001605,None,453.8782031000592,457.3876281003468,False,5,['r'],True,0.6,0.6,0.0,0.0,2.0,0.6126016192893442,0.0,wait_cost,0,4,,,,sd9,2,2022-05-04_11h34.13.869,threat_forest,2021.2.3,59.9590838888053,
13,0,13,0,1,0,1,0,,,,,,,,,,right,1.1607626001350582,463.4380137003027,sd9,463.4380137003027,None,453.8782031000592,457.3876281003468,False,4,['r'],True,0.6,0.6,0.0,0.0,2.0,0.6126016192893442,0.0,wait_cost,0,3,462.1544002001174,None,4,sd9,2,2022-05-04_11h34.13.869,threat_forest,2021.2.3,59.9590838888053,
13,0,13,0,2,0,2,0,,,,,,,,,,right,1.415799899958074,468.75496349995956,sd9,468.75496349995956,None,453.8782031000592,457.3876281003468,False,3,['r'],True,0.6,0.6,0.0,0.0,2.0,0.6126016192893442,0.0,wait_cost,0,2,466.6211316003464,None,3,sd9,2,2022-05-04_11h34.13.869,threat_forest,2021.2.3,59.9590838888053,
13,0,13,0,3,0,3,0,,,,,,,,,,right,0.8196462001651525,475.18829660024494,sd9,470.1880805999972,472.1878496003337,475.18829660024494,None,True,2,['r'],False,0.4444444444444445,0.6666666666666666,0.3333333333333333,2.0,2.0,0.9656336071428248,-0.5555555555555556,unsucc_cost,1,0,472.1878496003337,None,2,sd9,2,2022-05-04_11h34.13.869,threat_forest,2021.2.3,59.9590838888053,
13,0,13,0,,,,,,,,,,,,,,,,,,,,,,,,,,,,,,,,,,,,478.0380313000642,None,0,sd9,2,2022-05-04_11h34.13.869,threat_forest,2021.2.3,59.9590838888053,
14,0,14,0,0,0,0,0,,,,,,,479.5385879003443,483.0380015000701,None,left,1.3377058003097773,486.42184279998764,sd9,486.42184279998764,None,479.5385879003443,483.0380015000701,True,4,['r'],True,0.5,0.5,0.0,0.0,1.0,0.6309297535714574,0.0,unsucc_cost,0,2,,,,sd9,2,2022-05-04_11h34.13.869,threat_forest,2021.2.3,59.9590838888053,
14,0,14,0,1,0,1,0,,,,,,,,,,left,0.7085835002362728,493.1217006999068,sd9,493.1217006999068,None,479.5385879003443,483.0380015000701,True,2,['r'],True,0.5,0.5,0.0,0.0,1.0,0.6309297535714574,-0.5,unsucc_cost,0,0,489.7887754999101,None,2,sd9,2,2022-05-04_11h34.13.869,threat_forest,2021.2.3,59.9590838888053,
14,0,14,0,,,,,,,,,,,,,,,,,,,,,,,,,,,,,,,,,,,,495.8549625002779,None,0,sd9,2,2022-05-04_11h34.13.869,threat_forest,2021.2.3,59.9590838888053,
15,0,15,0,0,0,0,0,,,,,,,496.92473410023376,500.43827500008047,None,left,2.252175800036639,501.93897290015593,sd9,501.93897290015593,None,496.92473410023376,500.43827500008047,True,5,['p'],True,0.5,0.5,0.0,0.0,2.0,0.6309297535714574,0.0,unsucc_cost,0,3,,,,sd9,2,2022-05-04_11h34.13.869,threat_forest,2021.2.3,59.9590838888053,
15,0,15,0,1,0,1,0,,,,,,,,,,left,1.3353253002278507,508.8219562000595,sd9,504.22213930031285,506.2217069999315,508.8219562000595,None,False,3,['p'],False,0.4081632653061224,0.5714285714285714,0.2857142857142857,2.0,2.0,0.9885754083994552,-0.2857142857142857,wait_cost,1,2,506.2217069999315,None,3,sd9,2,2022-05-04_11h34.13.869,threat_forest,2021.2.3,59.9590838888053,
15,0,15,0,2,0,2,0,,,,,,,,,,left,1.3549993997439742,513.9054147000425,sd9,513.9054147000425,None,510.1886824001558,512.1884197001345,True,2,['p'],True,0.5,0.5,0.0,0.0,2.0,0.6309297535714574,-0.5,unsucc_cost,0,0,512.1884197001345,None,2,sd9,2,2022-05-04_11h34.13.869,threat_forest,2021.2.3,59.9590838888053,
15,0,15,0,,,,,,,,,,,,,,,,,,,,,,,,,,,,,,,,,,,,517.2886081999168,None,0,sd9,2,2022-05-04_11h34.13.869,threat_forest,2021.2.3,59.9590838888053,
16,0,16,0,0,0,0,0,,,,,,,519.0102908001281,522.5219572000206,None,right,1.1965699000284076,523.622711500153,sd9,523.622711500153,None,519.0102908001281,522.5219572000206,False,5,['p'],True,0.3333333333333333,0.3333333333333333,0.0,0.0,1.0,0.5793801642856949,0.0,wait_cost,0,4,,,,sd9,2,2022-05-04_11h34.13.869,threat_forest,2021.2.3,59.9590838888053,
16,0,16,0,1,0,1,0,,,,,,,,,,right,2.4246259997598827,530.0560826999135,sd9,524.8389840000309,526.8386897002347,530.0560826999135,None,True,4,['p'],False,0.25,0.5,0.5,2.0,1.0,0.9463946303571862,0.0,unsucc_cost,1,2,526.8386897002347,None,4,sd9,2,2022-05-04_11h34.13.869,threat_forest,2021.2.3,59.9590838888053,
16,0,16,0,2,0,2,0,,,,,,,,,,left,1.4611253999173641,537.4396266001277,sd9,524.8389840000309,526.8386897002347,537.4396266001277,None,False,2,['p'],False,0.25,0.5,0.5,2.0,1.0,0.9463946303571862,-0.75,wait_cost,1,1,534.505504200235,None,2,sd9,2,2022-05-04_11h34.13.869,threat_forest,2021.2.3,59.9590838888053,
16,0,16,0,3,0,3,0,,,,,,,,,,right,1.42349849967286,543.6729453001171,sd9,524.8389840000309,526.8386897002347,543.6729453001171,None,True,1,['p'],False,0.25,0.5,0.5,2.0,1.0,0.9463946303571862,0.25,unsucc_cost,1,0,540.9223682000302,None,1,sd9,2,2022-05-04_11h34.13.869,threat_forest,2021.2.3,59.9590838888053,
16,0,16,0,,,,,,,,,,,,,,,,,,,,,,,,,,,,,,,,,,,,547.1224865000695,None,0,sd9,2,2022-05-04_11h34.13.869,threat_forest,2021.2.3,59.9590838888053,
17,0,17,0,0,0,0,0,,,,,,,548.5228610001504,552.0224200999364,None,right,1.6027445998042822,553.6401603003033,sd9,548.5228610001504,552.0224200999364,553.6401603003033,None,True,4,['p'],False,0.2222222222222222,0.6666666666666666,0.6666666666666666,2.0,2.0,0.77250688571426,0.0,succ_gain,1,6,,,,sd9,2,2022-05-04_11h34.13.869,threat_forest,2021.2.3,59.9590838888053,
17,0,17,0,1,0,1,0,,,,,,,,,,right,1.2757934997789562,560.6562024001032,sd9,560.6562024001032,None,555.2726545003243,557.2726139998995,False,6,['p'],True,0.5,0.5,0.0,0.0,2.0,0.6309297535714574,0.0,wait_cost,0,5,557.2726139998995,None,6,sd9,2,2022-05-04_11h34.13.869,threat_forest,2021.2.3,59.9590838888053,
17,0,17,0,2,0,2,0,,,,,,,,,,left,1.172410300001502,564.6062650000677,sd9,564.6062650000677,None,555.2726545003243,557.2726139998995,True,5,['p'],True,0.5,0.5,0.0,0.0,2.0,0.6309297535714574,0.0,fight_cost,0,2,563.9559271000326,None,5,sd9,2,2022-05-04_11h34.13.869,threat_forest,2021.2.3,59.9590838888053,
17,0,17,0,3,0,3,0,,,,,,,,,,right,0.674484099727124,568.7396693001501,sd9,565.8092736001126,567.8226691000164,568.7396693001501,None,True,2,['p'],False,0.2222222222222222,0.6666666666666666,0.6666666666666666,2.0,2.0,0.77250688571426,-0.7777777777777778,succ_gain,1,4,567.8226691000164,None,2,sd9,2,2022-05-04_11h34.13.869,threat_forest,2021.2.3,59.9590838888053,
17,0,17,0,4,0,4,0,,,,,,,,,,left,1.6324616000056267,573.5228723003529,sd9,573.5228723003529,None,569.4395272000693,571.4394004000351,True,4,['p'],True,0.5,0.5,0.0,0.0,2.0,0.6309297535714574,0.0,fight_cost,0,1,571.4394004000351,None,4,sd9,2,2022-05-04_11h34.13.869,threat_forest,2021.2.3,59.9590838888053,
17,0,17,0,5,0,5,0,,,,,,,,,,right,0.8432255000807345,579.2900884002447,sd9,575.1728972001001,577.1727386000566,579.2900884002447,None,True,1,['p'],False,0.2222222222222222,0.6666666666666666,0.6666666666666666,2.0,2.0,0.77250688571426,0.2222222222222222,unsucc_cost,1,0,577.1727386000566,None,1,sd9,2,2022-05-04_11h34.13.869,threat_forest,2021.2.3,59.9590838888053,
17,0,17,0,,,,,,,,,,,,,,,,,,,,,,,,,,,,,,,,,,,,582.1562773999758,None,0,sd9,2,2022-05-04_11h34.13.869,threat_forest,2021.2.3,59.9590838888053,
