miniblock.thisRepN,miniblock.thisTrialN,miniblock.thisN,miniblock.thisIndex,day.thisRepN,day.thisTrialN,day.thisN,day.thisIndex,welcoming.started,welcoming.stopped,key_resp_2.keys,key_resp_2.rt,key_resp_2.started,key_resp_2.stopped,forest.started,fixation_forest.started,fixation_forest.stopped,key_resp.keys,key_resp.rt,key_resp.started,Subject_ID,weather_left.started,weather_left.stopped,weather_right.started,weather_right.stopped,foraging T/F,in_LP,p/r heuristic,good_weather.T/F,p_succ_correct,p_succ_uncorrected,r_threat,n_oponents,gain_if_succ,weather_entropy,OP_value_difference,action_outcome,forest_side_L=0_R=1,out_LP,fixation_day.started,fixation_day.stopped,n_day-1.out_LP.,participant,session,date,expName,psychopyVersion,frameRate,
,,,,,,,,19.594963599927723,None,space,6.380550900008529,19.594963599927723,None,,,,,,,,,,,,,,,,,,,,,,,,,,,,,oy13,3,2022-04-08_15h09.36.846,threat_forest,2021.2.3,59.976920858726885,
0,0,0,0,0,0,0,0,,,,,,,26.042418999946676,29.544323700014502,None,left,1.0202380999689922,32.650590499979444,oy13,26.042418999946676,29.544323700014502,32.650590499979444,None,False,4,['r'],False,0.2,0.2,0.0,0.0,2.0,0.4554859150035951,0.0,wait_cost,1,3,,,,oy13,3,2022-04-08_15h09.36.846,threat_forest,2021.2.3,59.976920858726885,
0,0,0,0,1,0,1,0,,,,,,,,,,left,2.0097485999576747,39.38329639995936,oy13,26.042418999946676,29.544323700014502,39.38329639995936,None,False,3,['r'],False,0.2,0.2,0.0,0.0,2.0,0.4554859150035951,0.0,wait_cost,1,2,35.71100170002319,None,3,oy13,3,2022-04-08_15h09.36.846,threat_forest,2021.2.3,59.976920858726885,
0,0,0,0,2,0,2,0,,,,,,,,,,left,1.653890199959278,45.41847529995721,oy13,45.41847529995721,None,41.41131689993199,43.41110089991707,True,2,['r'],True,0.375,0.5,0.25,1.0,2.0,0.9850568223215076,-0.625,fight_cost,0,0,43.41110089991707,None,2,oy13,3,2022-04-08_15h09.36.846,threat_forest,2021.2.3,59.976920858726885,
0,0,0,0,,,,,,,,,,,,,,,,,,,,,,,,,,,,,,,,,,,,49.10374960000627,None,0,oy13,3,2022-04-08_15h09.36.846,threat_forest,2021.2.3,59.976920858726885,
1,0,1,0,0,0,0,0,,,,,,,52.43046299996786,55.94410239998251,None,left,1.1639892000239342,59.57366519991774,oy13,52.43046299996786,55.94410239998251,59.57366519991774,None,False,5,['r'],False,0.2,0.2,0.0,0.0,1.0,0.4554859150035951,0.0,wait_cost,1,4,,,,oy13,3,2022-04-08_15h09.36.846,threat_forest,2021.2.3,59.976920858726885,
1,0,1,0,1,0,1,0,,,,,,,,,,left,1.5170353000285104,64.17845240002498,oy13,64.17845240002498,None,60.76176569995005,62.761525699985214,True,4,['r'],True,0.375,0.5,0.25,1.0,1.0,0.9850568223215076,0.0,succ_gain,0,5,62.761525699985214,None,4,oy13,3,2022-04-08_15h09.36.846,threat_forest,2021.2.3,59.976920858726885,
1,0,1,0,2,0,2,0,,,,,,,,,,right,0.9902725999709219,68.79499389999546,oy13,68.79499389999546,None,60.76176569995005,62.761525699985214,False,5,['r'],True,0.375,0.5,0.25,1.0,1.0,0.9850568223215076,0.0,wait_cost,0,4,67.71165199996904,None,5,oy13,3,2022-04-08_15h09.36.846,threat_forest,2021.2.3,59.976920858726885,
1,0,1,0,3,0,3,0,,,,,,,,,,right,1.4361547000007704,73.18200349994004,oy13,73.18200349994004,None,60.76176569995005,62.761525699985214,False,4,['r'],True,0.375,0.5,0.25,1.0,1.0,0.9850568223215076,0.0,wait_cost,0,3,71.81139960000291,None,4,oy13,3,2022-04-08_15h09.36.846,threat_forest,2021.2.3,59.976920858726885,
1,0,1,0,4,0,4,0,,,,,,,,,,left,0.9026346000609919,79.63071039994247,oy13,79.63071039994247,None,60.76176569995005,62.761525699985214,True,3,['r'],True,0.375,0.5,0.25,1.0,1.0,0.9850568223215076,-0.25,fight_cost,0,0,76.64474459993653,None,3,oy13,3,2022-04-08_15h09.36.846,threat_forest,2021.2.3,59.976920858726885,
1,0,1,0,,,,,,,,,,,,,,,,,,,,,,,,,,,,,,,,,,,,82.56178079999518,None,0,oy13,3,2022-04-08_15h09.36.846,threat_forest,2021.2.3,59.976920858726885,
2,0,2,0,0,0,0,0,,,,,,,86.2054291999666,89.71184210001957,None,right,0.7775100000435486,92.18468649999704,oy13,86.2054291999666,89.71184210001957,92.18468649999704,None,True,4,['p'],False,0.25,0.5,0.5,2.0,1.0,0.9463946303571862,0.0,succ_gain,1,5,,,,oy13,3,2022-04-08_15h09.36.846,threat_forest,2021.2.3,59.976920858726885,
2,0,2,0,1,0,1,0,,,,,,,,,,left,1.6869684000266716,96.26260070002172,oy13,86.2054291999666,89.71184210001957,96.26260070002172,None,False,5,['p'],False,0.25,0.5,0.5,2.0,1.0,0.9463946303571862,0.0,wait_cost,1,4,94.99542369996198,None,5,oy13,3,2022-04-08_15h09.36.846,threat_forest,2021.2.3,59.976920858726885,
2,0,2,0,2,0,2,0,,,,,,,,,,right,1.0898505999939516,103.03509519994259,oy13,103.03509519994259,None,97.97891009994783,99.97863009991124,False,4,['p'],True,0.3333333333333333,0.3333333333333333,0.0,0.0,1.0,0.5793801642856949,0.0,wait_cost,0,3,99.97863009991124,None,4,oy13,3,2022-04-08_15h09.36.846,threat_forest,2021.2.3,59.976920858726885,
2,0,2,0,3,0,3,0,,,,,,,,,,right,1.246479699970223,109.66586880001705,oy13,109.66586880001705,None,97.97891009994783,99.97863009991124,False,3,['p'],True,0.3333333333333333,0.3333333333333333,0.0,0.0,1.0,0.5793801642856949,0.0,wait_cost,0,2,106.14564669993706,None,3,oy13,3,2022-04-08_15h09.36.846,threat_forest,2021.2.3,59.976920858726885,
2,0,2,0,4,0,4,0,,,,,,,,,,right,1.2336195999523625,115.10000149998814,oy13,115.10000149998814,None,97.97891009994783,99.97863009991124,False,2,['p'],True,0.3333333333333333,0.3333333333333333,0.0,0.0,1.0,0.5793801642856949,-0.6666666666666667,wait_cost,0,1,112.92858930001967,None,2,oy13,3,2022-04-08_15h09.36.846,threat_forest,2021.2.3,59.976920858726885,
2,0,2,0,5,0,5,0,,,,,,,,,,right,0.7665179999312386,120.38601149991155,oy13,116.36213089991361,118.36200939991977,120.38601149991155,None,True,1,['p'],False,0.25,0.5,0.5,2.0,1.0,0.9463946303571862,0.25,unsucc_cost,1,0,118.36200939991977,None,1,oy13,3,2022-04-08_15h09.36.846,threat_forest,2021.2.3,59.976920858726885,
2,0,2,0,,,,,,,,,,,,,,,,,,,,,,,,,,,,,,,,,,,,123.17960539995693,None,0,oy13,3,2022-04-08_15h09.36.846,threat_forest,2021.2.3,59.976920858726885,
3,0,3,0,0,0,0,0,,,,,,,126.26166069996543,129.76295849995222,None,right,1.2093567999545485,133.47305759997107,oy13,133.47305759997107,None,126.26166069996543,129.76295849995222,False,4,['p'],True,0.2222222222222222,0.3333333333333333,0.3333333333333333,2.0,2.0,0.9656336071428248,0.0,wait_cost,0,3,,,,oy13,3,2022-04-08_15h09.36.846,threat_forest,2021.2.3,59.976920858726885,
3,0,3,0,1,0,1,0,,,,,,,,,,left,1.6752114000264555,137.25654719991144,oy13,134.71235980000347,136.71271869994234,137.25654719991144,None,False,3,['p'],False,0.16,0.2,0.2,2.0,2.0,0.8198746470064713,-0.2,wait_cost,1,2,136.71271869994234,None,3,oy13,3,2022-04-08_15h09.36.846,threat_forest,2021.2.3,59.976920858726885,
3,0,3,0,2,0,2,0,,,,,,,,,,right,0.9858079999685287,141.91593629994895,oy13,134.71235980000347,136.71271869994234,141.91593629994895,None,True,2,['p'],False,0.16,0.2,0.2,2.0,2.0,0.8198746470064713,-0.8400000000000001,fight_cost,1,0,140.96267079992685,None,2,oy13,3,2022-04-08_15h09.36.846,threat_forest,2021.2.3,59.976920858726885,
3,0,3,0,,,,,,,,,,,,,,,,,,,,,,,,,,,,,,,,,,,,144.9294923999114,None,0,oy13,3,2022-04-08_15h09.36.846,threat_forest,2021.2.3,59.976920858726885,
4,0,4,0,0,0,0,0,,,,,,,146.04028570000082,149.54602130001877,None,right,1.2501099000219256,151.32225079997443,oy13,151.32225079997443,None,146.04028570000082,149.54602130001877,False,4,['p'],True,0.4444444444444445,0.6666666666666666,0.3333333333333333,1.0,1.0,0.9656336071428248,0.0,wait_cost,0,3,,,,oy13,3,2022-04-08_15h09.36.846,threat_forest,2021.2.3,59.976920858726885,
4,0,4,0,1,0,1,0,,,,,,,,,,right,0.9453260999871418,156.11664219992235,oy13,152.59633410000242,154.59599900001194,156.11664219992235,None,True,3,['p'],False,0.2222222222222222,0.2222222222222222,0.0,0.0,1.0,0.4821593609696809,0.0,succ_gain,1,4,154.59599900001194,None,3,oy13,3,2022-04-08_15h09.36.846,threat_forest,2021.2.3,59.976920858726885,
4,0,4,0,2,0,2,0,,,,,,,,,,right,1.3447499999310821,161.6712470999919,oy13,161.6712470999919,None,157.08005160000175,159.07924489991274,False,4,['p'],True,0.4444444444444445,0.6666666666666666,0.3333333333333333,1.0,1.0,0.9656336071428248,0.0,wait_cost,0,3,159.07924489991274,None,4,oy13,3,2022-04-08_15h09.36.846,threat_forest,2021.2.3,59.976920858726885,
4,0,4,0,3,0,3,0,,,,,,,,,,right,1.2589616000186652,165.7219656999223,oy13,163.04658979992382,165.0460560999345,165.7219656999223,None,True,3,['p'],False,0.2222222222222222,0.2222222222222222,0.0,0.0,1.0,0.4821593609696809,0.0,unsucc_cost,1,1,165.0460560999345,None,3,oy13,3,2022-04-08_15h09.36.846,threat_forest,2021.2.3,59.976920858726885,
4,0,4,0,4,0,4,0,,,,,,,,,,left,0.6987041999818757,172.20233859994914,oy13,172.20233859994914,None,167.0127455999609,169.0128076999681,True,1,['p'],True,0.4444444444444445,0.6666666666666666,0.3333333333333333,1.0,1.0,0.9656336071428248,0.4444444444444444,succ_gain,0,2,169.0128076999681,None,1,oy13,3,2022-04-08_15h09.36.846,threat_forest,2021.2.3,59.976920858726885,
4,0,4,0,5,0,5,0,,,,,,,,,,right,1.4360583999659866,177.20038799999747,oy13,172.93018119991757,174.92987749993335,177.20038799999747,None,True,2,['p'],False,0.2222222222222222,0.2222222222222222,0.0,0.0,1.0,0.4821593609696809,-0.7777777777777778,succ_gain,1,3,174.92987749993335,None,2,oy13,3,2022-04-08_15h09.36.846,threat_forest,2021.2.3,59.976920858726885,
4,0,4,0,6,0,6,0,,,,,,,,,,left,0.9938898000400513,184.26574109995272,oy13,172.93018119991757,174.92987749993335,184.26574109995272,None,False,3,['p'],False,0.2222222222222222,0.2222222222222222,0.0,0.0,1.0,0.4821593609696809,0.0,wait_cost,1,2,180.66294189996552,None,3,oy13,3,2022-04-08_15h09.36.846,threat_forest,2021.2.3,59.976920858726885,
4,0,4,0,7,0,7,0,,,,,,,,,,left,2.385931500000879,190.07995439996012,oy13,172.93018119991757,174.92987749993335,190.07995439996012,None,False,2,['p'],False,0.2222222222222222,0.2222222222222222,0.0,0.0,1.0,0.4821593609696809,-0.7777777777777778,wait_cost,1,1,187.28002059995197,None,2,oy13,3,2022-04-08_15h09.36.846,threat_forest,2021.2.3,59.976920858726885,
4,0,4,0,,,,,,,,,,,,,,,,,,,,,,,,,,,,,,,,,,,,194.4969821999548,None,1,oy13,3,2022-04-08_15h09.36.846,threat_forest,2021.2.3,59.976920858726885,
5,0,5,0,0,0,0,0,,,,,,,196.59175509994384,200.09684889996424,None,left,1.260941500077024,201.41934249992482,oy13,201.41934249992482,None,196.59175509994384,200.09684889996424,True,4,['p'],True,0.4444444444444445,0.6666666666666666,0.3333333333333333,1.0,2.0,0.9656336071428248,0.0,unsucc_cost,0,2,,,,oy13,3,2022-04-08_15h09.36.846,threat_forest,2021.2.3,59.976920858726885,
5,0,5,0,1,0,1,0,,,,,,,,,,left,1.5927378999767825,205.54716690001078,oy13,205.54716690001078,None,196.59175509994384,200.09684889996424,True,2,['p'],True,0.4444444444444445,0.6666666666666666,0.3333333333333333,1.0,2.0,0.9656336071428248,-0.5555555555555556,unsucc_cost,0,0,204.69717780000065,None,2,oy13,3,2022-04-08_15h09.36.846,threat_forest,2021.2.3,59.976920858726885,
5,0,5,0,,,,,,,,,,,,,,,,,,,,,,,,,,,,,,,,,,,,209.16399229993112,None,0,oy13,3,2022-04-08_15h09.36.846,threat_forest,2021.2.3,59.976920858726885,
6,0,6,0,0,0,0,0,,,,,,,211.2903873999603,214.79697139991913,None,right,0.8318761000409722,216.9257364999503,oy13,216.9257364999503,None,211.2903873999603,214.79697139991913,False,4,['r'],True,0.4444444444444445,0.6666666666666666,0.3333333333333333,1.0,2.0,0.9656336071428248,0.0,wait_cost,0,3,,,,oy13,3,2022-04-08_15h09.36.846,threat_forest,2021.2.3,59.976920858726885,
6,0,6,0,1,0,1,0,,,,,,,,,,right,0.937713099992834,223.28355429996736,oy13,217.78062630002387,219.78053659992293,223.28355429996736,None,True,3,['r'],False,0.2448979591836734,0.2857142857142857,0.1428571428571428,1.0,2.0,0.8400769154957735,-0.1428571428571428,succ_gain,1,5,219.78053659992293,None,3,oy13,3,2022-04-08_15h09.36.846,threat_forest,2021.2.3,59.976920858726885,
6,0,6,0,2,0,2,0,,,,,,,,,,right,0.9340271999826655,229.8754511999432,oy13,229.8754511999432,None,224.24760869995225,226.247319099959,False,5,['r'],True,0.4444444444444445,0.6666666666666666,0.3333333333333333,1.0,2.0,0.9656336071428248,0.0,wait_cost,0,4,226.247319099959,None,5,oy13,3,2022-04-08_15h09.36.846,threat_forest,2021.2.3,59.976920858726885,
6,0,6,0,3,0,3,0,,,,,,,,,,right,1.206017000018619,235.76791409996804,oy13,235.76791409996804,None,224.24760869995225,226.247319099959,False,4,['r'],True,0.4444444444444445,0.6666666666666666,0.3333333333333333,1.0,2.0,0.9656336071428248,0.0,wait_cost,0,3,232.83066989993677,None,4,oy13,3,2022-04-08_15h09.36.846,threat_forest,2021.2.3,59.976920858726885,
6,0,6,0,4,0,4,0,,,,,,,,,,right,1.2009859000099823,240.4710352999391,oy13,236.99880529998336,239.0141280000098,240.4710352999391,None,True,3,['r'],False,0.2448979591836734,0.2857142857142857,0.1428571428571428,1.0,2.0,0.8400769154957735,-0.1428571428571428,fight_cost,1,0,239.0141280000098,None,3,oy13,3,2022-04-08_15h09.36.846,threat_forest,2021.2.3,59.976920858726885,
6,0,6,0,,,,,,,,,,,,,,,,,,,,,,,,,,,,,,,,,,,,243.69768849993125,None,0,oy13,3,2022-04-08_15h09.36.846,threat_forest,2021.2.3,59.976920858726885,
7,0,7,0,0,0,0,0,,,,,,,245.25423469999805,248.74974989995826,None,right,1.8066595999989659,250.23999719996937,oy13,250.23999719996937,None,245.25423469999805,248.74974989995826,False,5,['p'],True,0.4166666666666667,0.5,0.1666666666666666,1.0,1.0,0.9358932809493992,0.0,wait_cost,0,4,,,,oy13,3,2022-04-08_15h09.36.846,threat_forest,2021.2.3,59.976920858726885,
7,0,7,0,1,0,1,0,,,,,,,,,,left,1.54817990004085,257.83857639995404,oy13,252.06462299998384,254.06466099992394,257.83857639995404,None,False,4,['p'],False,0.27,0.3,0.1,1.0,1.0,0.7963326591781347,0.0,wait_cost,1,3,254.06466099992394,None,4,oy13,3,2022-04-08_15h09.36.846,threat_forest,2021.2.3,59.976920858726885,
7,0,7,0,2,0,2,0,,,,,,,,,,left,0.9962561000138521,264.50498059997335,oy13,252.06462299998384,254.06466099992394,264.50498059997335,None,False,3,['p'],False,0.27,0.3,0.1,1.0,1.0,0.7963326591781347,-0.1,wait_cost,1,2,261.414337299997,None,3,oy13,3,2022-04-08_15h09.36.846,threat_forest,2021.2.3,59.976920858726885,
7,0,7,0,3,0,3,0,,,,,,,,,,left,2.070168900070712,270.453468499938,oy13,252.06462299998384,254.06466099992394,270.453468499938,None,False,2,['p'],False,0.27,0.3,0.1,1.0,1.0,0.7963326591781347,-0.73,wait_cost,1,1,267.5477034000214,None,2,oy13,3,2022-04-08_15h09.36.846,threat_forest,2021.2.3,59.976920858726885,
7,0,7,0,4,0,4,0,,,,,,,,,,left,0.6623818000080064,278.2603339999914,oy13,278.2603339999914,None,272.5483899000101,274.54827219992876,True,1,['p'],True,0.4166666666666667,0.5,0.1666666666666666,1.0,1.0,0.9358932809493992,0.4166666666666667,succ_gain,0,2,274.54827219992876,None,1,oy13,3,2022-04-08_15h09.36.846,threat_forest,2021.2.3,59.976920858726885,
7,0,7,0,5,0,5,0,,,,,,,,,,left,1.0669437000760809,283.3169824000215,oy13,283.3169824000215,None,272.5483899000101,274.54827219992876,True,2,['p'],True,0.4166666666666667,0.5,0.1666666666666666,1.0,1.0,0.9358932809493992,-0.5833333333333333,unsucc_cost,0,0,280.94821549998596,None,2,oy13,3,2022-04-08_15h09.36.846,threat_forest,2021.2.3,59.976920858726885,
7,0,7,0,,,,,,,,,,,,,,,,,,,,,,,,,,,,,,,,,,,,286.41489729995374,None,0,oy13,3,2022-04-08_15h09.36.846,threat_forest,2021.2.3,59.976920858726885,
8,0,8,0,0,0,0,0,,,,,,,289.4054799999576,292.9148709999863,None,left,1.4339739000424743,295.58810469997115,oy13,295.58810469997115,None,289.4054799999576,292.9148709999863,True,5,['r'],True,0.3333333333333333,0.3333333333333333,0.0,0.0,2.0,0.5793801642856949,0.0,succ_gain,0,6,,,,oy13,3,2022-04-08_15h09.36.846,threat_forest,2021.2.3,59.976920858726885,
8,0,8,0,1,0,1,0,,,,,,,,,,left,1.2413818000350147,302.639256299939,oy13,297.0486288999673,299.0483162999153,302.639256299939,None,False,6,['r'],False,0.25,0.5,0.5,2.0,2.0,0.9463946303571862,0.0,wait_cost,1,5,299.0483162999153,None,6,oy13,3,2022-04-08_15h09.36.846,threat_forest,2021.2.3,59.976920858726885,
8,0,8,0,2,0,2,0,,,,,,,,,,left,1.6620866999728605,306.81654949998483,oy13,297.0486288999673,299.0483162999153,306.81654949998483,None,False,5,['r'],False,0.25,0.5,0.5,2.0,2.0,0.9463946303571862,0.0,wait_cost,1,4,305.89841849997174,None,5,oy13,3,2022-04-08_15h09.36.846,threat_forest,2021.2.3,59.976920858726885,
8,0,8,0,3,0,3,0,,,,,,,,,,left,0.8219969000201672,312.43467819993384,oy13,297.0486288999673,299.0483162999153,312.43467819993384,None,False,4,['r'],False,0.25,0.5,0.5,2.0,2.0,0.9463946303571862,0.0,wait_cost,1,3,310.498283599969,None,4,oy13,3,2022-04-08_15h09.36.846,threat_forest,2021.2.3,59.976920858726885,
8,0,8,0,4,0,4,0,,,,,,,,,,left,1.069363999995403,317.28952029999346,oy13,317.28952029999346,None,313.282093900023,315.2818041999126,True,3,['r'],True,0.3333333333333333,0.3333333333333333,0.0,0.0,2.0,0.5793801642856949,0.0,succ_gain,0,5,315.2818041999126,None,3,oy13,3,2022-04-08_15h09.36.846,threat_forest,2021.2.3,59.976920858726885,
8,0,8,0,5,0,5,0,,,,,,,,,,right,0.6349118000362068,321.9843297000043,oy13,321.9843297000043,None,313.282093900023,315.2818041999126,False,5,['r'],True,0.3333333333333333,0.3333333333333333,0.0,0.0,2.0,0.5793801642856949,0.0,wait_cost,0,4,320.38206129998434,None,5,oy13,3,2022-04-08_15h09.36.846,threat_forest,2021.2.3,59.976920858726885,
8,0,8,0,6,0,6,0,,,,,,,,,,right,1.1479331000009552,326.1685647999402,oy13,326.1685647999402,None,313.282093900023,315.2818041999126,False,4,['r'],True,0.3333333333333333,0.3333333333333333,0.0,0.0,2.0,0.5793801642856949,0.0,wait_cost,0,3,324.6486943999771,None,4,oy13,3,2022-04-08_15h09.36.846,threat_forest,2021.2.3,59.976920858726885,
8,0,8,0,7,0,7,0,,,,,,,,,,right,0.535196700016968,331.34982469992246,oy13,331.34982469992246,None,313.282093900023,315.2818041999126,False,3,['r'],True,0.3333333333333333,0.3333333333333333,0.0,0.0,2.0,0.5793801642856949,0.0,wait_cost,0,2,329.34849849995226,None,3,oy13,3,2022-04-08_15h09.36.846,threat_forest,2021.2.3,59.976920858726885,
8,0,8,0,,,,,,,,,,,,,,,,,,,,,,,,,,,,,,,,,,,,333.9157158000162,None,2,oy13,3,2022-04-08_15h09.36.846,threat_forest,2021.2.3,59.976920858726885,
9,0,9,0,0,0,0,0,,,,,,,335.0430102000246,338.5490949000232,None,left,0.9849896000232548,339.1747284999583,oy13,339.1747284999583,None,335.0430102000246,338.5490949000232,True,4,['p'],True,0.4,0.4,0.0,0.0,1.0,0.6126016192893442,0.0,succ_gain,0,5,,,,oy13,3,2022-04-08_15h09.36.846,threat_forest,2021.2.3,59.976920858726885,
9,0,9,0,1,0,1,0,,,,,,,,,,left,1.1091377000557259,344.3174707000144,oy13,340.1821737999562,342.1824542999966,344.3174707000144,None,False,5,['p'],False,0.3061224489795918,0.4285714285714285,0.2857142857142857,2.0,1.0,0.9885754083994552,0.0,wait_cost,1,4,342.1824542999966,None,5,oy13,3,2022-04-08_15h09.36.846,threat_forest,2021.2.3,59.976920858726885,
9,0,9,0,2,0,2,0,,,,,,,,,,left,0.7082158999983221,349.82082379993517,oy13,349.82082379993517,None,345.4493641000008,347.4489322999725,True,4,['p'],True,0.4,0.4,0.0,0.0,1.0,0.6126016192893442,0.0,unsucc_cost,0,2,347.4489322999725,None,4,oy13,3,2022-04-08_15h09.36.846,threat_forest,2021.2.3,59.976920858726885,
9,0,9,0,3,0,3,0,,,,,,,,,,left,0.6943805000046268,353.9004842999857,oy13,353.9004842999857,None,345.4493641000008,347.4489322999725,True,2,['p'],True,0.4,0.4,0.0,0.0,1.0,0.6126016192893442,-0.6,succ_gain,0,3,352.54945539997425,None,2,oy13,3,2022-04-08_15h09.36.846,threat_forest,2021.2.3,59.976920858726885,
9,0,9,0,4,0,4,0,,,,,,,,,,left,1.2581746999640018,360.17375939991325,oy13,360.17375939991325,None,345.4493641000008,347.4489322999725,True,3,['p'],True,0.4,0.4,0.0,0.0,1.0,0.6126016192893442,0.0,succ_gain,0,4,356.6160171999363,None,3,oy13,3,2022-04-08_15h09.36.846,threat_forest,2021.2.3,59.976920858726885,
9,0,9,0,5,0,5,0,,,,,,,,,,left,0.8305677000898868,364.9404874999309,oy13,361.4495816999115,363.44949489994906,364.9404874999309,None,False,4,['p'],False,0.3061224489795918,0.4285714285714285,0.2857142857142857,2.0,1.0,0.9885754083994552,0.0,wait_cost,1,3,363.44949489994906,None,4,oy13,3,2022-04-08_15h09.36.846,threat_forest,2021.2.3,59.976920858726885,
9,0,9,0,6,0,6,0,,,,,,,,,,right,0.9521726999664679,370.7390009999508,oy13,370.7390009999508,None,365.7995152999647,367.79967460001353,False,3,['p'],True,0.4,0.4,0.0,0.0,1.0,0.6126016192893442,0.0,wait_cost,0,2,367.79967460001353,None,3,oy13,3,2022-04-08_15h09.36.846,threat_forest,2021.2.3,59.976920858726885,
9,0,9,0,7,0,7,0,,,,,,,,,,left,0.9206603999482468,376.94091070001014,oy13,371.71634809998795,373.7160392999649,376.94091070001014,None,False,2,['p'],False,0.3061224489795918,0.4285714285714285,0.2857142857142857,2.0,1.0,0.9885754083994552,-0.6938775510204083,wait_cost,1,1,373.7160392999649,None,2,oy13,3,2022-04-08_15h09.36.846,threat_forest,2021.2.3,59.976920858726885,
9,0,9,0,,,,,,,,,,,,,,,,,,,,,,,,,,,,,,,,,,,,379.88318589993287,None,1,oy13,3,2022-04-08_15h09.36.846,threat_forest,2021.2.3,59.976920858726885,
10,0,10,0,0,0,0,0,,,,,,,381.24377599998843,384.7497870000079,None,right,1.0061119999736547,387.5435681999661,oy13,387.5435681999661,None,381.24377599998843,384.7497870000079,False,4,['p'],True,0.4444444444444445,0.6666666666666666,0.3333333333333333,1.0,1.0,0.9656336071428248,0.0,wait_cost,0,3,,,,oy13,3,2022-04-08_15h09.36.846,threat_forest,2021.2.3,59.976920858726885,
10,0,10,0,1,0,1,0,,,,,,,,,,right,0.9444948000600561,394.20395559992176,oy13,394.20395559992176,None,381.24377599998843,384.7497870000079,False,3,['p'],True,0.4444444444444445,0.6666666666666666,0.3333333333333333,1.0,1.0,0.9656336071428248,-0.3333333333333333,wait_cost,0,2,390.56652019999456,None,3,oy13,3,2022-04-08_15h09.36.846,threat_forest,2021.2.3,59.976920858726885,
10,0,10,0,2,0,2,0,,,,,,,,,,right,1.0954263000749052,399.83723509998526,oy13,395.16685639997013,397.16669949993957,399.83723509998526,None,True,2,['p'],False,0.1875,0.25,0.25,2.0,1.0,0.895754137500101,-0.8125,succ_gain,1,3,397.16669949993957,None,2,oy13,3,2022-04-08_15h09.36.846,threat_forest,2021.2.3,59.976920858726885,
10,0,10,0,3,0,3,0,,,,,,,,,,right,0.8194005000405014,405.69025859993417,oy13,405.69025859993417,None,400.94987170002423,402.9497751999879,False,3,['p'],True,0.4444444444444445,0.6666666666666666,0.3333333333333333,1.0,1.0,0.9656336071428248,-0.3333333333333333,wait_cost,0,2,402.9497751999879,None,3,oy13,3,2022-04-08_15h09.36.846,threat_forest,2021.2.3,59.976920858726885,
10,0,10,0,4,0,4,0,,,,,,,,,,right,0.9347778999945149,411.7880306999432,oy13,411.7880306999432,None,400.94987170002423,402.9497751999879,False,2,['p'],True,0.4444444444444445,0.6666666666666666,0.3333333333333333,1.0,1.0,0.9656336071428248,-0.5555555555555556,wait_cost,0,1,408.53344069991726,None,2,oy13,3,2022-04-08_15h09.36.846,threat_forest,2021.2.3,59.976920858726885,
10,0,10,0,5,0,5,0,,,,,,,,,,left,0.7415781000163406,417.90749479993246,oy13,417.90749479993246,None,400.94987170002423,402.9497751999879,True,1,['p'],True,0.4444444444444445,0.6666666666666666,0.3333333333333333,1.0,1.0,0.9656336071428248,0.4444444444444444,unsucc_cost,0,0,414.74988759995904,None,1,oy13,3,2022-04-08_15h09.36.846,threat_forest,2021.2.3,59.976920858726885,
10,0,10,0,,,,,,,,,,,,,,,,,,,,,,,,,,,,,,,,,,,,420.6670554999728,None,0,oy13,3,2022-04-08_15h09.36.846,threat_forest,2021.2.3,59.976920858726885,
11,0,11,0,0,0,0,0,,,,,,,421.4024081999669,424.89706609991845,None,right,1.1339797000400722,427.225960199954,oy13,421.4024081999669,424.89706609991845,427.225960199954,None,True,4,['r'],False,0.3950617283950617,0.4444444444444444,0.1111111111111111,1.0,2.0,0.8733423231021583,0.0,succ_gain,1,6,,,,oy13,3,2022-04-08_15h09.36.846,threat_forest,2021.2.3,59.976920858726885,
11,0,11,0,1,0,1,0,,,,,,,,,,right,0.9504155999748036,433.19388499995694,oy13,433.19388499995694,None,428.3841497999383,430.3839228999568,False,6,['r'],True,0.5555555555555556,0.6666666666666666,0.1666666666666666,1.0,2.0,0.8929352898779306,0.0,wait_cost,0,5,430.3839228999568,None,6,oy13,3,2022-04-08_15h09.36.846,threat_forest,2021.2.3,59.976920858726885,
11,0,11,0,2,0,2,0,,,,,,,,,,right,1.3376560000469908,437.17606099997647,oy13,437.17606099997647,None,428.3841497999383,430.3839228999568,False,5,['r'],True,0.5555555555555556,0.6666666666666666,0.1666666666666666,1.0,2.0,0.8929352898779306,0.0,wait_cost,0,4,436.18377879995387,None,5,oy13,3,2022-04-08_15h09.36.846,threat_forest,2021.2.3,59.976920858726885,
11,0,11,0,3,0,3,0,,,,,,,,,,right,1.0906595999840647,442.75953519996256,oy13,438.53359859995544,440.53372429998126,442.75953519996256,None,True,4,['r'],False,0.3950617283950617,0.4444444444444444,0.1111111111111111,1.0,2.0,0.8733423231021583,0.0,succ_gain,1,6,440.53372429998126,None,4,oy13,3,2022-04-08_15h09.36.846,threat_forest,2021.2.3,59.976920858726885,
11,0,11,0,4,0,4,0,,,,,,,,,,left,0.8676128999795765,447.35649369994644,oy13,438.53359859995544,440.53372429998126,447.35649369994644,None,False,6,['r'],False,0.3950617283950617,0.4444444444444444,0.1111111111111111,1.0,2.0,0.8733423231021583,0.0,wait_cost,1,5,445.86703139997553,None,6,oy13,3,2022-04-08_15h09.36.846,threat_forest,2021.2.3,59.976920858726885,
11,0,11,0,5,0,5,0,,,,,,,,,,right,0.7643762000370771,451.03098019992467,oy13,451.03098019992467,None,448.2508625999326,450.25020170002244,False,5,['r'],True,0.5555555555555556,0.6666666666666666,0.1666666666666666,1.0,2.0,0.8929352898779306,0.0,wait_cost,0,4,450.25020170002244,None,5,oy13,3,2022-04-08_15h09.36.846,threat_forest,2021.2.3,59.976920858726885,
11,0,11,0,6,0,6,0,,,,,,,,,,right,0.7496236000442877,454.40721540001687,oy13,454.40721540001687,None,448.2508625999326,450.25020170002244,False,4,['r'],True,0.5555555555555556,0.6666666666666666,0.1666666666666666,1.0,2.0,0.8929352898779306,0.0,wait_cost,0,3,453.81744569994044,None,4,oy13,3,2022-04-08_15h09.36.846,threat_forest,2021.2.3,59.976920858726885,
11,0,11,0,7,0,7,0,,,,,,,,,,left,0.7512485999614,460.0416298999917,oy13,455.18422069994267,457.18399779999163,460.0416298999917,None,False,3,['r'],False,0.3950617283950617,0.4444444444444444,0.1111111111111111,1.0,2.0,0.8733423231021583,-0.1111111111111111,wait_cost,1,2,457.18399779999163,None,3,oy13,3,2022-04-08_15h09.36.846,threat_forest,2021.2.3,59.976920858726885,
11,0,11,0,,,,,,,,,,,,,,,,,,,,,,,,,,,,,,,,,,,,462.81752019992564,None,2,oy13,3,2022-04-08_15h09.36.846,threat_forest,2021.2.3,59.976920858726885,
12,0,12,0,0,0,0,0,,,,,,,464.87273389997426,468.3837448999984,None,left,1.2662672000005841,469.1077574000228,oy13,464.87273389997426,468.3837448999984,469.1077574000228,None,False,4,['r'],False,0.2222222222222222,0.6666666666666666,0.6666666666666666,2.0,2.0,0.77250688571426,0.0,wait_cost,1,3,,,,oy13,3,2022-04-08_15h09.36.846,threat_forest,2021.2.3,59.976920858726885,
12,0,12,0,1,0,1,0,,,,,,,,,,left,0.7810526000102982,474.4259923999198,oy13,474.4259923999198,None,470.4012733999407,472.4008477999596,True,3,['r'],True,0.5,0.5,0.0,0.0,2.0,0.6309297535714574,0.0,unsucc_cost,0,1,472.4008477999596,None,3,oy13,3,2022-04-08_15h09.36.846,threat_forest,2021.2.3,59.976920858726885,
12,0,12,0,2,0,2,0,,,,,,,,,,right,0.9244346999330446,480.82151729997713,oy13,475.2346385999117,477.2338720000116,480.82151729997713,None,True,1,['r'],False,0.2222222222222222,0.6666666666666666,0.6666666666666666,2.0,2.0,0.77250688571426,0.2222222222222222,succ_gain,1,3,477.2338720000116,None,1,oy13,3,2022-04-08_15h09.36.846,threat_forest,2021.2.3,59.976920858726885,
12,0,12,0,3,0,3,0,,,,,,,,,,left,0.9027483999961987,487.14738179999404,oy13,487.14738179999404,None,481.7679118999513,483.7678731000051,True,3,['r'],True,0.5,0.5,0.0,0.0,2.0,0.6309297535714574,0.0,succ_gain,0,5,483.7678731000051,None,3,oy13,3,2022-04-08_15h09.36.846,threat_forest,2021.2.3,59.976920858726885,
12,0,12,0,4,0,4,0,,,,,,,,,,left,0.6651802000124007,493.7798054999439,oy13,488.06775069993455,490.0677354999352,493.7798054999439,None,False,5,['r'],False,0.2222222222222222,0.6666666666666666,0.6666666666666666,2.0,2.0,0.77250688571426,0.0,wait_cost,1,4,490.0677354999352,None,5,oy13,3,2022-04-08_15h09.36.846,threat_forest,2021.2.3,59.976920858726885,
12,0,12,0,5,0,5,0,,,,,,,,,,left,0.9284278999548405,497.12190599995665,oy13,488.06775069993455,490.0677354999352,497.12190599995665,None,False,4,['r'],False,0.2222222222222222,0.6666666666666666,0.6666666666666666,2.0,2.0,0.77250688571426,0.0,wait_cost,1,3,496.46769710001536,None,4,oy13,3,2022-04-08_15h09.36.846,threat_forest,2021.2.3,59.976920858726885,
12,0,12,0,6,0,6,0,,,,,,,,,,left,0.6806108999298885,503.0361207999522,oy13,488.06775069993455,490.0677354999352,503.0361207999522,None,False,3,['r'],False,0.2222222222222222,0.6666666666666666,0.6666666666666666,2.0,2.0,0.77250688571426,-0.6666666666666666,wait_cost,1,2,500.06779599993024,None,3,oy13,3,2022-04-08_15h09.36.846,threat_forest,2021.2.3,59.976920858726885,
12,0,12,0,7,0,7,0,,,,,,,,,,left,0.9123036999953911,506.3849252000218,oy13,488.06775069993455,490.0677354999352,506.3849252000218,None,False,2,['r'],False,0.2222222222222222,0.6666666666666666,0.6666666666666666,2.0,2.0,0.77250688571426,-0.7777777777777778,wait_cost,1,1,505.73489019996487,None,2,oy13,3,2022-04-08_15h09.36.846,threat_forest,2021.2.3,59.976920858726885,
12,0,12,0,,,,,,,,,,,,,,,,,,,,,,,,,,,,,,,,,,,,509.3181844999781,None,1,oy13,3,2022-04-08_15h09.36.846,threat_forest,2021.2.3,59.976920858726885,
13,0,13,0,0,0,0,0,,,,,,,512.2927331000101,515.8016723999754,None,right,1.4171645999886096,517.675222299993,oy13,512.2927331000101,515.8016723999754,517.675222299993,None,True,5,['p'],False,0.2222222222222222,0.6666666666666666,0.6666666666666666,2.0,2.0,0.77250688571426,0.0,succ_gain,1,6,,,,oy13,3,2022-04-08_15h09.36.846,threat_forest,2021.2.3,59.976920858726885,
13,0,13,0,1,0,1,0,,,,,,,,,,right,0.8524256999371573,524.210108499974,oy13,524.210108499974,None,519.1183579999488,521.1184581000125,False,6,['p'],True,0.25,0.25,0.0,0.0,2.0,0.5118595071429148,0.0,wait_cost,0,5,521.1184581000125,None,6,oy13,3,2022-04-08_15h09.36.846,threat_forest,2021.2.3,59.976920858726885,
13,0,13,0,2,0,2,0,,,,,,,,,,left,1.443424200057052,529.0706279999577,oy13,525.085393599933,527.0850703999167,529.0706279999577,None,False,5,['p'],False,0.2222222222222222,0.6666666666666666,0.6666666666666666,2.0,2.0,0.77250688571426,0.0,wait_cost,1,4,527.0850703999167,None,5,oy13,3,2022-04-08_15h09.36.846,threat_forest,2021.2.3,59.976920858726885,
13,0,13,0,3,0,3,0,,,,,,,,,,right,0.8053975999355316,534.1532369999913,oy13,525.085393599933,527.0850703999167,534.1532369999913,None,True,4,['p'],False,0.2222222222222222,0.6666666666666666,0.6666666666666666,2.0,2.0,0.77250688571426,0.0,unsucc_cost,1,2,532.5349060000153,None,4,oy13,3,2022-04-08_15h09.36.846,threat_forest,2021.2.3,59.976920858726885,
13,0,13,0,4,0,4,0,,,,,,,,,,left,1.6288879999192432,539.0850407999242,oy13,525.085393599933,527.0850703999167,539.0850407999242,None,False,2,['p'],False,0.2222222222222222,0.6666666666666666,0.6666666666666666,2.0,2.0,0.77250688571426,-0.7777777777777778,wait_cost,1,1,536.98519269994,None,2,oy13,3,2022-04-08_15h09.36.846,threat_forest,2021.2.3,59.976920858726885,
13,0,13,0,5,0,5,0,,,,,,,,,,right,1.0068768999772146,545.4378947999794,oy13,545.4378947999794,None,540.7355808999855,542.7351271000225,False,1,['p'],True,0.25,0.25,0.0,0.0,2.0,0.5118595071429148,0.25,wait_cost,0,0,542.7351271000225,None,1,oy13,3,2022-04-08_15h09.36.846,threat_forest,2021.2.3,59.976920858726885,
13,0,13,0,,,,,,,,,,,,,,,,,,,,,,,,,,,,,,,,,,,,548.4689637999982,None,0,oy13,3,2022-04-08_15h09.36.846,threat_forest,2021.2.3,59.976920858726885,
14,0,14,0,0,0,0,0,,,,,,,550.6681509999325,554.1627250999445,None,right,1.4128316999413073,557.5444952999242,oy13,557.5444952999242,None,550.6681509999325,554.1627250999445,False,4,['p'],True,0.2857142857142857,0.2857142857142857,0.0,0.0,2.0,0.5445684476282007,0.0,wait_cost,0,3,,,,oy13,3,2022-04-08_15h09.36.846,threat_forest,2021.2.3,59.976920858726885,
14,0,14,0,1,0,1,0,,,,,,,,,,right,1.4828581999754533,561.8235569000244,oy13,561.8235569000244,None,550.6681509999325,554.1627250999445,False,3,['p'],True,0.2857142857142857,0.2857142857142857,0.0,0.0,2.0,0.5445684476282007,0.0,wait_cost,0,2,561.0021824999712,None,3,oy13,3,2022-04-08_15h09.36.846,threat_forest,2021.2.3,59.976920858726885,
14,0,14,0,2,0,2,0,,,,,,,,,,right,1.2942035000305623,567.6688270999584,oy13,567.6688270999584,None,550.6681509999325,554.1627250999445,False,2,['p'],True,0.2857142857142857,0.2857142857142857,0.0,0.0,2.0,0.5445684476282007,-0.7142857142857143,wait_cost,0,1,565.3357032999629,None,2,oy13,3,2022-04-08_15h09.36.846,threat_forest,2021.2.3,59.976920858726885,
14,0,14,0,3,0,3,0,,,,,,,,,,left,0.9268787000328302,572.6541780999396,oy13,572.6541780999396,None,550.6681509999325,554.1627250999445,True,1,['p'],True,0.2857142857142857,0.2857142857142857,0.0,0.0,2.0,0.5445684476282007,0.2857142857142857,succ_gain,0,3,570.9858015999198,None,1,oy13,3,2022-04-08_15h09.36.846,threat_forest,2021.2.3,59.976920858726885,
14,0,14,0,4,0,4,0,,,,,,,,,,right,1.1356051999609917,577.0384044999955,oy13,577.0384044999955,None,550.6681509999325,554.1627250999445,False,3,['p'],True,0.2857142857142857,0.2857142857142857,0.0,0.0,2.0,0.5445684476282007,0.0,wait_cost,0,2,575.6027101000072,None,3,oy13,3,2022-04-08_15h09.36.846,threat_forest,2021.2.3,59.976920858726885,
14,0,14,0,5,0,5,0,,,,,,,,,,right,1.3901982000097632,580.7690004999749,oy13,578.2027724999934,580.2027807999402,580.7690004999749,None,True,2,['p'],False,0.24,0.3,0.2,2.0,2.0,0.9003120349047065,-0.76,succ_gain,1,4,580.2027807999402,None,2,oy13,3,2022-04-08_15h09.36.846,threat_forest,2021.2.3,59.976920858726885,
14,0,14,0,6,0,6,0,,,,,,,,,,right,0.7866154999937862,587.8273310000077,oy13,587.8273310000077,None,582.1900459999451,584.2028062000172,False,4,['p'],True,0.2857142857142857,0.2857142857142857,0.0,0.0,2.0,0.5445684476282007,0.0,wait_cost,0,3,584.2028062000172,None,4,oy13,3,2022-04-08_15h09.36.846,threat_forest,2021.2.3,59.976920858726885,
14,0,14,0,7,0,7,0,,,,,,,,,,right,0.9235618999227881,594.3935546999564,oy13,594.3935546999564,None,582.1900459999451,584.2028062000172,False,3,['p'],True,0.2857142857142857,0.2857142857142857,0.0,0.0,2.0,0.5445684476282007,0.0,wait_cost,0,2,590.6361779000144,None,3,oy13,3,2022-04-08_15h09.36.846,threat_forest,2021.2.3,59.976920858726885,
14,0,14,0,,,,,,,,,,,,,,,,,,,,,,,,,,,,,,,,,,,,597.3361881999299,None,2,oy13,3,2022-04-08_15h09.36.846,threat_forest,2021.2.3,59.976920858726885,
15,0,15,0,0,0,0,0,,,,,,,597.9844040999888,601.4816087000072,None,right,1.5840469000395387,603.8465955000138,oy13,603.8465955000138,None,597.9844040999888,601.4816087000072,False,4,['r'],True,0.4285714285714285,0.4285714285714285,0.0,0.0,2.0,0.6216097450797565,0.0,wait_cost,0,3,,,,oy13,3,2022-04-08_15h09.36.846,threat_forest,2021.2.3,59.976920858726885,
15,0,15,0,1,0,1,0,,,,,,,,,,right,0.844295599963516,609.6435362999327,oy13,605.4535753999371,607.4531208999688,609.6435362999327,None,True,3,['r'],False,0.345679012345679,0.4444444444444444,0.2222222222222222,2.0,2.0,0.9685033186841367,-0.2222222222222222,succ_gain,1,5,607.4531208999688,None,3,oy13,3,2022-04-08_15h09.36.846,threat_forest,2021.2.3,59.976920858726885,
15,0,15,0,2,0,2,0,,,,,,,,,,right,1.0713962999871,615.5059905999806,oy13,605.4535753999371,607.4531208999688,615.5059905999806,None,True,5,['r'],False,0.345679012345679,0.4444444444444444,0.2222222222222222,2.0,2.0,0.9685033186841367,0.0,succ_gain,1,6,612.5365795999533,None,5,oy13,3,2022-04-08_15h09.36.846,threat_forest,2021.2.3,59.976920858726885,
15,0,15,0,3,0,3,0,,,,,,,,,,left,1.2547211999772117,620.1902567999205,oy13,605.4535753999371,607.4531208999688,620.1902567999205,None,False,6,['r'],False,0.345679012345679,0.4444444444444444,0.2222222222222222,2.0,2.0,0.9685033186841367,0.0,wait_cost,1,5,618.6031615999527,None,6,oy13,3,2022-04-08_15h09.36.846,threat_forest,2021.2.3,59.976920858726885,
15,0,15,0,4,0,4,0,,,,,,,,,,right,0.6316056000068784,626.6140244000126,oy13,626.6140244000126,None,621.4701362999622,623.4700666000135,False,5,['r'],True,0.4285714285714285,0.4285714285714285,0.0,0.0,2.0,0.6216097450797565,0.0,wait_cost,0,4,623.4700666000135,None,5,oy13,3,2022-04-08_15h09.36.846,threat_forest,2021.2.3,59.976920858726885,
15,0,15,0,5,0,5,0,,,,,,,,,,right,0.8093623000895604,629.8083368999651,oy13,629.8083368999651,None,621.4701362999622,623.4700666000135,False,4,['r'],True,0.4285714285714285,0.4285714285714285,0.0,0.0,2.0,0.6216097450797565,0.0,wait_cost,0,3,629.2727759999689,None,4,oy13,3,2022-04-08_15h09.36.846,threat_forest,2021.2.3,59.976920858726885,
15,0,15,0,6,0,6,0,,,,,,,,,,right,0.9781291999388486,633.2903127999743,oy13,633.2903127999743,None,621.4701362999622,623.4700666000135,False,3,['r'],True,0.4285714285714285,0.4285714285714285,0.0,0.0,2.0,0.6216097450797565,0.0,wait_cost,0,2,632.6366314999759,None,3,oy13,3,2022-04-08_15h09.36.846,threat_forest,2021.2.3,59.976920858726885,
15,0,15,0,7,0,7,0,,,,,,,,,,right,0.7726854999782518,639.4901924999431,oy13,639.4901924999431,None,621.4701362999622,623.4700666000135,False,2,['r'],True,0.4285714285714285,0.4285714285714285,0.0,0.0,2.0,0.6216097450797565,-0.5714285714285715,wait_cost,0,1,636.28685699997,None,2,oy13,3,2022-04-08_15h09.36.846,threat_forest,2021.2.3,59.976920858726885,
15,0,15,0,,,,,,,,,,,,,,,,,,,,,,,,,,,,,,,,,,,,642.28740869998,None,1,oy13,3,2022-04-08_15h09.36.846,threat_forest,2021.2.3,59.976920858726885,
16,0,16,0,0,0,0,0,,,,,,,644.4641442999709,647.97024960001,None,right,0.8987978999502957,650.9107990999473,oy13,644.4641442999709,647.97024960001,650.9107990999473,None,True,5,['r'],False,0.36,0.6,0.4,2.0,1.0,0.9801625908629508,0.0,unsucc_cost,1,3,,,,oy13,3,2022-04-08_15h09.36.846,threat_forest,2021.2.3,59.976920858726885,
16,0,16,0,1,0,1,0,,,,,,,,,,right,1.060548699926585,656.9534982999321,oy13,644.4641442999709,647.97024960001,656.9534982999321,None,True,3,['r'],False,0.36,0.6,0.4,2.0,1.0,0.9801625908629508,-0.4,succ_gain,1,4,653.8373630999122,None,3,oy13,3,2022-04-08_15h09.36.846,threat_forest,2021.2.3,59.976920858726885,
16,0,16,0,2,0,2,0,,,,,,,,,,right,1.2462092000059783,661.0460920999758,oy13,661.0460920999758,None,658.037164999987,660.0369595999364,False,4,['r'],True,0.5,0.5,0.0,0.0,1.0,0.6309297535714574,0.0,wait_cost,0,3,660.0369595999364,None,4,oy13,3,2022-04-08_15h09.36.846,threat_forest,2021.2.3,59.976920858726885,
16,0,16,0,3,0,3,0,,,,,,,,,,right,1.1325258000288159,666.0075090000173,oy13,666.0075090000173,None,658.037164999987,660.0369595999364,False,3,['r'],True,0.5,0.5,0.0,0.0,1.0,0.6309297535714574,0.0,wait_cost,0,2,664.320626599947,None,3,oy13,3,2022-04-08_15h09.36.846,threat_forest,2021.2.3,59.976920858726885,
16,0,16,0,4,0,4,0,,,,,,,,,,right,1.0029464999679476,670.7109474999597,oy13,667.1708426999394,669.1704279999249,670.7109474999597,None,True,2,['r'],False,0.36,0.6,0.4,2.0,1.0,0.9801625908629508,-0.64,succ_gain,1,3,669.1704279999249,None,2,oy13,3,2022-04-08_15h09.36.846,threat_forest,2021.2.3,59.976920858726885,
16,0,16,0,5,0,5,0,,,,,,,,,,left,1.0841851000441238,675.8469376999419,oy13,667.1708426999394,669.1704279999249,675.8469376999419,None,False,3,['r'],False,0.36,0.6,0.4,2.0,1.0,0.9801625908629508,-0.4,wait_cost,1,2,673.7377645999659,None,3,oy13,3,2022-04-08_15h09.36.846,threat_forest,2021.2.3,59.976920858726885,
16,0,16,0,6,0,6,0,,,,,,,,,,right,0.7940701000625268,682.071571999928,oy13,667.1708426999394,669.1704279999249,682.071571999928,None,True,2,['r'],False,0.36,0.6,0.4,2.0,1.0,0.9801625908629508,-0.64,unsucc_cost,1,0,678.9536803999217,None,2,oy13,3,2022-04-08_15h09.36.846,threat_forest,2021.2.3,59.976920858726885,
16,0,16,0,,,,,,,,,,,,,,,,,,,,,,,,,,,,,,,,,,,,684.8875400000252,None,0,oy13,3,2022-04-08_15h09.36.846,threat_forest,2021.2.3,59.976920858726885,
17,0,17,0,0,0,0,0,,,,,,,687.701616999926,691.2043104999466,None,right,0.7654944000532851,694.9124364999589,oy13,687.701616999926,691.2043104999466,694.9124364999589,None,True,5,['p'],False,0.3061224489795918,0.4285714285714285,0.2857142857142857,2.0,2.0,0.9885754083994552,0.0,succ_gain,1,6,,,,oy13,3,2022-04-08_15h09.36.846,threat_forest,2021.2.3,59.976920858726885,
17,0,17,0,1,0,1,0,,,,,,,,,,right,0.9351978999329731,700.7984099999303,oy13,700.7984099999303,None,695.7044353999663,697.7045554999495,False,6,['p'],True,0.4,0.4,0.0,0.0,2.0,0.6126016192893442,0.0,wait_cost,0,5,697.7045554999495,None,6,oy13,3,2022-04-08_15h09.36.846,threat_forest,2021.2.3,59.976920858726885,
17,0,17,0,2,0,2,0,,,,,,,,,,right,0.9286964000202715,706.8741196999326,oy13,706.8741196999326,None,695.7044353999663,697.7045554999495,False,5,['p'],True,0.4,0.4,0.0,0.0,2.0,0.6126016192893442,0.0,wait_cost,0,4,703.7545060999691,None,5,oy13,3,2022-04-08_15h09.36.846,threat_forest,2021.2.3,59.976920858726885,
17,0,17,0,3,0,3,0,,,,,,,,,,right,1.203486599959433,712.3941362999612,oy13,712.3941362999612,None,695.7044353999663,697.7045554999495,False,4,['p'],True,0.4,0.4,0.0,0.0,2.0,0.6126016192893442,0.0,wait_cost,0,3,709.8211568999104,None,4,oy13,3,2022-04-08_15h09.36.846,threat_forest,2021.2.3,59.976920858726885,
17,0,17,0,4,0,4,0,,,,,,,,,,right,0.9429908000165597,717.0744114000117,oy13,717.0744114000117,None,695.7044353999663,697.7045554999495,False,3,['p'],True,0.4,0.4,0.0,0.0,2.0,0.6126016192893442,0.0,wait_cost,0,2,715.6208849999821,None,3,oy13,3,2022-04-08_15h09.36.846,threat_forest,2021.2.3,59.976920858726885,
17,0,17,0,5,0,5,0,,,,,,,,,,right,0.920209200005047,723.4954787999159,oy13,718.0381187999155,720.0380377999973,723.4954787999159,None,True,2,['p'],False,0.3061224489795918,0.4285714285714285,0.2857142857142857,2.0,2.0,0.9885754083994552,-0.6938775510204083,succ_gain,1,4,720.0380377999973,None,2,oy13,3,2022-04-08_15h09.36.846,threat_forest,2021.2.3,59.976920858726885,
17,0,17,0,6,0,6,0,,,,,,,,,,left,0.9648202999960631,729.3901989000151,oy13,718.0381187999155,720.0380377999973,729.3901989000151,None,False,4,['p'],False,0.3061224489795918,0.4285714285714285,0.2857142857142857,2.0,2.0,0.9885754083994552,0.0,wait_cost,1,3,726.4379677999532,None,4,oy13,3,2022-04-08_15h09.36.846,threat_forest,2021.2.3,59.976920858726885,
17,0,17,0,7,0,7,0,,,,,,,,,,left,0.7447950999485329,735.4214090999449,oy13,718.0381187999155,720.0380377999973,735.4214090999449,None,False,3,['p'],False,0.3061224489795918,0.4285714285714285,0.2857142857142857,2.0,2.0,0.9885754083994552,-0.2857142857142857,wait_cost,1,2,732.3711974999169,None,3,oy13,3,2022-04-08_15h09.36.846,threat_forest,2021.2.3,59.976920858726885,
17,0,17,0,,,,,,,,,,,,,,,,,,,,,,,,,,,,,,,,,,,,738.1882822000189,None,2,oy13,3,2022-04-08_15h09.36.846,threat_forest,2021.2.3,59.976920858726885,
