miniblock.thisRepN,miniblock.thisTrialN,miniblock.thisN,miniblock.thisIndex,day.thisRepN,day.thisTrialN,day.thisN,day.thisIndex,welcoming.started,welcoming.stopped,key_resp_2.keys,key_resp_2.rt,key_resp_2.started,key_resp_2.stopped,forest.started,fixation_forest.started,fixation_forest.stopped,key_resp.keys,key_resp.started,Subject_ID,weather_left.started,weather_left.stopped,weather_right.started,weather_right.stopped,foraging T/F,in_LP,p/r heuristic,good_weather.T/F,p_succ_correct,p_succ_uncorrected,r_threat,n_oponents,gain_if_succ,weather_entropy,OP_value_difference,action_outcome,forest_side_L=0_R=1,out_LP,fixation_day.started,fixation_day.stopped,n_day-1.out_LP.,key_resp.rt,participant,session,date,expName,psychopyVersion,frameRate,
,,,,,,,,5.715133190155029,None,space,4.273581027984619,5.715133190155029,None,,,,,,,,,,,,,,,,,,,,,,,,,,,,,bh3,4,2023-04-04_10h40.12.227,threat_forest,2021.2.3,60.02899616867011,
0,0,0,0,0,0,0,0,,,,,,,10.04301118850708,13.544870138168335,None,None,16.050263166427612,bh3,10.04301118850708,13.544870138168335,16.050263166427612,None,None,4,['p'],False,0.16,0.2,0.2,2.0,1.0,0.8198746470064713,0.0,wait_cost,1,3,,,,,bh3,4,2023-04-04_10h40.12.227,threat_forest,2021.2.3,60.02899616867011,
0,0,0,0,1,0,1,0,,,,,,,,,,left,21.882074117660522,bh3,10.04301118850708,13.544870138168335,21.882074117660522,None,False,3,['p'],False,0.16,0.2,0.2,2.0,1.0,0.8198746470064713,-0.2,wait_cost,1,2,21.06488800048828,None,3,0.9895060062408447,bh3,4,2023-04-04_10h40.12.227,threat_forest,2021.2.3,60.02899616867011,
0,0,0,0,2,0,2,0,,,,,,,,,,left,27.546919107437134,bh3,27.546919107437134,None,22.893200159072876,24.899392127990723,True,2,['p'],True,0.4444444444444445,0.6666666666666666,0.3333333333333333,1.0,1.0,0.9656336071428248,-0.5555555555555556,succ_gain,0,3,24.899392127990723,None,2,0.8168849945068359,bh3,4,2023-04-04_10h40.12.227,threat_forest,2021.2.3,60.02899616867011,
0,0,0,0,3,0,3,0,,,,,,,,,,left,32.22962212562561,bh3,32.22962212562561,None,22.893200159072876,24.899392127990723,True,3,['p'],True,0.4444444444444445,0.6666666666666666,0.3333333333333333,1.0,1.0,0.9656336071428248,-0.3333333333333333,succ_gain,0,4,30.41944909095764,None,3,1.2476820945739746,bh3,4,2023-04-04_10h40.12.227,threat_forest,2021.2.3,60.02899616867011,
0,0,0,0,4,0,4,0,,,,,,,,,,left,36.50850296020508,bh3,33.50494599342346,35.51939511299133,36.50850296020508,None,False,4,['p'],False,0.16,0.2,0.2,2.0,1.0,0.8198746470064713,0.0,wait_cost,1,3,35.51939511299133,None,4,0.9149870872497559,bh3,4,2023-04-04_10h40.12.227,threat_forest,2021.2.3,60.02899616867011,
0,0,0,0,5,0,5,0,,,,,,,,,,left,42.32861113548279,bh3,42.32861113548279,None,37.45734906196594,39.4580819606781,True,3,['p'],True,0.4444444444444445,0.6666666666666666,0.3333333333333333,1.0,1.0,0.9656336071428248,-0.3333333333333333,succ_gain,0,4,39.4580819606781,None,3,0.678354024887085,bh3,4,2023-04-04_10h40.12.227,threat_forest,2021.2.3,60.02899616867011,
0,0,0,0,6,0,6,0,,,,,,,,,,left,46.53571796417236,bh3,43.0350980758667,45.046295166015625,46.53571796417236,None,False,4,['p'],False,0.16,0.2,0.2,2.0,1.0,0.8198746470064713,0.0,wait_cost,1,3,45.046295166015625,None,4,0.6508281230926514,bh3,4,2023-04-04_10h40.12.227,threat_forest,2021.2.3,60.02899616867011,
0,0,0,0,7,0,7,0,,,,,,,,,,left,52.00303316116333,bh3,43.0350980758667,45.046295166015625,52.00303316116333,None,False,3,['p'],False,0.16,0.2,0.2,2.0,1.0,0.8198746470064713,-0.2,wait_cost,1,2,49.2273371219635,None,3,0.7848689556121826,bh3,4,2023-04-04_10h40.12.227,threat_forest,2021.2.3,60.02899616867011,
0,0,0,0,,,,,,,,,,,,,,,,,,,,,,,,,,,,,,,,,,,54.82022213935852,None,2,,bh3,4,2023-04-04_10h40.12.227,threat_forest,2021.2.3,60.02899616867011,
1,0,1,0,0,0,0,0,,,,,,,57.88987112045288,61.397381067276,None,left,62.77941608428955,bh3,62.77941608428955,None,57.88987112045288,61.397381067276,True,5,['r'],True,0.5714285714285714,0.5714285714285714,0.0,0.0,2.0,0.6216097450797566,0.0,succ_gain,0,6,,,,0.7419090270996094,bh3,4,2023-04-04_10h40.12.227,threat_forest,2021.2.3,60.02899616867011,
1,0,1,0,1,0,1,0,,,,,,,,,,left,68.76215815544128,bh3,63.55386209487915,65.55245614051819,68.76215815544128,None,False,6,['r'],False,0.46875,0.625,0.25,2.0,2.0,0.9634951148421658,0.0,wait_cost,1,5,65.55245614051819,None,6,0.9047260284423828,bh3,4,2023-04-04_10h40.12.227,threat_forest,2021.2.3,60.02899616867011,
1,0,1,0,2,0,2,0,,,,,,,,,,right,73.85906100273132,bh3,63.55386209487915,65.55245614051819,73.85906100273132,None,True,5,['r'],False,0.46875,0.625,0.25,2.0,2.0,0.9634951148421658,0.0,succ_gain,1,6,71.69273018836975,None,5,0.6131789684295654,bh3,4,2023-04-04_10h40.12.227,threat_forest,2021.2.3,60.02899616867011,
1,0,1,0,3,0,3,0,,,,,,,,,,left,77.8624541759491,bh3,63.55386209487915,65.55245614051819,77.8624541759491,None,False,6,['r'],False,0.46875,0.625,0.25,2.0,2.0,0.9634951148421658,0.0,wait_cost,1,5,76.51440095901489,None,6,0.6230340003967285,bh3,4,2023-04-04_10h40.12.227,threat_forest,2021.2.3,60.02899616867011,
1,0,1,0,4,0,4,0,,,,,,,,,,right,81.99234414100647,bh3,81.99234414100647,None,78.52083611488342,80.53568410873413,False,5,['r'],True,0.5714285714285714,0.5714285714285714,0.0,0.0,2.0,0.6216097450797566,0.0,wait_cost,0,4,80.53568410873413,None,5,0.553800106048584,bh3,4,2023-04-04_10h40.12.227,threat_forest,2021.2.3,60.02899616867011,
1,0,1,0,5,0,5,0,,,,,,,,,,right,85.68860006332397,bh3,85.68860006332397,None,78.52083611488342,80.53568410873413,False,4,['r'],True,0.5714285714285714,0.5714285714285714,0.0,0.0,2.0,0.6216097450797566,0.0,wait_cost,0,3,84.57344913482666,None,4,0.8766319751739502,bh3,4,2023-04-04_10h40.12.227,threat_forest,2021.2.3,60.02899616867011,
1,0,1,0,6,0,6,0,,,,,,,,,,left,89.23122215270996,bh3,86.59480595588684,88.59457802772522,89.23122215270996,None,False,3,['r'],False,0.46875,0.625,0.25,2.0,2.0,0.9634951148421658,-0.25,wait_cost,1,2,88.59457802772522,None,3,1.3826439380645752,bh3,4,2023-04-04_10h40.12.227,threat_forest,2021.2.3,60.02899616867011,
1,0,1,0,7,0,7,0,,,,,,,,,,left,95.86625909805298,bh3,86.59480595588684,88.59457802772522,95.86625909805298,None,False,2,['r'],False,0.46875,0.625,0.25,2.0,2.0,0.9634951148421658,-0.53125,wait_cost,1,1,92.64911818504333,None,2,0.6508760452270508,bh3,4,2023-04-04_10h40.12.227,threat_forest,2021.2.3,60.02899616867011,
1,0,1,0,,,,,,,,,,,,,,,,,,,,,,,,,,,,,,,,,,,98.53893709182739,None,1,,bh3,4,2023-04-04_10h40.12.227,threat_forest,2021.2.3,60.02899616867011,
2,0,2,0,0,0,0,0,,,,,,,99.8616840839386,103.36700201034546,None,left,103.96861696243286,bh3,103.96861696243286,None,99.8616840839386,103.36700201034546,True,5,['r'],True,0.5,0.5,0.0,0.0,2.0,0.6309297535714574,0.0,succ_gain,0,6,,,,0.7134568691253662,bh3,4,2023-04-04_10h40.12.227,threat_forest,2021.2.3,60.02899616867011,
2,0,2,0,1,0,1,0,,,,,,,,,,right,108.44703316688538,bh3,108.44703316688538,None,99.8616840839386,103.36700201034546,False,6,['r'],True,0.5,0.5,0.0,0.0,2.0,0.6309297535714574,0.0,wait_cost,0,5,106.73992204666138,None,6,0.6358661651611328,bh3,4,2023-04-04_10h40.12.227,threat_forest,2021.2.3,60.02899616867011,
2,0,2,0,2,0,2,0,,,,,,,,,,left,113.91225695610046,bh3,109.10733819007874,111.12082815170288,113.91225695610046,None,False,5,['r'],False,0.4081632653061224,0.5714285714285714,0.2857142857142857,2.0,2.0,0.9885754083994552,0.0,wait_cost,1,4,111.12082815170288,None,5,0.8081181049346924,bh3,4,2023-04-04_10h40.12.227,threat_forest,2021.2.3,60.02899616867011,
2,0,2,0,3,0,3,0,,,,,,,,,,right,120.56157207489014,bh3,109.10733819007874,111.12082815170288,120.56157207489014,None,True,4,['r'],False,0.4081632653061224,0.5714285714285714,0.2857142857142857,2.0,2.0,0.9885754083994552,0.0,fight_cost,1,1,116.74202108383179,None,4,0.9864649772644043,bh3,4,2023-04-04_10h40.12.227,threat_forest,2021.2.3,60.02899616867011,
2,0,2,0,4,0,4,0,,,,,,,,,,left,126.38534498214722,bh3,126.38534498214722,None,121.56617903709412,123.56628108024597,True,1,['r'],True,0.5,0.5,0.0,0.0,2.0,0.6309297535714574,0.5,unsucc_cost,0,0,123.56628108024597,None,1,0.5717530250549316,bh3,4,2023-04-04_10h40.12.227,threat_forest,2021.2.3,60.02899616867011,
2,0,2,0,,,,,,,,,,,,,,,,,,,,,,,,,,,,,,,,,,,129.01197504997253,None,0,,bh3,4,2023-04-04_10h40.12.227,threat_forest,2021.2.3,60.02899616867011,
3,0,3,0,0,0,0,0,,,,,,,130.27867913246155,133.7868800163269,None,left,135.57257413864136,bh3,135.57257413864136,None,130.27867913246155,133.7868800163269,True,5,['p'],True,0.32,0.4,0.2,1.0,1.0,0.9455672104350704,0.0,unsucc_cost,0,3,,,,0.9637930393218994,bh3,4,2023-04-04_10h40.12.227,threat_forest,2021.2.3,60.02899616867011,
3,0,3,0,1,0,1,0,,,,,,,,,,left,139.83947110176086,bh3,136.56911206245422,138.58324909210205,139.83947110176086,None,False,3,['p'],False,0.1975308641975308,0.2222222222222222,0.1111111111111111,1.0,1.0,0.7461067557824965,-0.1111111111111111,wait_cost,1,2,138.58324909210205,None,3,1.2229690551757812,bh3,4,2023-04-04_10h40.12.227,threat_forest,2021.2.3,60.02899616867011,
3,0,3,0,2,0,2,0,,,,,,,,,,left,145.2553961277008,bh3,136.56911206245422,138.58324909210205,145.2553961277008,None,False,2,['p'],False,0.1975308641975308,0.2222222222222222,0.1111111111111111,1.0,1.0,0.7461067557824965,-0.8024691358024691,wait_cost,1,1,143.08835911750793,None,2,1.2475709915161133,bh3,4,2023-04-04_10h40.12.227,threat_forest,2021.2.3,60.02899616867011,
3,0,3,0,3,0,3,0,,,,,,,,,,right,149.89172506332397,bh3,136.56911206245422,138.58324909210205,149.89172506332397,None,True,1,['p'],False,0.1975308641975308,0.2222222222222222,0.1111111111111111,1.0,1.0,0.7461067557824965,0.1975308641975308,fight_cost,1,0,148.54416704177856,None,1,0.7144839763641357,bh3,4,2023-04-04_10h40.12.227,threat_forest,2021.2.3,60.02899616867011,
3,0,3,0,,,,,,,,,,,,,,,,,,,,,,,,,,,,,,,,,,,152.6499571800232,None,0,,bh3,4,2023-04-04_10h40.12.227,threat_forest,2021.2.3,60.02899616867011,
4,0,4,0,0,0,0,0,,,,,,,153.65601205825806,157.170184135437,None,right,160.25190210342407,bh3,153.65601205825806,157.170184135437,160.25190210342407,None,True,5,['r'],False,0.16,0.2,0.2,2.0,2.0,0.8198746470064713,0.0,unsucc_cost,1,3,,,,1.9751300811767578,bh3,4,2023-04-04_10h40.12.227,threat_forest,2021.2.3,60.02899616867011,
4,0,4,0,1,0,1,0,,,,,,,,,,right,166.36923599243164,bh3,166.36923599243164,None,162.261883020401,164.2613010406494,False,3,['r'],True,0.24,0.4,0.4,2.0,2.0,0.9801625908629508,-0.4,wait_cost,0,2,164.2613010406494,None,3,1.170616865158081,bh3,4,2023-04-04_10h40.12.227,threat_forest,2021.2.3,60.02899616867011,
4,0,4,0,2,0,2,0,,,,,,,,,,right,172.07036113739014,bh3,172.07036113739014,None,162.261883020401,164.2613010406494,False,2,['r'],True,0.24,0.4,0.4,2.0,2.0,0.9801625908629508,-0.76,wait_cost,0,1,169.56723403930664,None,2,0.7600948810577393,bh3,4,2023-04-04_10h40.12.227,threat_forest,2021.2.3,60.02899616867011,
4,0,4,0,3,0,3,0,,,,,,,,,,left,176.30765414237976,bh3,176.30765414237976,None,162.261883020401,164.2613010406494,True,1,['r'],True,0.24,0.4,0.4,2.0,2.0,0.9801625908629508,0.24,fight_cost,0,0,174.8565821647644,None,1,0.8135969638824463,bh3,4,2023-04-04_10h40.12.227,threat_forest,2021.2.3,60.02899616867011,
4,0,4,0,,,,,,,,,,,,,,,,,,,,,,,,,,,,,,,,,,,179.14558506011963,None,0,,bh3,4,2023-04-04_10h40.12.227,threat_forest,2021.2.3,60.02899616867011,
5,0,5,0,0,0,0,0,,,,,,,182.93496108055115,186.43582010269165,None,right,188.34885907173157,bh3,188.34885907173157,None,182.93496108055115,186.43582010269165,False,4,['r'],True,0.25,0.25,0.0,0.0,1.0,0.5118595071429148,0.0,wait_cost,0,3,,,,0.5790259838104248,bh3,4,2023-04-04_10h40.12.227,threat_forest,2021.2.3,60.02899616867011,
5,0,5,0,1,0,1,0,,,,,,,,,,left,191.78987097740173,bh3,191.78987097740173,None,182.93496108055115,186.43582010269165,True,3,['r'],True,0.25,0.25,0.0,0.0,1.0,0.5118595071429148,0.0,unsucc_cost,0,1,190.97403597831726,None,3,0.7399239540100098,bh3,4,2023-04-04_10h40.12.227,threat_forest,2021.2.3,60.02899616867011,
5,0,5,0,2,0,2,0,,,,,,,,,,right,196.78191614151,bh3,192.56395196914673,194.57590508460999,196.78191614151,None,True,1,['r'],False,0.2040816326530612,0.2857142857142857,0.2857142857142857,2.0,1.0,0.9335459102197724,0.2040816326530612,succ_gain,1,2,194.57590508460999,None,1,0.6992189884185791,bh3,4,2023-04-04_10h40.12.227,threat_forest,2021.2.3,60.02899616867011,
5,0,5,0,3,0,3,0,,,,,,,,,,right,201.67169713974,bh3,201.67169713974,None,197.50624799728394,199.51426911354065,False,2,['r'],True,0.25,0.25,0.0,0.0,1.0,0.5118595071429148,-0.75,wait_cost,0,1,199.51426911354065,None,2,0.5327191352844238,bh3,4,2023-04-04_10h40.12.227,threat_forest,2021.2.3,60.02899616867011,
5,0,5,0,4,0,4,0,,,,,,,,,,right,205.3897581100464,bh3,202.23968696594238,204.2423779964447,205.3897581100464,None,True,1,['r'],False,0.2040816326530612,0.2857142857142857,0.2857142857142857,2.0,1.0,0.9335459102197724,0.2040816326530612,unsucc_cost,1,0,204.2423779964447,None,1,0.48477792739868164,bh3,4,2023-04-04_10h40.12.227,threat_forest,2021.2.3,60.02899616867011,
5,0,5,0,,,,,,,,,,,,,,,,,,,,,,,,,,,,,,,,,,,207.9131841659546,None,0,,bh3,4,2023-04-04_10h40.12.227,threat_forest,2021.2.3,60.02899616867011,
6,0,6,0,0,0,0,0,,,,,,,211.52165699005127,215.02791595458984,None,left,217.67818117141724,bh3,211.52165699005127,215.02791595458984,217.67818117141724,None,False,5,['p'],False,0.1728395061728395,0.2222222222222222,0.2222222222222222,2.0,2.0,0.8571721972794328,0.0,wait_cost,1,4,,,,1.0762379169464111,bh3,4,2023-04-04_10h40.12.227,threat_forest,2021.2.3,60.02899616867011,
6,0,6,0,1,0,1,0,,,,,,,,,,left,222.87739515304565,bh3,211.52165699005127,215.02791595458984,222.87739515304565,None,False,4,['p'],False,0.1728395061728395,0.2222222222222222,0.2222222222222222,2.0,2.0,0.8571721972794328,0.0,wait_cost,1,3,220.78504395484924,None,4,0.8748130798339844,bh3,4,2023-04-04_10h40.12.227,threat_forest,2021.2.3,60.02899616867011,
6,0,6,0,2,0,2,0,,,,,,,,,,left,227.5594539642334,bh3,211.52165699005127,215.02791595458984,227.5594539642334,None,False,3,['p'],False,0.1728395061728395,0.2222222222222222,0.2222222222222222,2.0,2.0,0.8571721972794328,-0.2222222222222222,wait_cost,1,2,225.79631114006042,None,3,1.1017100811004639,bh3,4,2023-04-04_10h40.12.227,threat_forest,2021.2.3,60.02899616867011,
6,0,6,0,3,0,3,0,,,,,,,,,,left,233.06043815612793,bh3,233.06043815612793,None,228.68925309181213,230.7016739845276,True,2,['p'],True,0.2,0.2,0.0,0.0,2.0,0.4554859150035951,-0.8,fight_cost,0,0,230.7016739845276,None,2,1.7203731536865234,bh3,4,2023-04-04_10h40.12.227,threat_forest,2021.2.3,60.02899616867011,
6,0,6,0,,,,,,,,,,,,,,,,,,,,,,,,,,,,,,,,,,,236.80855298042297,None,0,,bh3,4,2023-04-04_10h40.12.227,threat_forest,2021.2.3,60.02899616867011,
7,0,7,0,0,0,0,0,,,,,,,239.6982650756836,243.19688200950623,None,left,244.29529404640198,bh3,244.29529404640198,None,239.6982650756836,243.19688200950623,True,5,['r'],True,0.25,0.25,0.0,0.0,2.0,0.5118595071429148,0.0,fight_cost,0,2,,,,0.7944819927215576,bh3,4,2023-04-04_10h40.12.227,threat_forest,2021.2.3,60.02899616867011,
7,0,7,0,1,0,1,0,,,,,,,,,,right,250.60887718200684,bh3,245.12001419067383,247.1198229789734,250.60887718200684,None,True,2,['r'],False,0.2040816326530612,0.2857142857142857,0.2857142857142857,2.0,2.0,0.9335459102197724,-0.7959183673469388,unsucc_cost,1,0,247.1198229789734,None,2,0.45192384719848633,bh3,4,2023-04-04_10h40.12.227,threat_forest,2021.2.3,60.02899616867011,
7,0,7,0,,,,,,,,,,,,,,,,,,,,,,,,,,,,,,,,,,,253.1132869720459,None,0,,bh3,4,2023-04-04_10h40.12.227,threat_forest,2021.2.3,60.02899616867011,
8,0,8,0,0,0,0,0,,,,,,,256.73541617393494,260.23381304740906,None,right,263.34652614593506,bh3,256.73541617393494,260.23381304740906,263.34652614593506,None,True,5,['p'],False,0.3950617283950617,0.4444444444444444,0.1111111111111111,1.0,2.0,0.8733423231021583,0.0,succ_gain,1,6,,,,0.6226258277893066,bh3,4,2023-04-04_10h40.12.227,threat_forest,2021.2.3,60.02899616867011,
8,0,8,0,1,0,1,0,,,,,,,,,,right,267.81585907936096,bh3,267.81585907936096,None,263.99354910850525,266.00723600387573,False,6,['p'],True,0.5555555555555556,0.6666666666666666,0.1666666666666666,1.0,2.0,0.8929352898779306,0.0,wait_cost,0,5,266.00723600387573,None,6,0.765733003616333,bh3,4,2023-04-04_10h40.12.227,threat_forest,2021.2.3,60.02899616867011,
8,0,8,0,2,0,2,0,,,,,,,,,,right,273.6662781238556,bh3,273.6662781238556,None,263.99354910850525,266.00723600387573,False,5,['p'],True,0.5555555555555556,0.6666666666666666,0.1666666666666666,1.0,2.0,0.8929352898779306,0.0,wait_cost,0,4,270.612508058548,None,5,0.7990701198577881,bh3,4,2023-04-04_10h40.12.227,threat_forest,2021.2.3,60.02899616867011,
8,0,8,0,3,0,3,0,,,,,,,,,,right,279.024600982666,bh3,274.4850890636444,276.48543095588684,279.024600982666,None,True,4,['p'],False,0.3950617283950617,0.4444444444444444,0.1111111111111111,1.0,2.0,0.8733423231021583,0.0,succ_gain,1,6,276.48543095588684,None,4,0.746845006942749,bh3,4,2023-04-04_10h40.12.227,threat_forest,2021.2.3,60.02899616867011,
8,0,8,0,4,0,4,0,,,,,,,,,,right,284.9491171836853,bh3,284.9491171836853,None,279.7936689853668,281.80813813209534,False,6,['p'],True,0.5555555555555556,0.6666666666666666,0.1666666666666666,1.0,2.0,0.8929352898779306,0.0,wait_cost,0,5,281.80813813209534,None,6,0.4166529178619385,bh3,4,2023-04-04_10h40.12.227,threat_forest,2021.2.3,60.02899616867011,
8,0,8,0,5,0,5,0,,,,,,,,,,left,288.6354100704193,bh3,285.3996500968933,287.4138910770416,288.6354100704193,None,False,5,['p'],False,0.3950617283950617,0.4444444444444444,0.1111111111111111,1.0,2.0,0.8733423231021583,0.0,wait_cost,1,4,287.4138910770416,None,5,0.5775539875030518,bh3,4,2023-04-04_10h40.12.227,threat_forest,2021.2.3,60.02899616867011,
8,0,8,0,6,0,6,0,,,,,,,,,,left,293.30132508277893,bh3,285.3996500968933,287.4138910770416,293.30132508277893,None,False,4,['p'],False,0.3950617283950617,0.4444444444444444,0.1111111111111111,1.0,2.0,0.8733423231021583,0.0,wait_cost,1,3,291.2346730232239,None,4,0.6820828914642334,bh3,4,2023-04-04_10h40.12.227,threat_forest,2021.2.3,60.02899616867011,
8,0,8,0,7,0,7,0,,,,,,,,,,left,298.74014496803284,bh3,285.3996500968933,287.4138910770416,298.74014496803284,None,False,3,['p'],False,0.3950617283950617,0.4444444444444444,0.1111111111111111,1.0,2.0,0.8733423231021583,-0.1111111111111111,wait_cost,1,2,296.00694513320923,None,3,1.378511905670166,bh3,4,2023-04-04_10h40.12.227,threat_forest,2021.2.3,60.02899616867011,
8,0,8,0,,,,,,,,,,,,,,,,,,,,,,,,,,,,,,,,,,,302.1473910808563,None,2,,bh3,4,2023-04-04_10h40.12.227,threat_forest,2021.2.3,60.02899616867011,
9,0,9,0,0,0,0,0,,,,,,,304.5713219642639,308.07003712654114,None,right,311.4650011062622,bh3,304.5713219642639,308.07003712654114,311.4650011062622,None,True,4,['p'],False,0.16,0.2,0.2,2.0,2.0,0.8198746470064713,0.0,fight_cost,1,1,,,,0.7541170120239258,bh3,4,2023-04-04_10h40.12.227,threat_forest,2021.2.3,60.02899616867011,
9,0,9,0,1,0,1,0,,,,,,,,,,right,318.05807304382324,bh3,304.5713219642639,308.07003712654114,318.05807304382324,None,True,1,['p'],False,0.16,0.2,0.2,2.0,2.0,0.8198746470064713,0.1599999999999999,succ_gain,1,3,314.2441940307617,None,1,0.7401139736175537,bh3,4,2023-04-04_10h40.12.227,threat_forest,2021.2.3,60.02899616867011,
9,0,9,0,2,0,2,0,,,,,,,,,,right,324.6301980018616,bh3,324.6301980018616,None,318.8216540813446,320.83473110198975,False,3,['p'],True,0.25,0.5,0.5,1.0,2.0,0.9463946303571862,-0.5,wait_cost,0,2,320.83473110198975,None,3,0.6315138339996338,bh3,4,2023-04-04_10h40.12.227,threat_forest,2021.2.3,60.02899616867011,
9,0,9,0,3,0,3,0,,,,,,,,,,right,329.6101520061493,bh3,329.6101520061493,None,318.8216540813446,320.83473110198975,False,2,['p'],True,0.25,0.5,0.5,1.0,2.0,0.9463946303571862,-0.75,wait_cost,0,1,327.3085560798645,None,2,0.6760520935058594,bh3,4,2023-04-04_10h40.12.227,threat_forest,2021.2.3,60.02899616867011,
9,0,9,0,4,0,4,0,,,,,,,,,,left,334.4478750228882,bh3,334.4478750228882,None,318.8216540813446,320.83473110198975,True,1,['p'],True,0.25,0.5,0.5,1.0,2.0,0.9463946303571862,0.25,unsucc_cost,0,0,332.31376695632935,None,1,1.0755610466003418,bh3,4,2023-04-04_10h40.12.227,threat_forest,2021.2.3,60.02899616867011,
9,0,9,0,,,,,,,,,,,,,,,,,,,,,,,,,,,,,,,,,,,337.5694441795349,None,0,,bh3,4,2023-04-04_10h40.12.227,threat_forest,2021.2.3,60.02899616867011,
10,0,10,0,0,0,0,0,,,,,,,341.14434003829956,344.6508150100708,None,right,347.92272996902466,bh3,341.14434003829956,344.6508150100708,347.92272996902466,None,True,5,['r'],False,0.2222222222222222,0.2222222222222222,0.0,0.0,2.0,0.4821593609696809,0.0,fight_cost,1,2,,,,0.8572280406951904,bh3,4,2023-04-04_10h40.12.227,threat_forest,2021.2.3,60.02899616867011,
10,0,10,0,1,0,1,0,,,,,,,,,,right,352.4572069644928,bh3,352.4572069644928,None,348.80647802352905,350.8176050186157,False,2,['r'],True,0.4444444444444445,0.6666666666666666,0.3333333333333333,1.0,2.0,0.9656336071428248,-0.5555555555555556,wait_cost,0,1,350.8176050186157,None,2,0.8183410167694092,bh3,4,2023-04-04_10h40.12.227,threat_forest,2021.2.3,60.02899616867011,
10,0,10,0,2,0,2,0,,,,,,,,,,right,356.9248960018158,bh3,353.3075141906738,355.3226001262665,356.9248960018158,None,True,1,['r'],False,0.2222222222222222,0.2222222222222222,0.0,0.0,2.0,0.4821593609696809,0.2222222222222222,fight_cost,1,0,355.3226001262665,None,1,0.5085899829864502,bh3,4,2023-04-04_10h40.12.227,threat_forest,2021.2.3,60.02899616867011,
10,0,10,0,,,,,,,,,,,,,,,,,,,,,,,,,,,,,,,,,,,359.47726798057556,None,0,,bh3,4,2023-04-04_10h40.12.227,threat_forest,2021.2.3,60.02899616867011,
11,0,11,0,0,0,0,0,,,,,,,360.2116620540619,363.707013130188,None,right,365.210618019104,bh3,360.2116620540619,363.707013130188,365.210618019104,None,True,5,['p'],False,0.4081632653061224,0.5714285714285714,0.2857142857142857,2.0,1.0,0.9885754083994552,0.0,succ_gain,1,6,,,,0.6564030647277832,bh3,4,2023-04-04_10h40.12.227,threat_forest,2021.2.3,60.02899616867011,
11,0,11,0,1,0,1,0,,,,,,,,,,left,370.5716359615326,bh3,360.2116620540619,363.707013130188,370.5716359615326,None,False,6,['p'],False,0.4081632653061224,0.5714285714285714,0.2857142857142857,2.0,1.0,0.9885754083994552,0.0,wait_cost,1,5,367.90282702445984,None,6,0.7473018169403076,bh3,4,2023-04-04_10h40.12.227,threat_forest,2021.2.3,60.02899616867011,
11,0,11,0,2,0,2,0,,,,,,,,,,left,375.19455909729004,bh3,375.19455909729004,None,371.34315299987793,373.34224009513855,True,5,['p'],True,0.5,0.5,0.0,0.0,1.0,0.6309297535714574,0.0,succ_gain,0,6,373.34224009513855,None,5,0.620945930480957,bh3,4,2023-04-04_10h40.12.227,threat_forest,2021.2.3,60.02899616867011,
11,0,11,0,3,0,3,0,,,,,,,,,,left,379.60175108909607,bh3,375.85233211517334,377.864559173584,379.60175108909607,None,False,6,['p'],False,0.4081632653061224,0.5714285714285714,0.2857142857142857,2.0,1.0,0.9885754083994552,0.0,wait_cost,1,5,377.864559173584,None,6,0.5669159889221191,bh3,4,2023-04-04_10h40.12.227,threat_forest,2021.2.3,60.02899616867011,
11,0,11,0,4,0,4,0,,,,,,,,,,right,383.97065711021423,bh3,383.97065711021423,None,380.2010350227356,382.202308177948,False,5,['p'],True,0.5,0.5,0.0,0.0,1.0,0.6309297535714574,0.0,wait_cost,0,4,382.202308177948,None,5,0.3840029239654541,bh3,4,2023-04-04_10h40.12.227,threat_forest,2021.2.3,60.02899616867011,
11,0,11,0,5,0,5,0,,,,,,,,,,right,388.2866721153259,bh3,388.2866721153259,None,380.2010350227356,382.202308177948,False,4,['p'],True,0.5,0.5,0.0,0.0,1.0,0.6309297535714574,0.0,wait_cost,0,3,386.39054703712463,None,4,0.6525468826293945,bh3,4,2023-04-04_10h40.12.227,threat_forest,2021.2.3,60.02899616867011,
11,0,11,0,6,0,6,0,,,,,,,,,,right,392.55710005760193,bh3,392.55710005760193,None,380.2010350227356,382.202308177948,False,3,['p'],True,0.5,0.5,0.0,0.0,1.0,0.6309297535714574,0.0,wait_cost,0,2,390.9788830280304,None,3,0.551645040512085,bh3,4,2023-04-04_10h40.12.227,threat_forest,2021.2.3,60.02899616867011,
11,0,11,0,7,0,7,0,,,,,,,,,,right,396.7942819595337,bh3,396.7942819595337,None,380.2010350227356,382.202308177948,False,2,['p'],True,0.5,0.5,0.0,0.0,1.0,0.6309297535714574,-0.5,wait_cost,0,1,395.1500961780548,None,2,0.4742431640625,bh3,4,2023-04-04_10h40.12.227,threat_forest,2021.2.3,60.02899616867011,
11,0,11,0,,,,,,,,,,,,,,,,,,,,,,,,,,,,,,,,,,,399.3076250553131,None,1,,bh3,4,2023-04-04_10h40.12.227,threat_forest,2021.2.3,60.02899616867011,
12,0,12,0,0,0,0,0,,,,,,,401.0802311897278,404.5839970111847,None,left,406.04053115844727,bh3,401.0802311897278,404.5839970111847,406.04053115844727,None,False,5,['p'],False,0.16,0.2,0.2,2.0,2.0,0.8198746470064713,0.0,wait_cost,1,4,,,,1.6400039196014404,bh3,4,2023-04-04_10h40.12.227,threat_forest,2021.2.3,60.02899616867011,
12,0,12,0,1,0,1,0,,,,,,,,,,right,411.74413895606995,bh3,411.74413895606995,None,407.7004339694977,409.69922709465027,False,4,['p'],True,0.2222222222222222,0.3333333333333333,0.3333333333333333,2.0,2.0,0.9656336071428248,0.0,wait_cost,0,3,409.69922709465027,None,4,1.135849952697754,bh3,4,2023-04-04_10h40.12.227,threat_forest,2021.2.3,60.02899616867011,
12,0,12,0,2,0,2,0,,,,,,,,,,right,418.3582921028137,bh3,418.3582921028137,None,407.7004339694977,409.69922709465027,False,3,['p'],True,0.2222222222222222,0.3333333333333333,0.3333333333333333,2.0,2.0,0.9656336071428248,-0.3333333333333333,wait_cost,0,2,414.9051880836487,None,3,0.8142280578613281,bh3,4,2023-04-04_10h40.12.227,threat_forest,2021.2.3,60.02899616867011,
12,0,12,0,3,0,3,0,,,,,,,,,,right,423.829421043396,bh3,419.1966710090637,421.1954770088196,423.829421043396,None,True,2,['p'],False,0.16,0.2,0.2,2.0,2.0,0.8198746470064713,-0.8400000000000001,fight_cost,1,0,421.1954770088196,None,2,0.8920722007751465,bh3,4,2023-04-04_10h40.12.227,threat_forest,2021.2.3,60.02899616867011,
12,0,12,0,,,,,,,,,,,,,,,,,,,,,,,,,,,,,,,,,,,426.75161695480347,None,0,,bh3,4,2023-04-04_10h40.12.227,threat_forest,2021.2.3,60.02899616867011,
13,0,13,0,0,0,0,0,,,,,,,428.52182602882385,432.0240559577942,None,left,433.23309302330017,bh3,433.23309302330017,None,428.52182602882385,432.0240559577942,True,5,['p'],True,0.5,0.5,0.0,0.0,2.0,0.6309297535714574,0.0,unsucc_cost,0,3,,,,0.7702460289001465,bh3,4,2023-04-04_10h40.12.227,threat_forest,2021.2.3,60.02899616867011,
13,0,13,0,1,0,1,0,,,,,,,,,,left,438.4253821372986,bh3,438.4253821372986,None,428.52182602882385,432.0240559577942,True,3,['p'],True,0.5,0.5,0.0,0.0,2.0,0.6309297535714574,0.0,unsucc_cost,0,1,436.0453631877899,None,3,0.7340419292449951,bh3,4,2023-04-04_10h40.12.227,threat_forest,2021.2.3,60.02899616867011,
13,0,13,0,2,0,2,0,,,,,,,,,,left,444.7149670124054,bh3,444.7149670124054,None,428.52182602882385,432.0240559577942,True,1,['p'],True,0.5,0.5,0.0,0.0,2.0,0.6309297535714574,0.5,unsucc_cost,0,0,441.2012770175934,None,1,0.5980269908905029,bh3,4,2023-04-04_10h40.12.227,threat_forest,2021.2.3,60.02899616867011,
13,0,13,0,,,,,,,,,,,,,,,,,,,,,,,,,,,,,,,,,,,447.360995054245,None,0,,bh3,4,2023-04-04_10h40.12.227,threat_forest,2021.2.3,60.02899616867011,
14,0,14,0,0,0,0,0,,,,,,,449.8815920352936,453.3760771751404,None,right,454.3619031906128,bh3,454.3619031906128,None,449.8815920352936,453.3760771751404,False,5,['p'],True,0.2777777777777778,0.3333333333333333,0.1666666666666666,1.0,2.0,0.8929352898779304,0.0,wait_cost,0,4,,,,1.044461965560913,bh3,4,2023-04-04_10h40.12.227,threat_forest,2021.2.3,60.02899616867011,
14,0,14,0,1,0,1,0,,,,,,,,,,right,459.52578616142273,bh3,455.43687415122986,457.4395170211792,459.52578616142273,None,True,4,['p'],False,0.1975308641975308,0.2222222222222222,0.1111111111111111,1.0,2.0,0.7461067557824965,0.0,succ_gain,1,6,457.4395170211792,None,4,0.9158420562744141,bh3,4,2023-04-04_10h40.12.227,threat_forest,2021.2.3,60.02899616867011,
14,0,14,0,2,0,2,0,,,,,,,,,,left,466.19479298591614,bh3,455.43687415122986,457.4395170211792,466.19479298591614,None,False,6,['p'],False,0.1975308641975308,0.2222222222222222,0.1111111111111111,1.0,2.0,0.7461067557824965,0.0,wait_cost,1,5,462.49091815948486,None,6,1.3509979248046875,bh3,4,2023-04-04_10h40.12.227,threat_forest,2021.2.3,60.02899616867011,
14,0,14,0,3,0,3,0,,,,,,,,,,None,471.098984003067,bh3,455.43687415122986,457.4395170211792,471.098984003067,None,None,5,['p'],False,0.1975308641975308,0.2222222222222222,0.1111111111111111,1.0,2.0,0.7461067557824965,0.0,wait_cost,1,4,469.58246207237244,None,5,,bh3,4,2023-04-04_10h40.12.227,threat_forest,2021.2.3,60.02899616867011,
14,0,14,0,4,0,4,0,,,,,,,,,,right,478.13948917388916,bh3,455.43687415122986,457.4395170211792,478.13948917388916,None,True,4,['p'],False,0.1975308641975308,0.2222222222222222,0.1111111111111111,1.0,2.0,0.7461067557824965,0.0,unsucc_cost,1,2,476.1226921081543,None,4,0.6523470878601074,bh3,4,2023-04-04_10h40.12.227,threat_forest,2021.2.3,60.02899616867011,
14,0,14,0,5,0,5,0,,,,,,,,,,right,481.9283001422882,bh3,455.43687415122986,457.4395170211792,481.9283001422882,None,True,2,['p'],False,0.1975308641975308,0.2222222222222222,0.1111111111111111,1.0,2.0,0.7461067557824965,-0.8024691358024691,unsucc_cost,1,0,480.82808017730713,None,2,0.605180025100708,bh3,4,2023-04-04_10h40.12.227,threat_forest,2021.2.3,60.02899616867011,
14,0,14,0,,,,,,,,,,,,,,,,,,,,,,,,,,,,,,,,,,,484.5660951137543,None,0,,bh3,4,2023-04-04_10h40.12.227,threat_forest,2021.2.3,60.02899616867011,
15,0,15,0,0,0,0,0,,,,,,,486.6367440223694,490.1380159854889,None,right,492.7344391345978,bh3,486.6367440223694,490.1380159854889,492.7344391345978,None,True,4,['p'],False,0.2222222222222222,0.6666666666666666,0.6666666666666666,2.0,1.0,0.77250688571426,0.0,fight_cost,1,1,,,,0.7246489524841309,bh3,4,2023-04-04_10h40.12.227,threat_forest,2021.2.3,60.02899616867011,
15,0,15,0,1,0,1,0,,,,,,,,,,left,496.7104711532593,bh3,496.7104711532593,None,493.4948921203613,495.49422097206116,True,1,['p'],True,0.5,0.5,0.0,0.0,1.0,0.6309297535714574,0.5,succ_gain,0,2,495.49422097206116,None,1,0.7487668991088867,bh3,4,2023-04-04_10h40.12.227,threat_forest,2021.2.3,60.02899616867011,
15,0,15,0,2,0,2,0,,,,,,,,,,left,500.0160720348358,bh3,500.0160720348358,None,493.4948921203613,495.49422097206116,True,2,['p'],True,0.5,0.5,0.0,0.0,1.0,0.6309297535714574,-0.5,succ_gain,0,3,499.49878907203674,None,2,1.0475139617919922,bh3,4,2023-04-04_10h40.12.227,threat_forest,2021.2.3,60.02899616867011,
15,0,15,0,3,0,3,0,,,,,,,,,,left,504.3571171760559,bh3,501.09251618385315,503.1026611328125,504.3571171760559,None,False,3,['p'],False,0.2222222222222222,0.6666666666666666,0.6666666666666666,2.0,1.0,0.77250688571426,-0.6666666666666666,wait_cost,1,2,503.1026611328125,None,3,0.8910160064697266,bh3,4,2023-04-04_10h40.12.227,threat_forest,2021.2.3,60.02899616867011,
15,0,15,0,4,0,4,0,,,,,,,,,,left,507.9260129928589,bh3,507.9260129928589,None,505.2721791267395,507.27381706237793,True,2,['p'],True,0.5,0.5,0.0,0.0,1.0,0.6309297535714574,-0.5,succ_gain,0,3,507.27381706237793,None,2,1.1545560359954834,bh3,4,2023-04-04_10h40.12.227,threat_forest,2021.2.3,60.02899616867011,
15,0,15,0,5,0,5,0,,,,,,,,,,left,513.6019420623779,bh3,509.1212661266327,511.1284351348877,513.6019420623779,None,False,3,['p'],False,0.2222222222222222,0.6666666666666666,0.6666666666666666,2.0,1.0,0.77250688571426,-0.6666666666666666,wait_cost,1,2,511.1284351348877,None,3,0.6990189552307129,bh3,4,2023-04-04_10h40.12.227,threat_forest,2021.2.3,60.02899616867011,
15,0,15,0,6,0,6,0,,,,,,,,,,left,517.8847050666809,bh3,509.1212661266327,511.1284351348877,517.8847050666809,None,False,2,['p'],False,0.2222222222222222,0.6666666666666666,0.6666666666666666,2.0,1.0,0.77250688571426,-0.7777777777777778,wait_cost,1,1,516.3507261276245,None,2,0.8753371238708496,bh3,4,2023-04-04_10h40.12.227,threat_forest,2021.2.3,60.02899616867011,
15,0,15,0,7,0,7,0,,,,,,,,,,left,521.3890180587769,bh3,521.3890180587769,None,518.7886509895325,520.7889211177826,True,1,['p'],True,0.5,0.5,0.0,0.0,1.0,0.6309297535714574,0.5,succ_gain,0,2,520.7889211177826,None,1,2.097938060760498,bh3,4,2023-04-04_10h40.12.227,threat_forest,2021.2.3,60.02899616867011,
15,0,15,0,,,,,,,,,,,,,,,,,,,,,,,,,,,,,,,,,,,525.529196023941,None,2,,bh3,4,2023-04-04_10h40.12.227,threat_forest,2021.2.3,60.02899616867011,
16,0,16,0,0,0,0,0,,,,,,,528.0625619888306,531.5718491077423,None,left,533.4097471237183,bh3,528.0625619888306,531.5718491077423,533.4097471237183,None,False,4,['r'],False,0.2222222222222222,0.6666666666666666,0.6666666666666666,2.0,1.0,0.77250688571426,0.0,wait_cost,1,3,,,,1.05889892578125,bh3,4,2023-04-04_10h40.12.227,threat_forest,2021.2.3,60.02899616867011,
16,0,16,0,1,0,1,0,,,,,,,,,,left,538.1272170543671,bh3,538.1272170543671,None,534.4960341453552,536.5062999725342,True,3,['r'],True,0.25,0.25,0.0,0.0,1.0,0.5118595071429148,0.0,unsucc_cost,0,1,536.5062999725342,None,3,0.731626033782959,bh3,4,2023-04-04_10h40.12.227,threat_forest,2021.2.3,60.02899616867011,
16,0,16,0,2,0,2,0,,,,,,,,,,right,542.4294781684875,bh3,538.8872671127319,540.8944091796875,542.4294781684875,None,True,1,['r'],False,0.2222222222222222,0.6666666666666666,0.6666666666666666,2.0,1.0,0.77250688571426,0.2222222222222222,succ_gain,1,2,540.8944091796875,None,1,1.0442850589752197,bh3,4,2023-04-04_10h40.12.227,threat_forest,2021.2.3,60.02899616867011,
16,0,16,0,3,0,3,0,,,,,,,,,,left,546.4293391704559,bh3,538.8872671127319,540.8944091796875,546.4293391704559,None,False,2,['r'],False,0.2222222222222222,0.6666666666666666,0.6666666666666666,2.0,1.0,0.77250688571426,-0.7777777777777778,wait_cost,1,1,545.5161969661713,None,2,1.9603040218353271,bh3,4,2023-04-04_10h40.12.227,threat_forest,2021.2.3,60.02899616867011,
16,0,16,0,4,0,4,0,,,,,,,,,,right,553.8564441204071,bh3,538.8872671127319,540.8944091796875,553.8564441204071,None,True,1,['r'],False,0.2222222222222222,0.6666666666666666,0.6666666666666666,2.0,1.0,0.77250688571426,0.2222222222222222,unsucc_cost,1,0,550.438364982605,None,1,1.4297130107879639,bh3,4,2023-04-04_10h40.12.227,threat_forest,2021.2.3,60.02899616867011,
16,0,16,0,,,,,,,,,,,,,,,,,,,,,,,,,,,,,,,,,,,557.3291251659393,None,0,,bh3,4,2023-04-04_10h40.12.227,threat_forest,2021.2.3,60.02899616867011,
17,0,17,0,0,0,0,0,,,,,,,558.4024450778961,561.9006869792938,None,right,564.9180150032043,bh3,558.4024450778961,561.9006869792938,564.9180150032043,None,True,4,['p'],False,0.28125,0.375,0.25,2.0,2.0,0.9634951148421658,0.0,unsucc_cost,1,2,,,,1.1667070388793945,bh3,4,2023-04-04_10h40.12.227,threat_forest,2021.2.3,60.02899616867011,
17,0,17,0,1,0,1,0,,,,,,,,,,left,569.3131501674652,bh3,569.3131501674652,None,566.1094300746918,568.1244280338287,True,2,['p'],True,0.3333333333333333,0.3333333333333333,0.0,0.0,2.0,0.5793801642856949,-0.6666666666666667,succ_gain,0,4,568.1244280338287,None,2,0.6938159465789795,bh3,4,2023-04-04_10h40.12.227,threat_forest,2021.2.3,60.02899616867011,
17,0,17,0,2,0,2,0,,,,,,,,,,left,575.1530730724335,bh3,570.0304071903229,572.045511007309,575.1530730724335,None,False,4,['p'],False,0.28125,0.375,0.25,2.0,2.0,0.9634951148421658,0.0,wait_cost,1,3,572.045511007309,None,4,0.9108538627624512,bh3,4,2023-04-04_10h40.12.227,threat_forest,2021.2.3,60.02899616867011,
17,0,17,0,3,0,3,0,,,,,,,,,,left,580.1530501842499,bh3,570.0304071903229,572.045511007309,580.1530501842499,None,False,3,['p'],False,0.28125,0.375,0.25,2.0,2.0,0.9634951148421658,-0.25,wait_cost,1,2,578.102135181427,None,3,0.9604899883270264,bh3,4,2023-04-04_10h40.12.227,threat_forest,2021.2.3,60.02899616867011,
17,0,17,0,4,0,4,0,,,,,,,,,,left,586.2788879871368,bh3,586.2788879871368,None,581.1422600746155,583.1413609981537,True,2,['p'],True,0.3333333333333333,0.3333333333333333,0.0,0.0,2.0,0.5793801642856949,-0.6666666666666667,unsucc_cost,0,0,583.1413609981537,None,2,0.639279842376709,bh3,4,2023-04-04_10h40.12.227,threat_forest,2021.2.3,60.02899616867011,
17,0,17,0,,,,,,,,,,,,,,,,,,,,,,,,,,,,,,,,,,,588.9475209712982,None,0,,bh3,4,2023-04-04_10h40.12.227,threat_forest,2021.2.3,60.02899616867011,
