miniblock.thisRepN,miniblock.thisTrialN,miniblock.thisN,miniblock.thisIndex,day.thisRepN,day.thisTrialN,day.thisN,day.thisIndex,welcoming.started,welcoming.stopped,key_resp_2.keys,key_resp_2.rt,key_resp_2.started,key_resp_2.stopped,forest.started,fixation_forest.started,fixation_forest.stopped,key_resp.keys,key_resp.rt,key_resp.started,Subject_ID,weather_left.started,weather_left.stopped,weather_right.started,weather_right.stopped,foraging T/F,in_LP,p/r heuristic,good_weather.T/F,p_succ_correct,p_succ_uncorrected,r_threat,n_oponents,gain_if_succ,weather_entropy,OP_value_difference,action_outcome,forest_side_L=0_R=1,out_LP,fixation_day.started,fixation_day.stopped,n_day-1.out_LP.,participant,session,date,expName,psychopyVersion,frameRate,
,,,,,,,,11.209884000010788,None,space,4.114275500178337,11.209884000010788,None,,,,,,,,,,,,,,,,,,,,,,,,,,,,,qh13,2,2023-02-28_10h31.34.197,threat_forest,2021.2.3,60.05425299180541,
0,0,0,0,0,0,0,0,,,,,,,15.403868800029159,18.90313530014828,None,left,1.7788068996742368,22.06331150000915,qh13,15.403868800029159,18.90313530014828,22.06331150000915,None,False,5,['r'],False,0.24,0.3,0.2,2.0,2.0,0.9003120349047065,0.0,wait_cost,1,4,,,,qh13,2,2023-02-28_10h31.34.197,threat_forest,2021.2.3,60.05425299180541,
0,0,0,0,1,0,1,0,,,,,,,,,,left,1.7639679997228086,28.1624401002191,qh13,28.1624401002191,None,23.866524000186473,25.880989000201225,True,4,['r'],True,0.4444444444444445,0.6666666666666666,0.3333333333333333,1.0,2.0,0.9656336071428248,0.0,succ_gain,0,6,25.880989000201225,None,4,qh13,2,2023-02-28_10h31.34.197,threat_forest,2021.2.3,60.05425299180541,
0,0,0,0,2,0,2,0,,,,,,,,,,None,,34.52842210000381,qh13,34.52842210000381,None,23.866524000186473,25.880989000201225,None,6,['r'],True,0.4444444444444445,0.6666666666666666,0.3333333333333333,1.0,2.0,0.9656336071428248,0.0,wait_cost,0,5,31.95871310029179,None,6,qh13,2,2023-02-28_10h31.34.197,threat_forest,2021.2.3,60.05425299180541,
0,0,0,0,3,0,3,0,,,,,,,,,,left,2.389564100187272,43.001709800213575,qh13,37.53708630008623,39.55144419986755,43.001709800213575,None,False,5,['r'],False,0.24,0.3,0.2,2.0,2.0,0.9003120349047065,0.0,wait_cost,1,4,39.55144419986755,None,5,qh13,2,2023-02-28_10h31.34.197,threat_forest,2021.2.3,60.05425299180541,
0,0,0,0,4,0,4,0,,,,,,,,,,left,1.6121399002149701,50.66637360025197,qh13,50.66637360025197,None,45.413015600293875,47.427557699847966,True,4,['r'],True,0.4444444444444445,0.6666666666666666,0.3333333333333333,1.0,2.0,0.9656336071428248,0.0,succ_gain,0,6,47.427557699847966,None,4,qh13,2,2023-02-28_10h31.34.197,threat_forest,2021.2.3,60.05425299180541,
0,0,0,0,5,0,5,0,,,,,,,,,,right,2.408294899854809,57.68959970027208,qh13,57.68959970027208,None,45.413015600293875,47.427557699847966,False,6,['r'],True,0.4444444444444445,0.6666666666666666,0.3333333333333333,1.0,2.0,0.9656336071428248,0.0,wait_cost,0,5,54.32103230012581,None,6,qh13,2,2023-02-28_10h31.34.197,threat_forest,2021.2.3,60.05425299180541,
0,0,0,0,6,0,6,0,,,,,,,,,,right,1.3390374002046883,63.61613189987838,qh13,63.61613189987838,None,45.413015600293875,47.427557699847966,False,5,['r'],True,0.4444444444444445,0.6666666666666666,0.3333333333333333,1.0,2.0,0.9656336071428248,0.0,wait_cost,0,4,62.130408300086856,None,5,qh13,2,2023-02-28_10h31.34.197,threat_forest,2021.2.3,60.05425299180541,
0,0,0,0,7,0,7,0,,,,,,,,,,right,2.3503629001788795,68.70895530004054,qh13,68.70895530004054,None,45.413015600293875,47.427557699847966,False,4,['r'],True,0.4444444444444445,0.6666666666666666,0.3333333333333333,1.0,2.0,0.9656336071428248,0.0,wait_cost,0,3,66.9924818999134,None,4,qh13,2,2023-02-28_10h31.34.197,threat_forest,2021.2.3,60.05425299180541,
0,0,0,0,,,,,,,,,,,,,,,,,,,,,,,,,,,,,,,,,,,,73.11052659992129,None,3,qh13,2,2023-02-28_10h31.34.197,threat_forest,2021.2.3,60.05425299180541,
1,0,1,0,0,0,0,0,,,,,,,76.15985570009798,79.65931770019233,None,right,1.8479220997542143,81.73856429988518,qh13,76.15985570009798,79.65931770019233,81.73856429988518,None,True,5,['r'],False,0.16,0.2,0.2,2.0,2.0,0.8198746470064713,0.0,fight_cost,1,2,,,,qh13,2,2023-02-28_10h31.34.197,threat_forest,2021.2.3,60.05425299180541,
1,0,1,0,1,0,1,0,,,,,,,,,,right,1.3831893997266889,86.72177130030468,qh13,86.72177130030468,None,83.61084700003266,85.62505210004747,False,2,['r'],True,0.25,0.5,0.5,1.0,2.0,0.9463946303571862,-0.75,wait_cost,0,1,85.62505210004747,None,2,qh13,2,2023-02-28_10h31.34.197,threat_forest,2021.2.3,60.05425299180541,
1,0,1,0,2,0,2,0,,,,,,,,,,left,1.5010984996333718,93.24128790013492,qh13,93.24128790013492,None,83.61084700003266,85.62505210004747,True,1,['r'],True,0.25,0.5,0.5,1.0,2.0,0.9463946303571862,0.25,unsucc_cost,0,0,90.12082870025188,None,1,qh13,2,2023-02-28_10h31.34.197,threat_forest,2021.2.3,60.05425299180541,
1,0,1,0,,,,,,,,,,,,,,,,,,,,,,,,,,,,,,,,,,,,96.78137989994138,None,0,qh13,2,2023-02-28_10h31.34.197,threat_forest,2021.2.3,60.05425299180541,
2,0,2,0,0,0,0,0,,,,,,,100.3177307001315,103.82694440009072,None,right,1.7840887997299433,105.76958259986714,qh13,100.3177307001315,103.82694440009072,105.76958259986714,None,True,4,['p'],False,0.5185185185185185,0.6666666666666666,0.2222222222222222,2.0,2.0,0.9327883776363328,0.0,succ_gain,1,6,,,,qh13,2,2023-02-28_10h31.34.197,threat_forest,2021.2.3,60.05425299180541,
2,0,2,0,1,0,1,0,,,,,,,,,,left,1.1456548999994993,112.96104700025171,qh13,112.96104700025171,None,107.57182630011812,109.585907000117,True,6,['p'],True,0.625,0.625,0.0,0.0,2.0,0.6021808102656677,0.0,succ_gain,0,6,109.585907000117,None,6,qh13,2,2023-02-28_10h31.34.197,threat_forest,2021.2.3,60.05425299180541,
2,0,2,0,2,0,2,0,,,,,,,,,,right,2.5431690998375416,119.25350730028003,qh13,114.13226750027388,116.14648550003767,119.25350730028003,None,True,6,['p'],False,0.5185185185185185,0.6666666666666666,0.2222222222222222,2.0,2.0,0.9327883776363328,0.0,succ_gain,1,6,116.14648550003767,None,6,qh13,2,2023-02-28_10h31.34.197,threat_forest,2021.2.3,60.05425299180541,
2,0,2,0,3,0,3,0,,,,,,,,,,None,,127.18272780021653,qh13,127.18272780021653,None,121.83300630003214,123.83925670012832,None,6,['p'],True,0.625,0.625,0.0,0.0,2.0,0.6021808102656677,0.0,wait_cost,0,5,123.83925670012832,None,6,qh13,2,2023-02-28_10h31.34.197,threat_forest,2021.2.3,60.05425299180541,
2,0,2,0,4,0,4,0,,,,,,,,,,left,1.2078897999599576,133.02679730020463,qh13,130.18388700019568,132.18149450002238,133.02679730020463,None,False,5,['p'],False,0.5185185185185185,0.6666666666666666,0.2222222222222222,2.0,2.0,0.9327883776363328,0.0,wait_cost,1,4,132.18149450002238,None,5,qh13,2,2023-02-28_10h31.34.197,threat_forest,2021.2.3,60.05425299180541,
2,0,2,0,5,0,5,0,,,,,,,,,,right,1.1604256997816265,139.2534262998961,qh13,139.2534262998961,None,134.26603960013017,136.2777074999176,False,4,['p'],True,0.625,0.625,0.0,0.0,2.0,0.6021808102656677,0.0,wait_cost,0,3,136.2777074999176,None,4,qh13,2,2023-02-28_10h31.34.197,threat_forest,2021.2.3,60.05425299180541,
2,0,2,0,6,0,6,0,,,,,,,,,,left,0.6733758999034762,145.91494850022718,qh13,140.44086330011487,142.45521919988096,145.91494850022718,None,False,3,['p'],False,0.5185185185185185,0.6666666666666666,0.2222222222222222,2.0,2.0,0.9327883776363328,-0.2222222222222222,wait_cost,1,2,142.45521919988096,None,3,qh13,2,2023-02-28_10h31.34.197,threat_forest,2021.2.3,60.05425299180541,
2,0,2,0,7,0,7,0,,,,,,,,,,right,1.0709791001863778,149.49229850014672,qh13,149.49229850014672,None,146.61835560016334,148.6327523002401,False,2,['p'],True,0.625,0.625,0.0,0.0,2.0,0.6021808102656677,-0.375,wait_cost,0,1,148.6327523002401,None,2,qh13,2,2023-02-28_10h31.34.197,threat_forest,2021.2.3,60.05425299180541,
2,0,2,0,,,,,,,,,,,,,,,,,,,,,,,,,,,,,,,,,,,,152.59589749993756,None,1,qh13,2,2023-02-28_10h31.34.197,threat_forest,2021.2.3,60.05425299180541,
3,0,3,0,0,0,0,0,,,,,,,156.24303989997134,159.74535079998896,None,left,1.0556085999123752,163.5274894000031,qh13,163.5274894000031,None,156.24303989997134,159.74535079998896,True,5,['r'],True,0.5,0.5,0.0,0.0,2.0,0.6309297535714574,0.0,unsucc_cost,0,3,,,,qh13,2,2023-02-28_10h31.34.197,threat_forest,2021.2.3,60.05425299180541,
3,0,3,0,1,0,1,0,,,,,,,,,,left,0.9524677996523678,167.76511840010062,qh13,167.76511840010062,None,156.24303989997134,159.74535079998896,True,3,['r'],True,0.5,0.5,0.0,0.0,2.0,0.6309297535714574,0.0,unsucc_cost,0,1,166.6157348002307,None,3,qh13,2,2023-02-28_10h31.34.197,threat_forest,2021.2.3,60.05425299180541,
3,0,3,0,2,0,2,0,,,,,,,,,,right,1.480504599865526,172.23941380018368,qh13,168.74727329984307,170.76202030014247,172.23941380018368,None,True,1,['r'],False,0.4081632653061224,0.5714285714285714,0.2857142857142857,2.0,2.0,0.9885754083994552,0.4081632653061224,unsucc_cost,1,0,170.76202030014247,None,1,qh13,2,2023-02-28_10h31.34.197,threat_forest,2021.2.3,60.05425299180541,
3,0,3,0,,,,,,,,,,,,,,,,,,,,,,,,,,,,,,,,,,,,175.7572244000621,None,0,qh13,2,2023-02-28_10h31.34.197,threat_forest,2021.2.3,60.05425299180541,
4,0,4,0,0,0,0,0,,,,,,,176.28255139989778,179.78669480001554,None,right,1.3568446999415755,182.42796909995377,qh13,176.28255139989778,179.78669480001554,182.42796909995377,None,True,5,['r'],False,0.2222222222222222,0.6666666666666666,0.6666666666666666,2.0,2.0,0.77250688571426,0.0,unsucc_cost,1,3,,,,qh13,2,2023-02-28_10h31.34.197,threat_forest,2021.2.3,60.05425299180541,
4,0,4,0,1,0,1,0,,,,,,,,,,right,2.624788499902934,186.78075749985874,qh13,176.28255139989778,179.78669480001554,186.78075749985874,None,True,3,['r'],False,0.2222222222222222,0.6666666666666666,0.6666666666666666,2.0,2.0,0.77250688571426,-0.6666666666666666,unsucc_cost,1,1,185.83111530030146,None,3,qh13,2,2023-02-28_10h31.34.197,threat_forest,2021.2.3,60.05425299180541,
4,0,4,0,2,0,2,0,,,,,,,,,,left,2.033256800379604,192.3314725998789,qh13,192.3314725998789,None,189.42815859988332,191.44256049999967,True,1,['r'],True,0.3333333333333333,0.3333333333333333,0.0,0.0,2.0,0.5793801642856949,0.3333333333333332,fight_cost,0,0,191.44256049999967,None,1,qh13,2,2023-02-28_10h31.34.197,threat_forest,2021.2.3,60.05425299180541,
4,0,4,0,,,,,,,,,,,,,,,,,,,,,,,,,,,,,,,,,,,,196.4045617999509,None,0,qh13,2,2023-02-28_10h31.34.197,threat_forest,2021.2.3,60.05425299180541,
5,0,5,0,0,0,0,0,,,,,,,197.6355853001587,201.14202910009772,None,right,0.8099964000284672,203.0094821001403,qh13,197.6355853001587,201.14202910009772,203.0094821001403,None,True,5,['r'],False,0.4444444444444445,0.6666666666666666,0.3333333333333333,2.0,2.0,0.9656336071428248,0.0,succ_gain,1,6,,,,qh13,2,2023-02-28_10h31.34.197,threat_forest,2021.2.3,60.05425299180541,
5,0,5,0,1,0,1,0,,,,,,,,,,right,1.029264200013131,208.76042270008475,qh13,208.76042270008475,None,203.84831089992076,205.86252789990976,False,6,['r'],True,0.6,0.6,0.0,0.0,2.0,0.6126016192893442,0.0,wait_cost,0,5,205.86252789990976,None,6,qh13,2,2023-02-28_10h31.34.197,threat_forest,2021.2.3,60.05425299180541,
5,0,5,0,2,0,2,0,,,,,,,,,,right,0.9140209001488984,214.46182620013133,qh13,209.80944210011512,211.8236245000735,214.46182620013133,None,True,5,['r'],False,0.4444444444444445,0.6666666666666666,0.3333333333333333,2.0,2.0,0.9656336071428248,0.0,unsucc_cost,1,3,211.8236245000735,None,5,qh13,2,2023-02-28_10h31.34.197,threat_forest,2021.2.3,60.05425299180541,
5,0,5,0,3,0,3,0,,,,,,,,,,left,2.3775304001756012,221.12317020026967,qh13,221.12317020026967,None,215.40413889987394,217.41842469992116,True,3,['r'],True,0.6,0.6,0.0,0.0,2.0,0.6126016192893442,0.0,fight_cost,0,0,217.41842469992116,None,3,qh13,2,2023-02-28_10h31.34.197,threat_forest,2021.2.3,60.05425299180541,
5,0,5,0,,,,,,,,,,,,,,,,,,,,,,,,,,,,,,,,,,,,225.54431440029293,None,0,qh13,2,2023-02-28_10h31.34.197,threat_forest,2021.2.3,60.05425299180541,
6,0,6,0,0,0,0,0,,,,,,,227.35905510000885,230.8582613002509,None,left,1.7370238997973502,234.50226220022887,qh13,227.35905510000885,230.8582613002509,234.50226220022887,None,False,4,['p'],False,0.1875,0.25,0.25,2.0,1.0,0.895754137500101,0.0,wait_cost,1,3,,,,qh13,2,2023-02-28_10h31.34.197,threat_forest,2021.2.3,60.05425299180541,
6,0,6,0,1,0,1,0,,,,,,,,,,left,1.2189517999067903,240.1029171999544,qh13,227.35905510000885,230.8582613002509,240.1029171999544,None,False,3,['p'],False,0.1875,0.25,0.25,2.0,1.0,0.895754137500101,-0.25,wait_cost,1,2,238.28191759996116,None,3,qh13,2,2023-02-28_10h31.34.197,threat_forest,2021.2.3,60.05425299180541,
6,0,6,0,2,0,2,0,,,,,,,,,,left,1.4040350001305342,246.262231499888,qh13,227.35905510000885,230.8582613002509,246.262231499888,None,False,2,['p'],False,0.1875,0.25,0.25,2.0,1.0,0.895754137500101,-0.8125,wait_cost,1,1,243.36051880009472,None,2,qh13,2,2023-02-28_10h31.34.197,threat_forest,2021.2.3,60.05425299180541,
6,0,6,0,3,0,3,0,,,,,,,,,,left,1.7658345000818372,252.72389300027862,qh13,252.72389300027862,None,247.69048410002142,249.70469280006364,True,1,['p'],True,0.4444444444444445,0.6666666666666666,0.3333333333333333,1.0,1.0,0.9656336071428248,0.4444444444444444,succ_gain,0,2,249.70469280006364,None,1,qh13,2,2023-02-28_10h31.34.197,threat_forest,2021.2.3,60.05425299180541,
6,0,6,0,4,0,4,0,,,,,,,,,,left,1.0184722999110818,258.0898323999718,qh13,254.5172108002007,256.53162020025775,258.0898323999718,None,False,2,['p'],False,0.1875,0.25,0.25,2.0,1.0,0.895754137500101,-0.8125,wait_cost,1,1,256.53162020025775,None,2,qh13,2,2023-02-28_10h31.34.197,threat_forest,2021.2.3,60.05425299180541,
6,0,6,0,5,0,5,0,,,,,,,,,,right,1.929688099771738,263.5928261000663,qh13,254.5172108002007,256.53162020025775,263.5928261000663,None,True,1,['p'],False,0.1875,0.25,0.25,2.0,1.0,0.895754137500101,0.1875,unsucc_cost,1,0,261.1439757999033,None,1,qh13,2,2023-02-28_10h31.34.197,threat_forest,2021.2.3,60.05425299180541,
6,0,6,0,,,,,,,,,,,,,,,,,,,,,,,,,,,,,,,,,,,,267.55481230001897,None,0,qh13,2,2023-02-28_10h31.34.197,threat_forest,2021.2.3,60.05425299180541,
7,0,7,0,0,0,0,0,,,,,,,270.57444320013747,274.08244640007615,None,left,2.0008645998314023,277.80659910012037,qh13,270.57444320013747,274.08244640007615,277.80659910012037,None,False,5,['p'],False,0.1975308641975308,0.2222222222222222,0.1111111111111111,1.0,1.0,0.7461067557824965,0.0,wait_cost,1,4,,,,qh13,2,2023-02-28_10h31.34.197,threat_forest,2021.2.3,60.05425299180541,
7,0,7,0,1,0,1,0,,,,,,,,,,right,1.1283265999518335,282.96842799987644,qh13,270.57444320013747,274.08244640007615,282.96842799987644,None,True,4,['p'],False,0.1975308641975308,0.2222222222222222,0.1111111111111111,1.0,1.0,0.7461067557824965,0.0,succ_gain,1,5,281.8414179002866,None,4,qh13,2,2023-02-28_10h31.34.197,threat_forest,2021.2.3,60.05425299180541,
7,0,7,0,2,0,2,0,,,,,,,,,,right,1.9046126999892294,287.64326620008796,qh13,270.57444320013747,274.08244640007615,287.64326620008796,None,True,5,['p'],False,0.1975308641975308,0.2222222222222222,0.1111111111111111,1.0,1.0,0.7461067557824965,0.0,succ_gain,1,6,286.1374073000625,None,5,qh13,2,2023-02-28_10h31.34.197,threat_forest,2021.2.3,60.05425299180541,
7,0,7,0,3,0,3,0,,,,,,,,,,right,1.2451873999089003,295.11042089993134,qh13,295.11042089993134,None,289.5680511998944,291.5655828001909,False,6,['p'],True,0.32,0.4,0.2,1.0,1.0,0.9455672104350704,0.0,wait_cost,0,5,291.5655828001909,None,6,qh13,2,2023-02-28_10h31.34.197,threat_forest,2021.2.3,60.05425299180541,
7,0,7,0,4,0,4,0,,,,,,,,,,left,1.1043355003930628,299.3210531002842,qh13,296.37811949988827,298.3923977999948,299.3210531002842,None,False,5,['p'],False,0.1975308641975308,0.2222222222222222,0.1111111111111111,1.0,1.0,0.7461067557824965,0.0,wait_cost,1,4,298.3923977999948,None,5,qh13,2,2023-02-28_10h31.34.197,threat_forest,2021.2.3,60.05425299180541,
7,0,7,0,5,0,5,0,,,,,,,,,,right,0.6601467998698354,304.14918980002403,qh13,304.14918980002403,None,300.4576596003026,302.4718863000162,False,4,['p'],True,0.32,0.4,0.2,1.0,1.0,0.9455672104350704,0.0,wait_cost,0,3,302.4718863000162,None,4,qh13,2,2023-02-28_10h31.34.197,threat_forest,2021.2.3,60.05425299180541,
7,0,7,0,6,0,6,0,,,,,,,,,,left,0.4422924998216331,307.45516860019416,qh13,304.8368147001602,306.851117500104,307.45516860019416,None,False,3,['p'],False,0.1975308641975308,0.2222222222222222,0.1111111111111111,1.0,1.0,0.7461067557824965,-0.1111111111111111,wait_cost,1,2,306.851117500104,None,3,qh13,2,2023-02-28_10h31.34.197,threat_forest,2021.2.3,60.05425299180541,
7,0,7,0,7,0,7,0,,,,,,,,,,right,0.5953897000290453,311.5703337001614,qh13,311.5703337001614,None,307.91738740028813,309.93167879991233,False,2,['p'],True,0.32,0.4,0.2,1.0,1.0,0.9455672104350704,-0.6799999999999999,wait_cost,0,1,309.93167879991233,None,2,qh13,2,2023-02-28_10h31.34.197,threat_forest,2021.2.3,60.05425299180541,
7,0,7,0,,,,,,,,,,,,,,,,,,,,,,,,,,,,,,,,,,,,314.2109338999726,None,1,qh13,2,2023-02-28_10h31.34.197,threat_forest,2021.2.3,60.05425299180541,
8,0,8,0,0,0,0,0,,,,,,,317.0071228002198,320.52164340019226,None,right,2.144311100244522,321.56201610015705,qh13,317.0071228002198,320.52164340019226,321.56201610015705,None,True,4,['p'],False,0.36,0.6,0.4,2.0,1.0,0.9801625908629508,0.0,succ_gain,1,5,,,,qh13,2,2023-02-28_10h31.34.197,threat_forest,2021.2.3,60.05425299180541,
8,0,8,0,1,0,1,0,,,,,,,,,,None,,327.0159689001739,qh13,317.0071228002198,320.52164340019226,327.0159689001739,None,None,5,['p'],False,0.36,0.6,0.4,2.0,1.0,0.9801625908629508,0.0,wait_cost,1,4,325.75012509990484,None,5,qh13,2,2023-02-28_10h31.34.197,threat_forest,2021.2.3,60.05425299180541,
8,0,8,0,2,0,2,0,,,,,,,,,,left,1.8089662999846041,334.17065840028226,qh13,334.17065840028226,None,330.0297787999734,332.04424030007794,True,4,['p'],True,0.5,0.5,0.0,0.0,1.0,0.6309297535714574,0.0,succ_gain,0,5,332.04424030007794,None,4,qh13,2,2023-02-28_10h31.34.197,threat_forest,2021.2.3,60.05425299180541,
8,0,8,0,3,0,3,0,,,,,,,,,,right,1.722114000003785,341.6087714000605,qh13,336.0076263998635,338.0220288001001,341.6087714000605,None,True,5,['p'],False,0.36,0.6,0.4,2.0,1.0,0.9801625908629508,0.0,unsucc_cost,1,3,338.0220288001001,None,5,qh13,2,2023-02-28_10h31.34.197,threat_forest,2021.2.3,60.05425299180541,
8,0,8,0,4,0,4,0,,,,,,,,,,right,1.3422937002032995,347.9629468000494,qh13,336.0076263998635,338.0220288001001,347.9629468000494,None,True,3,['p'],False,0.36,0.6,0.4,2.0,1.0,0.9801625908629508,-0.4,unsucc_cost,1,1,345.3651686999947,None,3,qh13,2,2023-02-28_10h31.34.197,threat_forest,2021.2.3,60.05425299180541,
8,0,8,0,5,0,5,0,,,,,,,,,,left,1.8820072999224067,353.06353469984606,qh13,353.06353469984606,None,349.3284793002531,351.3431569002569,True,1,['p'],True,0.5,0.5,0.0,0.0,1.0,0.6309297535714574,0.5,fight_cost,0,0,351.3431569002569,None,1,qh13,2,2023-02-28_10h31.34.197,threat_forest,2021.2.3,60.05425299180541,
8,0,8,0,,,,,,,,,,,,,,,,,,,,,,,,,,,,,,,,,,,,356.9877408002503,None,0,qh13,2,2023-02-28_10h31.34.197,threat_forest,2021.2.3,60.05425299180541,
9,0,9,0,0,0,0,0,,,,,,,360.3219532002695,363.8312213001773,None,left,2.422806799877435,364.4913397002965,qh13,360.3219532002695,363.8312213001773,364.4913397002965,None,False,4,['p'],False,0.36,0.6,0.4,2.0,2.0,0.9801625908629508,0.0,wait_cost,1,3,,,,qh13,2,2023-02-28_10h31.34.197,threat_forest,2021.2.3,60.05425299180541,
9,0,9,0,1,0,1,0,,,,,,,,,,left,0.8331401003524661,370.51424030028284,qh13,370.51424030028284,None,366.9452323000878,368.9596776003018,True,3,['p'],True,0.5,0.5,0.0,0.0,2.0,0.6309297535714574,0.0,succ_gain,0,5,368.9596776003018,None,3,qh13,2,2023-02-28_10h31.34.197,threat_forest,2021.2.3,60.05425299180541,
9,0,9,0,2,0,2,0,,,,,,,,,,left,1.5237639001570642,374.69604460010305,qh13,371.37457469990477,373.3888794002123,374.69604460010305,None,False,5,['p'],False,0.36,0.6,0.4,2.0,2.0,0.9801625908629508,0.0,wait_cost,1,4,373.3888794002123,None,5,qh13,2,2023-02-28_10h31.34.197,threat_forest,2021.2.3,60.05425299180541,
9,0,9,0,3,0,3,0,,,,,,,,,,left,1.2420467999763787,380.7877410999499,qh13,371.37457469990477,373.3888794002123,380.7877410999499,None,False,4,['p'],False,0.36,0.6,0.4,2.0,2.0,0.9801625908629508,0.0,wait_cost,1,3,378.2509705000557,None,4,qh13,2,2023-02-28_10h31.34.197,threat_forest,2021.2.3,60.05425299180541,
9,0,9,0,4,0,4,0,,,,,,,,,,left,0.6645821998827159,386.317233200185,qh13,386.317233200185,None,382.0478226002306,384.0622212998569,True,3,['p'],True,0.5,0.5,0.0,0.0,2.0,0.6309297535714574,0.0,unsucc_cost,0,1,384.0622212998569,None,3,qh13,2,2023-02-28_10h31.34.197,threat_forest,2021.2.3,60.05425299180541,
9,0,9,0,5,0,5,0,,,,,,,,,,left,0.9986681998707354,392.37199810007587,qh13,392.37199810007587,None,382.0478226002306,384.0622212998569,True,1,['p'],True,0.5,0.5,0.0,0.0,2.0,0.6309297535714574,0.5,unsucc_cost,0,0,389.0242888000794,None,1,qh13,2,2023-02-28_10h31.34.197,threat_forest,2021.2.3,60.05425299180541,
9,0,9,0,,,,,,,,,,,,,,,,,,,,,,,,,,,,,,,,,,,,395.4018095000647,None,0,qh13,2,2023-02-28_10h31.34.197,threat_forest,2021.2.3,60.05425299180541,
10,0,10,0,0,0,0,0,,,,,,,396.4764151000418,399.96680939989164,None,left,1.8492510002106428,401.0266836001538,qh13,401.0266836001538,None,396.4764151000418,399.96680939989164,True,5,['r'],True,0.4444444444444445,0.6666666666666666,0.3333333333333333,1.0,2.0,0.9656336071428248,0.0,unsucc_cost,0,3,,,,qh13,2,2023-02-28_10h31.34.197,threat_forest,2021.2.3,60.05425299180541,
10,0,10,0,1,0,1,0,,,,,,,,,,left,1.7694934997707605,405.86985719995573,qh13,405.86985719995573,None,396.4764151000418,399.96680939989164,True,3,['r'],True,0.4444444444444445,0.6666666666666666,0.3333333333333333,1.0,2.0,0.9656336071428248,-0.3333333333333333,succ_gain,0,5,404.90950440010056,None,3,qh13,2,2023-02-28_10h31.34.197,threat_forest,2021.2.3,60.05425299180541,
10,0,10,0,2,0,2,0,,,,,,,,,,right,1.9251868003048003,411.1144916000776,qh13,407.65738910017535,409.6716244001873,411.1144916000776,None,True,5,['r'],False,0.27,0.3,0.1,1.0,2.0,0.7963326591781347,0.0,unsucc_cost,1,3,409.6716244001873,None,5,qh13,2,2023-02-28_10h31.34.197,threat_forest,2021.2.3,60.05425299180541,
10,0,10,0,3,0,3,0,,,,,,,,,,right,2.328614099882543,418.81524749984965,qh13,407.65738910017535,409.6716244001873,418.81524749984965,None,True,3,['r'],False,0.27,0.3,0.1,1.0,2.0,0.7963326591781347,-0.1,succ_gain,1,5,415.08325530029833,None,3,qh13,2,2023-02-28_10h31.34.197,threat_forest,2021.2.3,60.05425299180541,
10,0,10,0,4,0,4,0,,,,,,,,,,right,0.8207928999327123,426.5821663001552,qh13,426.5821663001552,None,421.1613859999925,423.17571450024843,False,5,['r'],True,0.4444444444444445,0.6666666666666666,0.3333333333333333,1.0,2.0,0.9656336071428248,0.0,wait_cost,0,4,423.17571450024843,None,5,qh13,2,2023-02-28_10h31.34.197,threat_forest,2021.2.3,60.05425299180541,
10,0,10,0,5,0,5,0,,,,,,,,,,right,0.6687890999019146,432.0107761998661,qh13,432.0107761998661,None,421.1613859999925,423.17571450024843,False,4,['r'],True,0.4444444444444445,0.6666666666666666,0.3333333333333333,1.0,2.0,0.9656336071428248,0.0,wait_cost,0,3,429.4373695002869,None,4,qh13,2,2023-02-28_10h31.34.197,threat_forest,2021.2.3,60.05425299180541,
10,0,10,0,6,0,6,0,,,,,,,,,,left,0.6318329996429384,435.35446699988097,qh13,432.70049259997904,434.71492980001494,435.35446699988097,None,False,3,['r'],False,0.27,0.3,0.1,1.0,2.0,0.7963326591781347,-0.1,wait_cost,1,2,434.71492980001494,None,3,qh13,2,2023-02-28_10h31.34.197,threat_forest,2021.2.3,60.05425299180541,
10,0,10,0,7,0,7,0,,,,,,,,,,right,0.5769636002369225,440.37167400028557,qh13,440.37167400028557,None,436.0139131001197,438.02839410025626,False,2,['r'],True,0.4444444444444445,0.6666666666666666,0.3333333333333333,1.0,2.0,0.9656336071428248,-0.5555555555555556,wait_cost,0,1,438.02839410025626,None,2,qh13,2,2023-02-28_10h31.34.197,threat_forest,2021.2.3,60.05425299180541,
10,0,10,0,,,,,,,,,,,,,,,,,,,,,,,,,,,,,,,,,,,,442.99055950017646,None,1,qh13,2,2023-02-28_10h31.34.197,threat_forest,2021.2.3,60.05425299180541,
11,0,11,0,0,0,0,0,,,,,,,445.5518654002808,449.06165360007435,None,left,1.8729648999869823,450.65752830030397,qh13,450.65752830030397,None,445.5518654002808,449.06165360007435,True,4,['p'],True,0.4444444444444445,0.6666666666666666,0.3333333333333333,1.0,2.0,0.9656336071428248,0.0,unsucc_cost,0,2,,,,qh13,2,2023-02-28_10h31.34.197,threat_forest,2021.2.3,60.05425299180541,
11,0,11,0,1,0,1,0,,,,,,,,,,left,1.7768994001671672,457.4956431002356,qh13,457.4956431002356,None,445.5518654002808,449.06165360007435,True,2,['p'],True,0.4444444444444445,0.6666666666666666,0.3333333333333333,1.0,2.0,0.9656336071428248,-0.5555555555555556,succ_gain,0,4,454.56311420025304,None,2,qh13,2,2023-02-28_10h31.34.197,threat_forest,2021.2.3,60.05425299180541,
11,0,11,0,2,0,2,0,,,,,,,,,,right,1.6502894000150263,464.35077390028164,qh13,459.2924537998624,461.30681360000744,464.35077390028164,None,True,4,['p'],False,0.2592592592592592,0.3333333333333333,0.2222222222222222,2.0,2.0,0.9327883776363324,0.0,unsucc_cost,1,2,461.30681360000744,None,4,qh13,2,2023-02-28_10h31.34.197,threat_forest,2021.2.3,60.05425299180541,
11,0,11,0,3,0,3,0,,,,,,,,,,right,1.5685661998577416,470.4721635002643,qh13,459.2924537998624,461.30681360000744,470.4721635002643,None,True,2,['p'],False,0.2592592592592592,0.3333333333333333,0.2222222222222222,2.0,2.0,0.9327883776363324,-0.7407407407407408,unsucc_cost,1,0,468.0338812000118,None,2,qh13,2,2023-02-28_10h31.34.197,threat_forest,2021.2.3,60.05425299180541,
11,0,11,0,,,,,,,,,,,,,,,,,,,,,,,,,,,,,,,,,,,,474.07838119985536,None,0,qh13,2,2023-02-28_10h31.34.197,threat_forest,2021.2.3,60.05425299180541,
12,0,12,0,0,0,0,0,,,,,,,477.24593740003183,480.75693410029635,None,left,1.0962461000308394,481.2891520000994,qh13,481.2891520000994,None,477.24593740003183,480.75693410029635,True,5,['r'],True,0.4166666666666667,0.5,0.1666666666666666,1.0,2.0,0.9358932809493992,0.0,succ_gain,0,6,,,,qh13,2,2023-02-28_10h31.34.197,threat_forest,2021.2.3,60.05425299180541,
12,0,12,0,1,0,1,0,,,,,,,,,,left,2.737559299916029,487.5430403999053,qh13,487.5430403999053,None,477.24593740003183,480.75693410029635,True,6,['r'],True,0.4166666666666667,0.5,0.1666666666666666,1.0,2.0,0.9358932809493992,0.0,unsucc_cost,0,4,484.4186599999666,None,6,qh13,2,2023-02-28_10h31.34.197,threat_forest,2021.2.3,60.05425299180541,
12,0,12,0,2,0,2,0,,,,,,,,,,left,1.4784217001870275,494.80244580004364,qh13,494.80244580004364,None,477.24593740003183,480.75693410029635,True,4,['r'],True,0.4166666666666667,0.5,0.1666666666666666,1.0,2.0,0.9358932809493992,0.0,succ_gain,0,6,492.32786459987983,None,4,qh13,2,2023-02-28_10h31.34.197,threat_forest,2021.2.3,60.05425299180541,
12,0,12,0,3,0,3,0,,,,,,,,,,right,0.6132821999490261,501.6776923001744,qh13,501.6776923001744,None,477.24593740003183,480.75693410029635,False,6,['r'],True,0.4166666666666667,0.5,0.1666666666666666,1.0,2.0,0.9358932809493992,0.0,wait_cost,0,5,498.32213089987636,None,6,qh13,2,2023-02-28_10h31.34.197,threat_forest,2021.2.3,60.05425299180541,
12,0,12,0,4,0,4,0,,,,,,,,,,right,0.4759073997847736,506.5535154999234,qh13,506.5535154999234,None,477.24593740003183,480.75693410029635,False,5,['r'],True,0.4166666666666667,0.5,0.1666666666666666,1.0,2.0,0.9358932809493992,0.0,wait_cost,0,4,504.3333069002256,None,5,qh13,2,2023-02-28_10h31.34.197,threat_forest,2021.2.3,60.05425299180541,
12,0,12,0,5,0,5,0,,,,,,,,,,right,0.5772122000344098,512.8472585002892,qh13,512.8472585002892,None,477.24593740003183,480.75693410029635,False,4,['r'],True,0.4166666666666667,0.5,0.1666666666666666,1.0,2.0,0.9358932809493992,0.0,wait_cost,0,3,509.06216740002856,None,4,qh13,2,2023-02-28_10h31.34.197,threat_forest,2021.2.3,60.05425299180541,
12,0,12,0,6,0,6,0,,,,,,,,,,right,0.6932564000599086,516.2766903000884,qh13,516.2766903000884,None,477.24593740003183,480.75693410029635,False,3,['r'],True,0.4166666666666667,0.5,0.1666666666666666,1.0,2.0,0.9358932809493992,-0.1666666666666666,wait_cost,0,2,515.4559712000191,None,3,qh13,2,2023-02-28_10h31.34.197,threat_forest,2021.2.3,60.05425299180541,
12,0,12,0,7,0,7,0,,,,,,,,,,left,0.9935112004168332,521.2582356999628,qh13,516.9882463002577,519.0027375002392,521.2582356999628,None,False,2,['r'],False,0.2962962962962963,0.3333333333333333,0.1111111111111111,1.0,2.0,0.8325252476189534,-0.7037037037037037,wait_cost,1,1,519.0027375002392,None,2,qh13,2,2023-02-28_10h31.34.197,threat_forest,2021.2.3,60.05425299180541,
12,0,12,0,,,,,,,,,,,,,,,,,,,,,,,,,,,,,,,,,,,,524.2977288002148,None,1,qh13,2,2023-02-28_10h31.34.197,threat_forest,2021.2.3,60.05425299180541,
13,0,13,0,0,0,0,0,,,,,,,527.4836933002807,530.9841268998571,None,left,1.8355879001319408,533.5342043000273,qh13,527.4836933002807,530.9841268998571,533.5342043000273,None,False,5,['r'],False,0.2962962962962963,0.3333333333333333,0.1111111111111111,1.0,1.0,0.8325252476189534,0.0,wait_cost,1,4,,,,qh13,2,2023-02-28_10h31.34.197,threat_forest,2021.2.3,60.05425299180541,
13,0,13,0,1,0,1,0,,,,,,,,,,left,1.2735407003201544,538.3296328000724,qh13,527.4836933002807,530.9841268998571,538.3296328000724,None,False,4,['r'],False,0.2962962962962963,0.3333333333333333,0.1111111111111111,1.0,1.0,0.8325252476189534,0.0,wait_cost,1,3,537.4020357001573,None,4,qh13,2,2023-02-28_10h31.34.197,threat_forest,2021.2.3,60.05425299180541,
13,0,13,0,2,0,2,0,,,,,,,,,,left,1.6204563998617232,543.9530528001487,qh13,527.4836933002807,530.9841268998571,543.9530528001487,None,False,3,['r'],False,0.2962962962962963,0.3333333333333333,0.1111111111111111,1.0,1.0,0.8325252476189534,-0.1111111111111111,wait_cost,1,2,541.6480644000694,None,3,qh13,2,2023-02-28_10h31.34.197,threat_forest,2021.2.3,60.05425299180541,
13,0,13,0,3,0,3,0,,,,,,,,,,left,1.568167199846357,549.5912084002048,qh13,527.4836933002807,530.9841268998571,549.5912084002048,None,False,2,['r'],False,0.2962962962962963,0.3333333333333333,0.1111111111111111,1.0,1.0,0.8325252476189534,-0.7037037037037037,wait_cost,1,1,547.6092060999945,None,2,qh13,2,2023-02-28_10h31.34.197,threat_forest,2021.2.3,60.05425299180541,
13,0,13,0,4,0,4,0,,,,,,,,,,left,1.6648432998917997,553.9633796000853,qh13,553.9633796000853,None,551.1896740002558,553.2039140001871,True,1,['r'],True,0.48,0.6,0.2,1.0,1.0,0.9455672104350704,0.48,succ_gain,0,2,553.2039140001871,None,1,qh13,2,2023-02-28_10h31.34.197,threat_forest,2021.2.3,60.05425299180541,
13,0,13,0,5,0,5,0,,,,,,,,,,left,1.3508493998087943,559.6090882001445,qh13,555.6519626001827,557.6664360002615,559.6090882001445,None,False,2,['r'],False,0.2962962962962963,0.3333333333333333,0.1111111111111111,1.0,1.0,0.8325252476189534,-0.7037037037037037,wait_cost,1,1,557.6664360002615,None,2,qh13,2,2023-02-28_10h31.34.197,threat_forest,2021.2.3,60.05425299180541,
13,0,13,0,6,0,6,0,,,,,,,,,,left,1.3983590002171695,565.0829396001063,qh13,565.0829396001063,None,560.9803776000626,562.9947955003008,True,1,['r'],True,0.48,0.6,0.2,1.0,1.0,0.9455672104350704,0.48,fight_cost,0,0,562.9947955003008,None,1,qh13,2,2023-02-28_10h31.34.197,threat_forest,2021.2.3,60.05425299180541,
13,0,13,0,,,,,,,,,,,,,,,,,,,,,,,,,,,,,,,,,,,,568.5231526000425,None,0,qh13,2,2023-02-28_10h31.34.197,threat_forest,2021.2.3,60.05425299180541,
14,0,14,0,0,0,0,0,,,,,,,571.0853523998521,574.6005086000077,None,left,1.6109776003286242,575.3293624999933,qh13,575.3293624999933,None,571.0853523998521,574.6005086000077,True,5,['p'],True,0.5,0.5,0.0,0.0,1.0,0.6309297535714574,0.0,succ_gain,0,6,,,,qh13,2,2023-02-28_10h31.34.197,threat_forest,2021.2.3,60.05425299180541,
14,0,14,0,1,0,1,0,,,,,,,,,,right,1.3525288999080658,581.2339288000949,qh13,581.2339288000949,None,571.0853523998521,574.6005086000077,False,6,['p'],True,0.5,0.5,0.0,0.0,1.0,0.6309297535714574,0.0,wait_cost,0,5,578.9798071999103,None,6,qh13,2,2023-02-28_10h31.34.197,threat_forest,2021.2.3,60.05425299180541,
14,0,14,0,2,0,2,0,,,,,,,,,,right,1.4685068996623158,585.2777307000943,qh13,585.2777307000943,None,571.0853523998521,574.6005086000077,False,5,['p'],True,0.5,0.5,0.0,0.0,1.0,0.6309297535714574,0.0,wait_cost,0,4,584.6246949001215,None,5,qh13,2,2023-02-28_10h31.34.197,threat_forest,2021.2.3,60.05425299180541,
14,0,14,0,3,0,3,0,,,,,,,,,,right,1.0924434000626206,590.043013300281,qh13,586.7731439000927,588.7872899002396,590.043013300281,None,True,4,['p'],False,0.36,0.6,0.4,2.0,1.0,0.9801625908629508,0.0,succ_gain,1,5,588.7872899002396,None,4,qh13,2,2023-02-28_10h31.34.197,threat_forest,2021.2.3,60.05425299180541,
14,0,14,0,4,0,4,0,,,,,,,,,,right,1.2533694002777338,596.3263660999946,qh13,596.3263660999946,None,591.1521124001592,593.1666212999262,False,5,['p'],True,0.5,0.5,0.0,0.0,1.0,0.6309297535714574,0.0,wait_cost,0,4,593.1666212999262,None,5,qh13,2,2023-02-28_10h31.34.197,threat_forest,2021.2.3,60.05425299180541,
14,0,14,0,5,0,5,0,,,,,,,,,,right,1.0545490998774767,601.313215199858,qh13,601.313215199858,None,591.1521124001592,593.1666212999262,False,4,['p'],True,0.5,0.5,0.0,0.0,1.0,0.6309297535714574,0.0,wait_cost,0,3,599.6106940000318,None,4,qh13,2,2023-02-28_10h31.34.197,threat_forest,2021.2.3,60.05425299180541,
14,0,14,0,6,0,6,0,,,,,,,,,,left,1.4065561001189053,604.966233999934,qh13,602.3916871002875,604.4569064001553,604.966233999934,None,False,3,['p'],False,0.36,0.6,0.4,2.0,1.0,0.9801625908629508,-0.4,wait_cost,1,2,604.4569064001553,None,3,qh13,2,2023-02-28_10h31.34.197,threat_forest,2021.2.3,60.05425299180541,
14,0,14,0,7,0,7,0,,,,,,,,,,left,1.115924600046128,611.0334809999913,qh13,602.3916871002875,604.4569064001553,611.0334809999913,None,False,2,['p'],False,0.36,0.6,0.4,2.0,1.0,0.9801625908629508,-0.64,wait_cost,1,1,608.4189399001189,None,2,qh13,2,2023-02-28_10h31.34.197,threat_forest,2021.2.3,60.05425299180541,
14,0,14,0,,,,,,,,,,,,,,,,,,,,,,,,,,,,,,,,,,,,614.1801926000044,None,1,qh13,2,2023-02-28_10h31.34.197,threat_forest,2021.2.3,60.05425299180541,
15,0,15,0,0,0,0,0,,,,,,,617.1476277001202,620.6430203001946,None,right,1.2499545002356172,624.4491555001587,qh13,617.1476277001202,620.6430203001946,624.4491555001587,None,True,4,['p'],False,0.4081632653061224,0.5714285714285714,0.2857142857142857,2.0,1.0,0.9885754083994552,0.0,succ_gain,1,5,,,,qh13,2,2023-02-28_10h31.34.197,threat_forest,2021.2.3,60.05425299180541,
15,0,15,0,1,0,1,0,,,,,,,,,,right,2.1013333001174033,628.5202490999363,qh13,617.1476277001202,620.6430203001946,628.5202490999363,None,True,5,['p'],False,0.4081632653061224,0.5714285714285714,0.2857142857142857,2.0,1.0,0.9885754083994552,0.0,unsucc_cost,1,3,627.7342638000846,None,5,qh13,2,2023-02-28_10h31.34.197,threat_forest,2021.2.3,60.05425299180541,
15,0,15,0,2,0,2,0,,,,,,,,,,right,1.0474441000260413,635.9040314001031,qh13,635.9040314001031,None,630.6486547999084,632.6628661998548,False,3,['p'],True,0.5,0.5,0.0,0.0,1.0,0.6309297535714574,0.0,wait_cost,0,2,632.6628661998548,None,3,qh13,2,2023-02-28_10h31.34.197,threat_forest,2021.2.3,60.05425299180541,
15,0,15,0,3,0,3,0,,,,,,,,,,right,1.0184826999902725,642.5398687999696,qh13,642.5398687999696,None,630.6486547999084,632.6628661998548,False,2,['p'],True,0.5,0.5,0.0,0.0,1.0,0.6309297535714574,-0.5,wait_cost,0,1,638.9902741000988,None,2,qh13,2,2023-02-28_10h31.34.197,threat_forest,2021.2.3,60.05425299180541,
15,0,15,0,4,0,4,0,,,,,,,,,,right,0.7778953998349607,648.9346465002745,qh13,643.5865839002654,645.6008683000691,648.9346465002745,None,True,1,['p'],False,0.4081632653061224,0.5714285714285714,0.2857142857142857,2.0,1.0,0.9885754083994552,0.4081632653061224,unsucc_cost,1,0,645.6008683000691,None,1,qh13,2,2023-02-28_10h31.34.197,threat_forest,2021.2.3,60.05425299180541,
15,0,15,0,,,,,,,,,,,,,,,,,,,,,,,,,,,,,,,,,,,,651.7452036999166,None,0,qh13,2,2023-02-28_10h31.34.197,threat_forest,2021.2.3,60.05425299180541,
16,0,16,0,0,0,0,0,,,,,,,652.5100123002194,656.0100521002896,None,left,1.7575240000151098,658.4524524002336,qh13,652.5100123002194,656.0100521002896,658.4524524002336,None,False,5,['p'],False,0.2222222222222222,0.2222222222222222,0.0,0.0,1.0,0.4821593609696809,0.0,wait_cost,1,4,,,,qh13,2,2023-02-28_10h31.34.197,threat_forest,2021.2.3,60.05425299180541,
16,0,16,0,1,0,1,0,,,,,,,,,,left,1.9471347001381218,665.8381213000976,qh13,652.5100123002194,656.0100521002896,665.8381213000976,None,False,4,['p'],False,0.2222222222222222,0.2222222222222222,0.0,0.0,1.0,0.4821593609696809,0.0,wait_cost,1,3,662.2520427000709,None,4,qh13,2,2023-02-28_10h31.34.197,threat_forest,2021.2.3,60.05425299180541,
16,0,16,0,2,0,2,0,,,,,,,,,,left,1.1892291000112891,673.512839099858,qh13,652.5100123002194,656.0100521002896,673.512839099858,None,False,3,['p'],False,0.2222222222222222,0.2222222222222222,0.0,0.0,1.0,0.4821593609696809,0.0,wait_cost,1,2,669.8283998002298,None,3,qh13,2,2023-02-28_10h31.34.197,threat_forest,2021.2.3,60.05425299180541,
16,0,16,0,3,0,3,0,,,,,,,,,,left,1.1545532001182437,679.7973617999814,qh13,652.5100123002194,656.0100521002896,679.7973617999814,None,False,2,['p'],False,0.2222222222222222,0.2222222222222222,0.0,0.0,1.0,0.4821593609696809,-0.7777777777777778,wait_cost,1,1,676.7384533998556,None,2,qh13,2,2023-02-28_10h31.34.197,threat_forest,2021.2.3,60.05425299180541,
16,0,16,0,4,0,4,0,,,,,,,,,,right,0.8431944004260004,684.4315734002739,qh13,652.5100123002194,656.0100521002896,684.4315734002739,None,True,1,['p'],False,0.2222222222222222,0.2222222222222222,0.0,0.0,1.0,0.4821593609696809,0.2222222222222222,unsucc_cost,1,0,682.9826576001942,None,1,qh13,2,2023-02-28_10h31.34.197,threat_forest,2021.2.3,60.05425299180541,
16,0,16,0,,,,,,,,,,,,,,,,,,,,,,,,,,,,,,,,,,,,687.3119204998948,None,0,qh13,2,2023-02-28_10h31.34.197,threat_forest,2021.2.3,60.05425299180541,
17,0,17,0,0,0,0,0,,,,,,,689.9049857002683,693.4061211999506,None,left,0.940268499776721,697.1617359002121,qh13,697.1617359002121,None,689.9049857002683,693.4061211999506,True,4,['r'],True,0.5,0.5,0.0,0.0,2.0,0.6309297535714574,0.0,unsucc_cost,0,2,,,,qh13,2,2023-02-28_10h31.34.197,threat_forest,2021.2.3,60.05425299180541,
17,0,17,0,1,0,1,0,,,,,,,,,,left,2.1126485001295805,703.0561708998866,qh13,698.1185981999151,700.1332628000528,703.0561708998866,None,False,2,['r'],False,0.4081632653061224,0.5714285714285714,0.2857142857142857,2.0,2.0,0.9885754083994552,-0.5918367346938775,wait_cost,1,1,700.1332628000528,None,2,qh13,2,2023-02-28_10h31.34.197,threat_forest,2021.2.3,60.05425299180541,
17,0,17,0,2,0,2,0,,,,,,,,,,right,1.8659720001742244,709.6263890000992,qh13,698.1185981999151,700.1332628000528,709.6263890000992,None,True,1,['r'],False,0.4081632653061224,0.5714285714285714,0.2857142857142857,2.0,2.0,0.9885754083994552,0.4081632653061224,succ_gain,1,3,707.2099671000615,None,1,qh13,2,2023-02-28_10h31.34.197,threat_forest,2021.2.3,60.05425299180541,
17,0,17,0,3,0,3,0,,,,,,,,,,left,1.708794599864632,717.2889117999002,qh13,698.1185981999151,700.1332628000528,717.2889117999002,None,False,3,['r'],False,0.4081632653061224,0.5714285714285714,0.2857142857142857,2.0,2.0,0.9885754083994552,-0.2857142857142857,wait_cost,1,2,713.5372879998758,None,3,qh13,2,2023-02-28_10h31.34.197,threat_forest,2021.2.3,60.05425299180541,
17,0,17,0,4,0,4,0,,,,,,,,,,left,1.5634977002628148,723.9822205998935,qh13,698.1185981999151,700.1332628000528,723.9822205998935,None,False,2,['r'],False,0.4081632653061224,0.5714285714285714,0.2857142857142857,2.0,2.0,0.9885754083994552,-0.5918367346938775,wait_cost,1,1,721.0302570001222,None,2,qh13,2,2023-02-28_10h31.34.197,threat_forest,2021.2.3,60.05425299180541,
17,0,17,0,5,0,5,0,,,,,,,,,,right,2.595311400014907,728.4261607001536,qh13,698.1185981999151,700.1332628000528,728.4261607001536,None,True,1,['r'],False,0.4081632653061224,0.5714285714285714,0.2857142857142857,2.0,2.0,0.9885754083994552,0.4081632653061224,unsucc_cost,1,0,727.5908754002303,None,1,qh13,2,2023-02-28_10h31.34.197,threat_forest,2021.2.3,60.05425299180541,
17,0,17,0,,,,,,,,,,,,,,,,,,,,,,,,,,,,,,,,,,,,733.0525561003014,None,0,qh13,2,2023-02-28_10h31.34.197,threat_forest,2021.2.3,60.05425299180541,
