miniblock.thisRepN,miniblock.thisTrialN,miniblock.thisN,miniblock.thisIndex,day.thisRepN,day.thisTrialN,day.thisN,day.thisIndex,welcoming.started,welcoming.stopped,key_resp_2.keys,key_resp_2.rt,key_resp_2.started,key_resp_2.stopped,forest.started,fixation_forest.started,fixation_forest.stopped,key_resp.keys,key_resp.rt,key_resp.started,Subject_ID,weather_left.started,weather_left.stopped,weather_right.started,weather_right.stopped,foraging T/F,in_LP,p/r heuristic,good_weather.T/F,p_succ_correct,p_succ_uncorrected,r_threat,n_oponents,gain_if_succ,weather_entropy,OP_value_difference,action_outcome,forest_side_L=0_R=1,out_LP,fixation_day.started,fixation_day.stopped,n_day-1.out_LP.,participant,session,date,expName,psychopyVersion,frameRate,
,,,,,,,,10.071349000005284,None,space,1.8377260999986902,10.071349000005284,None,,,,,,,,,,,,,,,,,,,,,,,,,,,,,xm15,3,2023-03-20_11h53.23.756,threat_forest,2021.2.3,60.001392028924535,
0,0,0,0,0,0,0,0,,,,,,,11.965304599987576,15.478404099994805,None,left,0.7294070000061765,16.25713499999256,xm15,16.25713499999256,None,11.965304599987576,15.478404099994805,True,5,['p'],True,0.5,0.5,0.0,0.0,2.0,0.6309297535714574,0.0,succ_gain,0,6,,,,xm15,3,2023-03-20_11h53.23.756,threat_forest,2021.2.3,60.001392028924535,
0,0,0,0,1,0,1,0,,,,,,,,,,right,2.1337727999780327,21.739400899998145,xm15,21.739400899998145,None,11.965304599987576,15.478404099994805,False,6,['p'],True,0.5,0.5,0.0,0.0,2.0,0.6309297535714574,0.0,wait_cost,0,5,19.0250667000073,None,6,xm15,3,2023-03-20_11h53.23.756,threat_forest,2021.2.3,60.001392028924535,
0,0,0,0,2,0,2,0,,,,,,,,,,left,1.2851874000043608,28.632990099984454,xm15,23.904027499986114,25.918603700003587,28.632990099984454,None,False,5,['p'],False,0.2222222222222222,0.6666666666666666,0.6666666666666666,2.0,2.0,0.77250688571426,0.0,wait_cost,1,4,25.918603700003587,None,5,xm15,3,2023-03-20_11h53.23.756,threat_forest,2021.2.3,60.001392028924535,
0,0,0,0,3,0,3,0,,,,,,,,,,left,1.0438421000144444,32.963000699994154,xm15,23.904027499986114,25.918603700003587,32.963000699994154,None,False,4,['p'],False,0.2222222222222222,0.6666666666666666,0.6666666666666666,2.0,2.0,0.77250688571426,0.0,wait_cost,1,3,31.963003799988655,None,4,xm15,3,2023-03-20_11h53.23.756,threat_forest,2021.2.3,60.001392028924535,
0,0,0,0,4,0,4,0,,,,,,,,,,left,1.3482225999759976,38.27422389999265,xm15,38.27422389999265,None,34.02798809998785,36.04251989998738,True,3,['p'],True,0.5,0.5,0.0,0.0,2.0,0.6309297535714574,0.0,unsucc_cost,0,1,36.04251989998738,None,3,xm15,3,2023-03-20_11h53.23.756,threat_forest,2021.2.3,60.001392028924535,
0,0,0,0,5,0,5,0,,,,,,,,,,right,2.03373689998989,43.70295720000286,xm15,39.63937849999638,41.65383749999455,43.70295720000286,None,True,1,['p'],False,0.2222222222222222,0.6666666666666666,0.6666666666666666,2.0,2.0,0.77250688571426,0.2222222222222222,succ_gain,1,3,41.65383749999455,None,1,xm15,3,2023-03-20_11h53.23.756,threat_forest,2021.2.3,60.001392028924535,
0,0,0,0,6,0,6,0,,,,,,,,,,right,1.3990350000094622,50.0480195999844,xm15,50.0480195999844,None,45.766960499982815,47.78145189999486,False,3,['p'],True,0.5,0.5,0.0,0.0,2.0,0.6309297535714574,0.0,wait_cost,0,2,47.78145189999486,None,3,xm15,3,2023-03-20_11h53.23.756,threat_forest,2021.2.3,60.001392028924535,
0,0,0,0,7,0,7,0,,,,,,,,,,right,1.2606017999933101,56.39033999998355,xm15,56.39033999998355,None,45.766960499982815,47.78145189999486,False,2,['p'],True,0.5,0.5,0.0,0.0,2.0,0.6309297535714574,-0.5,wait_cost,0,1,53.492938799987314,None,2,xm15,3,2023-03-20_11h53.23.756,threat_forest,2021.2.3,60.001392028924535,
0,0,0,0,,,,,,,,,,,,,,,,,,,,,,,,,,,,,,,,,,,,59.687801399995806,None,1,xm15,3,2023-03-20_11h53.23.756,threat_forest,2021.2.3,60.001392028924535,
1,0,1,0,0,0,0,0,,,,,,,63.0998830999888,66.59728980000364,None,left,1.7634938999835867,68.43028989998857,xm15,63.0998830999888,66.59728980000364,68.43028989998857,None,False,5,['r'],False,0.2,0.2,0.0,0.0,1.0,0.4554859150035951,0.0,wait_cost,1,4,,,,xm15,3,2023-03-20_11h53.23.756,threat_forest,2021.2.3,60.001392028924535,
1,0,1,0,1,0,1,0,,,,,,,,,,right,0.9975558999867644,73.8940195000032,xm15,73.8940195000032,None,70.21088130000862,72.22539310000138,False,4,['r'],True,0.375,0.5,0.25,1.0,1.0,0.9850568223215076,0.0,wait_cost,0,3,72.22539310000138,None,4,xm15,3,2023-03-20_11h53.23.756,threat_forest,2021.2.3,60.001392028924535,
1,0,1,0,2,0,2,0,,,,,,,,,,right,1.2933112000173423,77.73728519998258,xm15,77.73728519998258,None,70.21088130000862,72.22539310000138,False,3,['r'],True,0.375,0.5,0.25,1.0,1.0,0.9850568223215076,-0.25,wait_cost,0,2,76.93750159998308,None,3,xm15,3,2023-03-20_11h53.23.756,threat_forest,2021.2.3,60.001392028924535,
1,0,1,0,3,0,3,0,,,,,,,,,,right,1.931636499997694,83.5319588999846,xm15,83.5319588999846,None,70.21088130000862,72.22539310000138,False,2,['r'],True,0.375,0.5,0.25,1.0,1.0,0.9850568223215076,-0.625,wait_cost,0,1,81.06701549998252,None,2,xm15,3,2023-03-20_11h53.23.756,threat_forest,2021.2.3,60.001392028924535,
1,0,1,0,4,0,4,0,,,,,,,,,,right,1.2580813000095077,89.6759996000037,xm15,85.48003390000667,87.49438560000272,89.6759996000037,None,True,1,['r'],False,0.2,0.2,0.0,0.0,1.0,0.4554859150035951,0.1999999999999999,unsucc_cost,1,0,87.49438560000272,None,1,xm15,3,2023-03-20_11h53.23.756,threat_forest,2021.2.3,60.001392028924535,
1,0,1,0,,,,,,,,,,,,,,,,,,,,,,,,,,,,,,,,,,,,92.97273340000538,None,0,xm15,3,2023-03-20_11h53.23.756,threat_forest,2021.2.3,60.001392028924535,
2,0,2,0,0,0,0,0,,,,,,,94.18519590000506,97.68950829998357,None,left,1.347271800012095,98.37133339999127,xm15,94.18519590000506,97.68950829998357,98.37133339999127,None,False,4,['r'],False,0.16,0.2,0.2,2.0,2.0,0.8198746470064713,0.0,wait_cost,1,3,,,,xm15,3,2023-03-20_11h53.23.756,threat_forest,2021.2.3,60.001392028924535,
2,0,2,0,1,0,1,0,,,,,,,,,,left,0.9857915000175126,103.91290480000316,xm15,94.18519590000506,97.68950829998357,103.91290480000316,None,False,3,['r'],False,0.16,0.2,0.2,2.0,2.0,0.8198746470064713,-0.2,wait_cost,1,2,101.76436979998834,None,3,xm15,3,2023-03-20_11h53.23.756,threat_forest,2021.2.3,60.001392028924535,
2,0,2,0,2,0,2,0,,,,,,,,,,left,0.8476867999997921,108.07562789999065,xm15,94.18519590000506,97.68950829998357,108.07562789999065,None,False,2,['r'],False,0.16,0.2,0.2,2.0,2.0,0.8198746470064713,-0.8400000000000001,wait_cost,1,1,106.94293859999743,None,2,xm15,3,2023-03-20_11h53.23.756,threat_forest,2021.2.3,60.001392028924535,
2,0,2,0,3,0,3,0,,,,,,,,,,right,1.5157119999930728,114.36985670001013,xm15,94.18519590000506,97.68950829998357,114.36985670001013,None,True,1,['r'],False,0.16,0.2,0.2,2.0,2.0,0.8198746470064713,0.1599999999999999,unsucc_cost,1,0,110.95584589999635,None,1,xm15,3,2023-03-20_11h53.23.756,threat_forest,2021.2.3,60.001392028924535,
2,0,2,0,,,,,,,,,,,,,,,,,,,,,,,,,,,,,,,,,,,,117.91721919999691,None,0,xm15,3,2023-03-20_11h53.23.756,threat_forest,2021.2.3,60.001392028924535,
3,0,3,0,0,0,0,0,,,,,,,121.1537946999888,124.6597904000082,None,left,1.1068369999993593,128.24449769998319,xm15,121.1537946999888,124.6597904000082,128.24449769998319,None,False,5,['r'],False,0.1975308641975308,0.2222222222222222,0.1111111111111111,1.0,1.0,0.7461067557824965,0.0,wait_cost,1,4,,,,xm15,3,2023-03-20_11h53.23.756,threat_forest,2021.2.3,60.001392028924535,
3,0,3,0,1,0,1,0,,,,,,,,,,left,0.8077816999866627,134.76747269998305,xm15,121.1537946999888,124.6597904000082,134.76747269998305,None,False,4,['r'],False,0.1975308641975308,0.2222222222222222,0.1111111111111111,1.0,1.0,0.7461067557824965,0.0,wait_cost,1,3,131.38683730000048,None,4,xm15,3,2023-03-20_11h53.23.756,threat_forest,2021.2.3,60.001392028924535,
3,0,3,0,2,0,2,0,,,,,,,,,,None,,141.3611627999926,xm15,121.1537946999888,124.6597904000082,141.3611627999926,None,None,3,['r'],False,0.1975308641975308,0.2222222222222222,0.1111111111111111,1.0,1.0,0.7461067557824965,-0.1111111111111111,wait_cost,1,2,137.61432900000364,None,3,xm15,3,2023-03-20_11h53.23.756,threat_forest,2021.2.3,60.001392028924535,
3,0,3,0,3,0,3,0,,,,,,,,,,left,1.2144184999924619,149.33717489999253,xm15,121.1537946999888,124.6597904000082,149.33717489999253,None,False,2,['r'],False,0.1975308641975308,0.2222222222222222,0.1111111111111111,1.0,1.0,0.7461067557824965,-0.8024691358024691,wait_cost,1,1,146.38934580000932,None,2,xm15,3,2023-03-20_11h53.23.756,threat_forest,2021.2.3,60.001392028924535,
3,0,3,0,4,0,4,0,,,,,,,,,,right,0.7065251999883913,156.39786739999545,xm15,121.1537946999888,124.6597904000082,156.39786739999545,None,True,1,['r'],False,0.1975308641975308,0.2222222222222222,0.1111111111111111,1.0,1.0,0.7461067557824965,0.1975308641975308,unsucc_cost,1,0,152.583698500006,None,1,xm15,3,2023-03-20_11h53.23.756,threat_forest,2021.2.3,60.001392028924535,
3,0,3,0,,,,,,,,,,,,,,,,,,,,,,,,,,,,,,,,,,,,159.14569619999384,None,0,xm15,3,2023-03-20_11h53.23.756,threat_forest,2021.2.3,60.001392028924535,
4,0,4,0,0,0,0,0,,,,,,,162.8182228000078,166.32088409998687,None,left,0.6087764000112657,169.95170740000322,xm15,169.95170740000322,None,162.8182228000078,166.32088409998687,True,5,['p'],True,0.375,0.5,0.25,1.0,2.0,0.9850568223215076,0.0,unsucc_cost,0,3,,,,xm15,3,2023-03-20_11h53.23.756,threat_forest,2021.2.3,60.001392028924535,
4,0,4,0,1,0,1,0,,,,,,,,,,right,1.9572368999943137,175.51445149999927,xm15,170.5839055000106,172.59827879999648,175.51445149999927,None,True,3,['p'],False,0.2592592592592592,0.3333333333333333,0.2222222222222222,2.0,2.0,0.9327883776363324,-0.2222222222222222,unsucc_cost,1,1,172.59827879999648,None,3,xm15,3,2023-03-20_11h53.23.756,threat_forest,2021.2.3,60.001392028924535,
4,0,4,0,2,0,2,0,,,,,,,,,,right,0.8159244999988005,180.29151009998168,xm15,170.5839055000106,172.59827879999648,180.29151009998168,None,True,1,['p'],False,0.2592592592592592,0.3333333333333333,0.2222222222222222,2.0,2.0,0.9327883776363324,0.2592592592592592,unsucc_cost,1,0,179.50843620000524,None,1,xm15,3,2023-03-20_11h53.23.756,threat_forest,2021.2.3,60.001392028924535,
4,0,4,0,,,,,,,,,,,,,,,,,,,,,,,,,,,,,,,,,,,,183.1384291999857,None,0,xm15,3,2023-03-20_11h53.23.756,threat_forest,2021.2.3,60.001392028924535,
5,0,5,0,0,0,0,0,,,,,,,185.9629219000053,189.4658628999896,None,left,1.8858110000146553,190.781808300002,xm15,190.781808300002,None,185.9629219000053,189.4658628999896,True,4,['r'],True,0.3333333333333333,0.3333333333333333,0.0,0.0,2.0,0.5793801642856949,0.0,succ_gain,0,6,,,,xm15,3,2023-03-20_11h53.23.756,threat_forest,2021.2.3,60.001392028924535,
5,0,5,0,1,0,1,0,,,,,,,,,,left,0.9922284999920521,197.38071329999366,xm15,192.69657090000692,194.71094540000195,197.38071329999366,None,False,6,['r'],False,0.28125,0.375,0.25,2.0,2.0,0.9634951148421658,0.0,wait_cost,1,5,194.71094540000195,None,6,xm15,3,2023-03-20_11h53.23.756,threat_forest,2021.2.3,60.001392028924535,
5,0,5,0,2,0,2,0,,,,,,,,,,right,2.2108400000142865,201.4883705000102,xm15,201.4883705000102,None,198.3912733999896,200.40572670000256,False,5,['r'],True,0.3333333333333333,0.3333333333333333,0.0,0.0,2.0,0.5793801642856949,0.0,wait_cost,0,4,200.40572670000256,None,5,xm15,3,2023-03-20_11h53.23.756,threat_forest,2021.2.3,60.001392028924535,
5,0,5,0,3,0,3,0,,,,,,,,,,left,0.868593699997291,207.09982219999074,xm15,207.09982219999074,None,198.3912733999896,200.40572670000256,True,4,['r'],True,0.3333333333333333,0.3333333333333333,0.0,0.0,2.0,0.5793801642856949,0.0,unsucc_cost,0,2,205.73402219999116,None,4,xm15,3,2023-03-20_11h53.23.756,threat_forest,2021.2.3,60.001392028924535,
5,0,5,0,4,0,4,0,,,,,,,,,,left,0.7349110000068322,210.6798179000034,xm15,210.6798179000034,None,198.3912733999896,200.40572670000256,True,2,['r'],True,0.3333333333333333,0.3333333333333333,0.0,0.0,2.0,0.5793801642856949,-0.6666666666666667,unsucc_cost,0,0,210.01337830000557,None,2,xm15,3,2023-03-20_11h53.23.756,threat_forest,2021.2.3,60.001392028924535,
5,0,5,0,,,,,,,,,,,,,,,,,,,,,,,,,,,,,,,,,,,,213.4602722999989,None,0,xm15,3,2023-03-20_11h53.23.756,threat_forest,2021.2.3,60.001392028924535,
6,0,6,0,0,0,0,0,,,,,,,216.50515310000628,220.00905679998687,None,left,0.9421996000164654,221.07036509999307,xm15,221.07036509999307,None,216.50515310000628,220.00905679998687,True,4,['p'],True,0.5714285714285714,0.5714285714285714,0.0,0.0,2.0,0.6216097450797566,0.0,unsucc_cost,0,2,,,,xm15,3,2023-03-20_11h53.23.756,threat_forest,2021.2.3,60.001392028924535,
6,0,6,0,1,0,1,0,,,,,,,,,,None,,227.58187930000713,xm15,222.03667979998863,224.0501799999911,227.58187930000713,None,None,2,['p'],False,0.46875,0.625,0.25,2.0,2.0,0.9634951148421658,-0.53125,wait_cost,1,1,224.0501799999911,None,2,xm15,3,2023-03-20_11h53.23.756,threat_forest,2021.2.3,60.001392028924535,
6,0,6,0,2,0,2,0,,,,,,,,,,right,1.6749722000095062,235.87292659998639,xm15,222.03667979998863,224.0501799999911,235.87292659998639,None,True,1,['p'],False,0.46875,0.625,0.25,2.0,2.0,0.9634951148421658,0.46875,succ_gain,1,3,232.6090528999921,None,1,xm15,3,2023-03-20_11h53.23.756,threat_forest,2021.2.3,60.001392028924535,
6,0,6,0,3,0,3,0,,,,,,,,,,right,1.3511152999999467,241.76747210000758,xm15,222.03667979998863,224.0501799999911,241.76747210000758,None,True,3,['p'],False,0.46875,0.625,0.25,2.0,2.0,0.9634951148421658,-0.25,succ_gain,1,5,239.58577199999127,None,3,xm15,3,2023-03-20_11h53.23.756,threat_forest,2021.2.3,60.001392028924535,
6,0,6,0,4,0,4,0,,,,,,,,,,left,1.4568892999959644,248.89415629999712,xm15,222.03667979998863,224.0501799999911,248.89415629999712,None,False,5,['p'],False,0.46875,0.625,0.25,2.0,2.0,0.9634951148421658,0.0,wait_cost,1,4,245.16393499998958,None,5,xm15,3,2023-03-20_11h53.23.756,threat_forest,2021.2.3,60.001392028924535,
6,0,6,0,5,0,5,0,,,,,,,,,,left,0.6347936000092886,254.92198539999663,xm15,222.03667979998863,224.0501799999911,254.92198539999663,None,False,4,['p'],False,0.46875,0.625,0.25,2.0,2.0,0.9634951148421658,0.0,wait_cost,1,3,252.39042049998534,None,4,xm15,3,2023-03-20_11h53.23.756,threat_forest,2021.2.3,60.001392028924535,
6,0,6,0,6,0,6,0,,,,,,,,,,right,0.6162995000195224,260.2169988999958,xm15,260.2169988999958,None,255.5878667999932,257.60224569999264,False,3,['p'],True,0.5714285714285714,0.5714285714285714,0.0,0.0,2.0,0.6216097450797566,0.0,wait_cost,0,2,257.60224569999264,None,3,xm15,3,2023-03-20_11h53.23.756,threat_forest,2021.2.3,60.001392028924535,
6,0,6,0,7,0,7,0,,,,,,,,,,right,0.6940998999925796,264.7127012999845,xm15,264.7127012999845,None,255.5878667999932,257.60224569999264,False,2,['p'],True,0.5714285714285714,0.5714285714285714,0.0,0.0,2.0,0.6216097450797566,-0.4285714285714286,wait_cost,0,1,262.8640236000065,None,2,xm15,3,2023-03-20_11h53.23.756,threat_forest,2021.2.3,60.001392028924535,
6,0,6,0,,,,,,,,,,,,,,,,,,,,,,,,,,,,,,,,,,,,267.4431360999879,None,1,xm15,3,2023-03-20_11h53.23.756,threat_forest,2021.2.3,60.001392028924535,
7,0,7,0,0,0,0,0,,,,,,,271.17099929999677,274.6741603999981,None,right,2.4154612999991514,278.3523411999922,xm15,278.3523411999922,None,271.17099929999677,274.6741603999981,False,5,['r'],True,0.625,0.625,0.0,0.0,2.0,0.6021808102656677,0.0,wait_cost,0,4,,,,xm15,3,2023-03-20_11h53.23.756,threat_forest,2021.2.3,60.001392028924535,
7,0,7,0,1,0,1,0,,,,,,,,,,right,2.2573308999999426,285.42763829999603,xm15,285.42763829999603,None,271.17099929999677,274.6741603999981,False,4,['r'],True,0.625,0.625,0.0,0.0,2.0,0.6021808102656677,0.0,wait_cost,0,3,282.8120498000062,None,4,xm15,3,2023-03-20_11h53.23.756,threat_forest,2021.2.3,60.001392028924535,
7,0,7,0,2,0,2,0,,,,,,,,,,right,0.6563087000104133,291.1731535999861,xm15,287.7079225000052,289.72224629999255,291.1731535999861,None,True,3,['r'],False,0.5185185185185185,0.6666666666666666,0.2222222222222222,2.0,2.0,0.9327883776363328,-0.2222222222222222,succ_gain,1,5,289.72224629999255,None,3,xm15,3,2023-03-20_11h53.23.756,threat_forest,2021.2.3,60.001392028924535,
7,0,7,0,3,0,3,0,,,,,,,,,,right,2.0050923000089824,296.0037163000088,xm15,296.0037163000088,None,291.8540859000059,293.86841609998373,False,5,['r'],True,0.625,0.625,0.0,0.0,2.0,0.6021808102656677,0.0,wait_cost,0,4,293.86841609998373,None,5,xm15,3,2023-03-20_11h53.23.756,threat_forest,2021.2.3,60.001392028924535,
7,0,7,0,4,0,4,0,,,,,,,,,,None,,301.1622888999991,xm15,301.1622888999991,None,291.8540859000059,293.86841609998373,None,4,['r'],True,0.625,0.625,0.0,0.0,2.0,0.6021808102656677,0.0,wait_cost,0,3,300.0459363999835,None,4,xm15,3,2023-03-20_11h53.23.756,threat_forest,2021.2.3,60.001392028924535,
7,0,7,0,5,0,5,0,,,,,,,,,,right,0.7399699999950826,307.75673789999564,xm15,304.1758792999899,306.1903394999972,307.75673789999564,None,True,3,['r'],False,0.5185185185185185,0.6666666666666666,0.2222222222222222,2.0,2.0,0.9327883776363328,-0.2222222222222222,succ_gain,1,5,306.1903394999972,None,3,xm15,3,2023-03-20_11h53.23.756,threat_forest,2021.2.3,60.001392028924535,
7,0,7,0,6,0,6,0,,,,,,,,,,right,0.8861383000039496,313.0216706999927,xm15,313.0216706999927,None,308.52184050000506,310.53625390000525,False,5,['r'],True,0.625,0.625,0.0,0.0,2.0,0.6021808102656677,0.0,wait_cost,0,4,310.53625390000525,None,5,xm15,3,2023-03-20_11h53.23.756,threat_forest,2021.2.3,60.001392028924535,
7,0,7,0,7,0,7,0,,,,,,,,,,left,0.6284050999965984,316.80037290000473,xm15,313.93361249999725,315.9477443000069,316.80037290000473,None,False,4,['r'],False,0.5185185185185185,0.6666666666666666,0.2222222222222222,2.0,2.0,0.9327883776363328,0.0,wait_cost,1,3,315.9477443000069,None,4,xm15,3,2023-03-20_11h53.23.756,threat_forest,2021.2.3,60.001392028924535,
7,0,7,0,,,,,,,,,,,,,,,,,,,,,,,,,,,,,,,,,,,,319.4612283000024,None,3,xm15,3,2023-03-20_11h53.23.756,threat_forest,2021.2.3,60.001392028924535,
8,0,8,0,0,0,0,0,,,,,,,322.9678258000058,326.47136090000276,None,left,1.0729141000192612,329.47249489999376,xm15,322.9678258000058,326.47136090000276,329.47249489999376,None,False,5,['r'],False,0.2592592592592592,0.3333333333333333,0.2222222222222222,2.0,2.0,0.9327883776363324,0.0,wait_cost,1,4,,,,xm15,3,2023-03-20_11h53.23.756,threat_forest,2021.2.3,60.001392028924535,
8,0,8,0,1,0,1,0,,,,,,,,,,left,1.1033960999920964,335.2972024999908,xm15,322.9678258000058,326.47136090000276,335.2972024999908,None,False,4,['r'],False,0.2592592592592592,0.3333333333333333,0.2222222222222222,2.0,2.0,0.9327883776363324,0.0,wait_cost,1,3,332.58232190000126,None,4,xm15,3,2023-03-20_11h53.23.756,threat_forest,2021.2.3,60.001392028924535,
8,0,8,0,2,0,2,0,,,,,,,,,,left,1.1375487000041176,340.1255913999921,xm15,340.1255913999921,None,336.4290815999848,338.44342679998954,True,3,['r'],True,0.4444444444444445,0.6666666666666666,0.3333333333333333,1.0,2.0,0.9656336071428248,-0.3333333333333333,fight_cost,0,0,338.44342679998954,None,3,xm15,3,2023-03-20_11h53.23.756,threat_forest,2021.2.3,60.001392028924535,
8,0,8,0,,,,,,,,,,,,,,,,,,,,,,,,,,,,,,,,,,,,343.30574660000275,None,0,xm15,3,2023-03-20_11h53.23.756,threat_forest,2021.2.3,60.001392028924535,
9,0,9,0,0,0,0,0,,,,,,,345.8660537999822,349.3666956000088,None,right,1.366404300002614,352.23547600000165,xm15,352.23547600000165,None,345.8660537999822,349.3666956000088,False,5,['r'],True,0.25,0.5,0.5,1.0,2.0,0.9463946303571862,0.0,wait_cost,0,4,,,,xm15,3,2023-03-20_11h53.23.756,threat_forest,2021.2.3,60.001392028924535,
9,0,9,0,1,0,1,0,,,,,,,,,,left,1.0052538000163622,357.20976920000976,xm15,357.20976920000976,None,345.8660537999822,349.3666956000088,True,4,['r'],True,0.25,0.5,0.5,1.0,2.0,0.9463946303571862,0.0,succ_gain,0,6,355.64411950000795,None,4,xm15,3,2023-03-20_11h53.23.756,threat_forest,2021.2.3,60.001392028924535,
9,0,9,0,2,0,2,0,,,,,,,,,,right,1.2797188000113238,362.6056712999998,xm15,362.6056712999998,None,345.8660537999822,349.3666956000088,False,6,['r'],True,0.25,0.5,0.5,1.0,2.0,0.9463946303571862,0.0,wait_cost,0,5,360.25656089998665,None,6,xm15,3,2023-03-20_11h53.23.756,threat_forest,2021.2.3,60.001392028924535,
9,0,9,0,3,0,3,0,,,,,,,,,,right,2.0840010000101756,368.44917509998777,xm15,363.90390119998483,365.9179232000024,368.44917509998777,None,True,5,['r'],False,0.16,0.2,0.2,2.0,2.0,0.8198746470064713,0.0,fight_cost,1,2,365.9179232000024,None,5,xm15,3,2023-03-20_11h53.23.756,threat_forest,2021.2.3,60.001392028924535,
9,0,9,0,4,0,4,0,,,,,,,,,,right,2.4965158000122756,374.3952685999975,xm15,374.3952685999975,None,370.5637685999973,372.57831039998564,False,2,['r'],True,0.25,0.5,0.5,1.0,2.0,0.9463946303571862,-0.75,wait_cost,0,1,372.57831039998564,None,2,xm15,3,2023-03-20_11h53.23.756,threat_forest,2021.2.3,60.001392028924535,
9,0,9,0,5,0,5,0,,,,,,,,,,right,0.6229280999978073,380.5876988999953,xm15,376.92472089998773,378.9389688000083,380.5876988999953,None,True,1,['r'],False,0.16,0.2,0.2,2.0,2.0,0.8198746470064713,0.1599999999999999,fight_cost,1,0,378.9389688000083,None,1,xm15,3,2023-03-20_11h53.23.756,threat_forest,2021.2.3,60.001392028924535,
9,0,9,0,,,,,,,,,,,,,,,,,,,,,,,,,,,,,,,,,,,,383.2517331999843,None,0,xm15,3,2023-03-20_11h53.23.756,threat_forest,2021.2.3,60.001392028924535,
10,0,10,0,0,0,0,0,,,,,,,384.51127909999923,388.0138936000003,None,right,1.5227675000205636,388.9139595000015,xm15,388.9139595000015,None,384.51127909999923,388.0138936000003,False,5,['p'],True,0.375,0.5,0.25,1.0,2.0,0.9850568223215076,0.0,wait_cost,0,4,,,,xm15,3,2023-03-20_11h53.23.756,threat_forest,2021.2.3,60.001392028924535,
10,0,10,0,1,0,1,0,,,,,,,,,,right,1.6408656999992672,396.17689539998537,xm15,390.4620292999898,392.47640220000176,396.17689539998537,None,True,4,['p'],False,0.2,0.2,0.0,0.0,2.0,0.4554859150035951,0.0,unsucc_cost,1,2,392.47640220000176,None,4,xm15,3,2023-03-20_11h53.23.756,threat_forest,2021.2.3,60.001392028924535,
10,0,10,0,2,0,2,0,,,,,,,,,,left,0.7236687999975402,403.38319140000385,xm15,403.38319140000385,None,397.8385205999948,399.8528521999833,True,2,['p'],True,0.375,0.5,0.25,1.0,2.0,0.9850568223215076,-0.625,unsucc_cost,0,0,399.8528521999833,None,2,xm15,3,2023-03-20_11h53.23.756,threat_forest,2021.2.3,60.001392028924535,
10,0,10,0,,,,,,,,,,,,,,,,,,,,,,,,,,,,,,,,,,,,406.147043200006,None,0,xm15,3,2023-03-20_11h53.23.756,threat_forest,2021.2.3,60.001392028924535,
11,0,11,0,0,0,0,0,,,,,,,408.7821363999974,412.2911930999835,None,left,2.508472699992126,414.9057873999991,xm15,408.7821363999974,412.2911930999835,414.9057873999991,None,False,4,['r'],False,0.25,0.5,0.5,2.0,1.0,0.9463946303571862,0.0,wait_cost,1,3,,,,xm15,3,2023-03-20_11h53.23.756,threat_forest,2021.2.3,60.001392028924535,
11,0,11,0,1,0,1,0,,,,,,,,,,right,2.0445937999757007,422.3154968000017,xm15,422.3154968000017,None,417.4370218999975,419.45120429998497,False,3,['r'],True,0.3333333333333333,0.3333333333333333,0.0,0.0,1.0,0.5793801642856949,0.0,wait_cost,0,2,419.45120429998497,None,3,xm15,3,2023-03-20_11h53.23.756,threat_forest,2021.2.3,60.001392028924535,
11,0,11,0,2,0,2,0,,,,,,,,,,left,2.225637600000482,429.7751602999924,xm15,424.3805730000022,426.3947783999902,429.7751602999924,None,False,2,['r'],False,0.25,0.5,0.5,2.0,1.0,0.9463946303571862,-0.75,wait_cost,1,1,426.3947783999902,None,2,xm15,3,2023-03-20_11h53.23.756,threat_forest,2021.2.3,60.001392028924535,
11,0,11,0,3,0,3,0,,,,,,,,,,right,0.5258312000078149,436.5022695999942,xm15,424.3805730000022,426.3947783999902,436.5022695999942,None,True,1,['r'],False,0.25,0.5,0.5,2.0,1.0,0.9463946303571862,0.25,succ_gain,1,2,434.03750919998856,None,1,xm15,3,2023-03-20_11h53.23.756,threat_forest,2021.2.3,60.001392028924535,
11,0,11,0,4,0,4,0,,,,,,,,,,None,,439.7990991999977,xm15,439.7990991999977,None,437.05172489999677,439.0662134999875,None,2,['r'],True,0.3333333333333333,0.3333333333333333,0.0,0.0,1.0,0.5793801642856949,-0.6666666666666667,wait_cost,0,1,439.0662134999875,None,2,xm15,3,2023-03-20_11h53.23.756,threat_forest,2021.2.3,60.001392028924535,
11,0,11,0,5,0,5,0,,,,,,,,,,right,1.7634092999796849,446.3264026999823,xm15,442.81303879999905,444.8275142000057,446.3264026999823,None,True,1,['r'],False,0.25,0.5,0.5,2.0,1.0,0.9463946303571862,0.25,succ_gain,1,2,444.8275142000057,None,1,xm15,3,2023-03-20_11h53.23.756,threat_forest,2021.2.3,60.001392028924535,
11,0,11,0,6,0,6,0,,,,,,,,,,left,2.850643100013258,451.0053676000098,xm15,451.0053676000098,None,448.10809210001025,450.1224668000068,True,2,['r'],True,0.3333333333333333,0.3333333333333333,0.0,0.0,1.0,0.5793801642856949,-0.6666666666666667,unsucc_cost,0,0,450.1224668000068,None,2,xm15,3,2023-03-20_11h53.23.756,threat_forest,2021.2.3,60.001392028924535,
11,0,11,0,,,,,,,,,,,,,,,,,,,,,,,,,,,,,,,,,,,,455.9006122999999,None,0,xm15,3,2023-03-20_11h53.23.756,threat_forest,2021.2.3,60.001392028924535,
12,0,12,0,0,0,0,0,,,,,,,458.35863279999467,461.86162579999655,None,right,0.8982451999909244,462.6121398000105,xm15,458.35863279999467,461.86162579999655,462.6121398000105,None,True,4,['p'],False,0.46875,0.625,0.25,2.0,1.0,0.9634951148421658,0.0,unsucc_cost,1,2,,,,xm15,3,2023-03-20_11h53.23.756,threat_forest,2021.2.3,60.001392028924535,
12,0,12,0,1,0,1,0,,,,,,,,,,left,1.1585360000026412,468.65664669999387,xm15,468.65664669999387,None,463.5271049999865,465.5415182999859,True,2,['p'],True,0.6,0.6,0.0,0.0,1.0,0.6126016192893442,-0.4,unsucc_cost,0,0,465.5415182999859,None,2,xm15,3,2023-03-20_11h53.23.756,threat_forest,2021.2.3,60.001392028924535,
12,0,12,0,,,,,,,,,,,,,,,,,,,,,,,,,,,,,,,,,,,,471.8523847000033,None,0,xm15,3,2023-03-20_11h53.23.756,threat_forest,2021.2.3,60.001392028924535,
13,0,13,0,0,0,0,0,,,,,,,472.8308095999819,476.32389189998503,None,right,1.0016694000223652,479.4652635999955,xm15,479.4652635999955,None,472.8308095999819,476.32389189998503,False,5,['p'],True,0.2777777777777778,0.3333333333333333,0.1666666666666666,1.0,2.0,0.8929352898779304,0.0,wait_cost,0,4,,,,xm15,3,2023-03-20_11h53.23.756,threat_forest,2021.2.3,60.001392028924535,
13,0,13,0,1,0,1,0,,,,,,,,,,right,1.0587560000130907,486.1061999000085,xm15,486.1061999000085,None,472.8308095999819,476.32389189998503,False,4,['p'],True,0.2777777777777778,0.3333333333333333,0.1666666666666666,1.0,2.0,0.8929352898779304,0.0,wait_cost,0,3,482.49724779999815,None,4,xm15,3,2023-03-20_11h53.23.756,threat_forest,2021.2.3,60.001392028924535,
13,0,13,0,2,0,2,0,,,,,,,,,,right,2.3753202999942005,492.48500899999635,xm15,487.18860279998626,489.20273210000596,492.48500899999635,None,True,3,['p'],False,0.2,0.2,0.0,0.0,2.0,0.4554859150035951,0.0,unsucc_cost,1,1,489.20273210000596,None,3,xm15,3,2023-03-20_11h53.23.756,threat_forest,2021.2.3,60.001392028924535,
13,0,13,0,3,0,3,0,,,,,,,,,,left,1.4743780000135303,497.44546660000924,xm15,497.44546660000924,None,494.881072499993,496.8958488999924,True,1,['p'],True,0.2777777777777778,0.3333333333333333,0.1666666666666666,1.0,2.0,0.8929352898779304,0.2777777777777777,unsucc_cost,0,0,496.8958488999924,None,1,xm15,3,2023-03-20_11h53.23.756,threat_forest,2021.2.3,60.001392028924535,
13,0,13,0,,,,,,,,,,,,,,,,,,,,,,,,,,,,,,,,,,,,500.9588254999835,None,0,xm15,3,2023-03-20_11h53.23.756,threat_forest,2021.2.3,60.001392028924535,
14,0,14,0,0,0,0,0,,,,,,,504.4942318999965,508.0020949000027,None,left,1.903837099991506,511.4494096999988,xm15,504.4942318999965,508.0020949000027,511.4494096999988,None,False,4,['r'],False,0.24,0.4,0.4,2.0,1.0,0.9801625908629508,0.0,wait_cost,1,3,,,,xm15,3,2023-03-20_11h53.23.756,threat_forest,2021.2.3,60.001392028924535,
14,0,14,0,1,0,1,0,,,,,,,,,,right,1.4314543000073172,516.8443125000049,xm15,504.4942318999965,508.0020949000027,516.8443125000049,None,True,3,['r'],False,0.24,0.4,0.4,2.0,1.0,0.9801625908629508,-0.4,unsucc_cost,1,1,515.3948727000097,None,3,xm15,3,2023-03-20_11h53.23.756,threat_forest,2021.2.3,60.001392028924535,
14,0,14,0,2,0,2,0,,,,,,,,,,left,1.0970377999765333,521.2401261999912,xm15,521.2401261999912,None,518.2925851999898,520.3074620999978,True,1,['r'],True,0.3333333333333333,0.3333333333333333,0.0,0.0,1.0,0.5793801642856949,0.3333333333333332,unsucc_cost,0,0,520.3074620999978,None,1,xm15,3,2023-03-20_11h53.23.756,threat_forest,2021.2.3,60.001392028924535,
14,0,14,0,,,,,,,,,,,,,,,,,,,,,,,,,,,,,,,,,,,,524.3702917000046,None,0,xm15,3,2023-03-20_11h53.23.756,threat_forest,2021.2.3,60.001392028924535,
15,0,15,0,0,0,0,0,,,,,,,526.3475369999942,529.8474837999966,None,left,0.9764774999930523,530.8002174999856,xm15,526.3475369999942,529.8474837999966,530.8002174999856,None,False,4,['r'],False,0.1975308641975308,0.2222222222222222,0.1111111111111111,1.0,2.0,0.7461067557824965,0.0,wait_cost,1,3,,,,xm15,3,2023-03-20_11h53.23.756,threat_forest,2021.2.3,60.001392028924535,
15,0,15,0,1,0,1,0,,,,,,,,,,left,0.8000379000150133,537.4751435999933,xm15,526.3475369999942,529.8474837999966,537.4751435999933,None,False,3,['r'],False,0.1975308641975308,0.2222222222222222,0.1111111111111111,1.0,2.0,0.7461067557824965,-0.1111111111111111,wait_cost,1,2,533.8111344999925,None,3,xm15,3,2023-03-20_11h53.23.756,threat_forest,2021.2.3,60.001392028924535,
15,0,15,0,2,0,2,0,,,,,,,,,,left,0.7366507999831811,541.254621,xm15,541.254621,None,538.3074125999992,540.3217074999993,True,2,['r'],True,0.2777777777777778,0.3333333333333333,0.1666666666666666,1.0,2.0,0.8929352898779304,-0.7222222222222223,succ_gain,0,4,540.3217074999993,None,2,xm15,3,2023-03-20_11h53.23.756,threat_forest,2021.2.3,60.001392028924535,
15,0,15,0,3,0,3,0,,,,,,,,,,left,1.1720014000020456,547.382189099997,xm15,547.382189099997,None,538.3074125999992,540.3217074999993,True,4,['r'],True,0.2777777777777778,0.3333333333333333,0.1666666666666666,1.0,2.0,0.8929352898779304,0.0,succ_gain,0,6,544.0348976000096,None,4,xm15,3,2023-03-20_11h53.23.756,threat_forest,2021.2.3,60.001392028924535,
15,0,15,0,4,0,4,0,,,,,,,,,,right,1.2149178000108805,553.5435786999878,xm15,553.5435786999878,None,538.3074125999992,540.3217074999993,False,6,['r'],True,0.2777777777777778,0.3333333333333333,0.1666666666666666,1.0,2.0,0.8929352898779304,0.0,wait_cost,0,5,550.5954851999995,None,6,xm15,3,2023-03-20_11h53.23.756,threat_forest,2021.2.3,60.001392028924535,
15,0,15,0,5,0,5,0,,,,,,,,,,left,0.842394899984356,557.7072972999886,xm15,554.7753303000063,556.7897076999943,557.7072972999886,None,False,5,['r'],False,0.1975308641975308,0.2222222222222222,0.1111111111111111,1.0,2.0,0.7461067557824965,0.0,wait_cost,1,4,556.7897076999943,None,5,xm15,3,2023-03-20_11h53.23.756,threat_forest,2021.2.3,60.001392028924535,
15,0,15,0,6,0,6,0,,,,,,,,,,right,0.6716541000059806,561.8020793999895,xm15,561.8020793999895,None,558.5718297999993,560.5860910000047,False,4,['r'],True,0.2777777777777778,0.3333333333333333,0.1666666666666666,1.0,2.0,0.8929352898779304,0.0,wait_cost,0,3,560.5860910000047,None,4,xm15,3,2023-03-20_11h53.23.756,threat_forest,2021.2.3,60.001392028924535,
15,0,15,0,7,0,7,0,,,,,,,,,,left,1.5557212999847252,566.3991231999826,xm15,562.5013561999949,564.5157944000093,566.3991231999826,None,False,3,['r'],False,0.1975308641975308,0.2222222222222222,0.1111111111111111,1.0,2.0,0.7461067557824965,-0.1111111111111111,wait_cost,1,2,564.5157944000093,None,3,xm15,3,2023-03-20_11h53.23.756,threat_forest,2021.2.3,60.001392028924535,
15,0,15,0,,,,,,,,,,,,,,,,,,,,,,,,,,,,,,,,,,,,569.9940956000064,None,2,xm15,3,2023-03-20_11h53.23.756,threat_forest,2021.2.3,60.001392028924535,
16,0,16,0,0,0,0,0,,,,,,,573.7990877999982,577.3039254999894,None,left,0.7199141999881249,578.8363453999918,xm15,578.8363453999918,None,573.7990877999982,577.3039254999894,True,5,['p'],True,0.5,0.5,0.0,0.0,2.0,0.6309297535714574,0.0,unsucc_cost,0,3,,,,xm15,3,2023-03-20_11h53.23.756,threat_forest,2021.2.3,60.001392028924535,
16,0,16,0,1,0,1,0,,,,,,,,,,left,0.6424608000088483,583.2320085999963,xm15,583.2320085999963,None,573.7990877999982,577.3039254999894,True,3,['p'],True,0.5,0.5,0.0,0.0,2.0,0.6309297535714574,0.0,succ_gain,0,5,581.5998971000081,None,3,xm15,3,2023-03-20_11h53.23.756,threat_forest,2021.2.3,60.001392028924535,
16,0,16,0,2,0,2,0,,,,,,,,,,left,1.9726061999972444,589.3130371999869,xm15,583.8980067000084,585.912485399982,589.3130371999869,None,False,5,['p'],False,0.4081632653061224,0.5714285714285714,0.2857142857142857,2.0,2.0,0.9885754083994552,0.0,wait_cost,1,4,585.912485399982,None,5,xm15,3,2023-03-20_11h53.23.756,threat_forest,2021.2.3,60.001392028924535,
16,0,16,0,3,0,3,0,,,,,,,,,,right,0.8455388000002131,596.4696995999839,xm15,583.8980067000084,585.912485399982,596.4696995999839,None,True,4,['p'],False,0.4081632653061224,0.5714285714285714,0.2857142857142857,2.0,2.0,0.9885754083994552,0.0,unsucc_cost,1,2,593.3222479999822,None,4,xm15,3,2023-03-20_11h53.23.756,threat_forest,2021.2.3,60.001392028924535,
16,0,16,0,4,0,4,0,,,,,,,,,,right,0.5474975000252016,602.0644103999948,xm15,583.8980067000084,585.912485399982,602.0644103999948,None,True,2,['p'],False,0.4081632653061224,0.5714285714285714,0.2857142857142857,2.0,2.0,0.9885754083994552,-0.5918367346938775,unsucc_cost,1,0,599.3499346000026,None,2,xm15,3,2023-03-20_11h53.23.756,threat_forest,2021.2.3,60.001392028924535,
16,0,16,0,,,,,,,,,,,,,,,,,,,,,,,,,,,,,,,,,,,,604.6450336999842,None,0,xm15,3,2023-03-20_11h53.23.756,threat_forest,2021.2.3,60.001392028924535,
17,0,17,0,0,0,0,0,,,,,,,607.5628564000071,611.0723352000059,None,right,1.2089449999912176,613.1877509999904,xm15,613.1877509999904,None,607.5628564000071,611.0723352000059,False,4,['r'],True,0.3333333333333333,0.3333333333333333,0.0,0.0,2.0,0.5793801642856949,0.0,wait_cost,0,3,,,,xm15,3,2023-03-20_11h53.23.756,threat_forest,2021.2.3,60.001392028924535,
17,0,17,0,1,0,1,0,,,,,,,,,,right,0.6801322000101209,618.3496169999999,xm15,614.4194866000034,616.4339667999884,618.3496169999999,None,True,3,['r'],False,0.2222222222222222,0.6666666666666666,0.6666666666666666,2.0,2.0,0.77250688571426,-0.6666666666666666,succ_gain,1,5,616.4339667999884,None,3,xm15,3,2023-03-20_11h53.23.756,threat_forest,2021.2.3,60.001392028924535,
17,0,17,0,2,0,2,0,,,,,,,,,,right,2.9613880999968387,624.3769676999946,xm15,624.3769676999946,None,619.0485664999869,621.0629590000026,False,5,['r'],True,0.3333333333333333,0.3333333333333333,0.0,0.0,2.0,0.5793801642856949,0.0,wait_cost,0,4,621.0629590000026,None,5,xm15,3,2023-03-20_11h53.23.756,threat_forest,2021.2.3,60.001392028924535,
17,0,17,0,3,0,3,0,,,,,,,,,,right,1.617004799976712,630.2246948000102,xm15,627.3575249999994,629.3718316000013,630.2246948000102,None,True,4,['r'],False,0.2222222222222222,0.6666666666666666,0.6666666666666666,2.0,2.0,0.77250688571426,0.0,unsucc_cost,1,2,629.3718316000013,None,4,xm15,3,2023-03-20_11h53.23.756,threat_forest,2021.2.3,60.001392028924535,
17,0,17,0,4,0,4,0,,,,,,,,,,left,0.8874303000047803,637.248165500001,xm15,637.248165500001,None,631.869873299991,633.8843035000027,True,2,['r'],True,0.3333333333333333,0.3333333333333333,0.0,0.0,2.0,0.5793801642856949,-0.6666666666666667,succ_gain,0,4,633.8843035000027,None,2,xm15,3,2023-03-20_11h53.23.756,threat_forest,2021.2.3,60.001392028924535,
17,0,17,0,5,0,5,0,,,,,,,,,,left,1.312250099988887,641.0283861999924,xm15,638.163948100002,640.1784753999964,641.0283861999924,None,False,4,['r'],False,0.2222222222222222,0.6666666666666666,0.6666666666666666,2.0,2.0,0.77250688571426,0.0,wait_cost,1,3,640.1784753999964,None,4,xm15,3,2023-03-20_11h53.23.756,threat_forest,2021.2.3,60.001392028924535,
17,0,17,0,6,0,6,0,,,,,,,,,,right,0.4630888999963645,646.0565910000005,xm15,646.0565910000005,None,642.3600267999864,644.37458589999,False,3,['r'],True,0.3333333333333333,0.3333333333333333,0.0,0.0,2.0,0.5793801642856949,0.0,wait_cost,0,2,644.37458589999,None,3,xm15,3,2023-03-20_11h53.23.756,threat_forest,2021.2.3,60.001392028924535,
17,0,17,0,7,0,7,0,,,,,,,,,,right,0.7766342000104487,650.1860469999956,xm15,650.1860469999956,None,642.3600267999864,644.37458589999,False,2,['r'],True,0.3333333333333333,0.3333333333333333,0.0,0.0,2.0,0.5793801642856949,-0.6666666666666667,wait_cost,0,1,648.5540120000078,None,2,xm15,3,2023-03-20_11h53.23.756,threat_forest,2021.2.3,60.001392028924535,
17,0,17,0,,,,,,,,,,,,,,,,,,,,,,,,,,,,,,,,,,,,652.9998889999988,None,1,xm15,3,2023-03-20_11h53.23.756,threat_forest,2021.2.3,60.001392028924535,
