miniblock.thisRepN,miniblock.thisTrialN,miniblock.thisN,miniblock.thisIndex,day.thisRepN,day.thisTrialN,day.thisN,day.thisIndex,forest.started,fixation_forest.started,fixation_forest.stopped,key_resp.keys,key_resp.rt,key_resp.started,Subject_ID,weather_left.started,weather_left.stopped,weather_right.started,weather_right.stopped,foraging T/F,in_LP,p/r heuristic,good_weather.T/F,p_succ_correct,p_succ_uncorrected,r_threat,n_oponents,gain_if_succ,weather_entropy,OP_value_difference,action_outcome,forest_side_L=0_R=1,out_LP,fixation_day.started,fixation_day.stopped,participant,session,date,expName,psychopyVersion,frameRate,foraging T/F NaNs,fora_NR,forest_mean_p,mvt_cutoff_p,forest_mean_ev,mvt_cutoff_ev,mvt_policy_eg,mvt_policy_p,fora_response,logRT,optimal policy,$\mathit{p}$ success cor + cap,$\mathit{p}$ success cor,$\mathit{p}$ success,risk threat encounter,expected gain naive,expected gain correct,expected state no bounds,expected state with bounds,weather type,gain magnitude,win stay lose shift,continuous energy state,binary energy state,$\mathit{p}$ success based MVT,expected gain based MVT,weather type fit,weather type_uncertain,weather type_uncertain_fit,risk threat encounter fit,risk threat encounter_uncertain,risk threat encounter_uncertain_fit,win stay lose shift fit,win stay lose shift_uncertain,win stay lose shift_uncertain_fit,$\mathit{p}$ success fit,$\mathit{p}$ success_uncertain,$\mathit{p}$ success_uncertain_fit,expected gain naive fit,expected gain naive_uncertain,expected gain naive_uncertain_fit,expected gain based MVT fit,expected gain based MVT_uncertain,expected gain based MVT_uncertain_fit,$\mathit{p}$ success cor fit,$\mathit{p}$ success cor_uncertain,$\mathit{p}$ success cor_uncertain_fit,binary energy state fit,binary energy state_uncertain,binary energy state_uncertain_fit,$\mathit{p}$ success cor + cap fit,$\mathit{p}$ success cor + cap_uncertain,$\mathit{p}$ success cor + cap_uncertain_fit,optimal policy fit,optimal policy_uncertain,optimal policy_uncertain_fit
0.0,0.0,0.0,0.0,0.0,0.0,0.0,0.0,52.65182109999978,56.14832290000004,None,left,1.043441900000289,58.24981399999979,sn16,58.24981399999979,None,52.65182109999978,56.14832290000004,True,5.0,['r'],True,0.36,0.6,0.4,2.0,2.0,0.9801625908629508,-0.0333353473,succ_gain,0.0,6.0,,,sn16,1,2023-03-21_11h29.14.221,threat_forest,2021.2.3,60.07312100281201,True,18.0,0.55,0.55,-0.4800000000000001,-0.4800000000000001,0,0,1,0.0425247679786094,-0.0333353473,0.36,0.36,0.6,0.6,-0.8000000000000003,-0.9600000000000002,4.04,4.04,1.0,2.0,,5.0,0,0,0,0.552141006907901,0.24728131539863019,0.2333486050200726,0.5615405685888033,0.24621275841776682,0.3097783989813223,,,,0.6575422079510113,0.22518045271392037,0.27185815218708415,0.5887519620749074,0.24212308922785417,0.27448282898157517,0.4311305792318427,0.24525700288305854,0.27177741787773296,0.5810745584738798,0.24342691596826546,0.2802278453363463,0.5153566228058405,0.2497641741359991,0.2772009137396246,0.6148712763217512,0.23680458987621192,0.3147700801574051,0.368776828354965,0.23278047922341766,0.34830394251649055
0.0,0.0,0.0,0.0,1.0,0.0,1.0,0.0,,,,left,1.497791100000086,62.01470990000007,sn16,62.01470990000007,None,52.65182109999978,56.14832290000004,True,6.0,['r'],True,0.36,0.6,0.4,2.0,2.0,0.9801625908629508,-0.1255866,succ_gain,0.0,6.0,61.339646699999776,None,sn16,1,2023-03-21_11h29.14.221,threat_forest,2021.2.3,60.07312100281201,True,18.0,0.55,0.55,-0.4800000000000001,-0.4800000000000001,0,0,1,0.4039914227671955,-0.1255866,0.36,0.36,0.6,0.6,-0.8000000000000003,-0.9600000000000002,5.04,5.04,1.0,2.0,1.0,6.0,0,0,0,0.552141006907901,0.24728131539863019,0.2333486050200726,0.5615405685888033,0.24621275841776682,0.3097783989813223,0.3934123584581956,0.23863907467055587,0.3707573375859283,0.6575422079510113,0.22518045271392037,0.27185815218708415,0.5887519620749074,0.24212308922785417,0.27448282898157517,0.4311305792318427,0.24525700288305854,0.27177741787773296,0.5810745584738798,0.24342691596826546,0.2802278453363463,0.5153566228058405,0.2497641741359991,0.2772009137396246,0.6148712763217512,0.23680458987621192,0.3147700801574051,0.11317818620442785,0.1003688843719037,0.1651443289168567
0.0,0.0,0.0,0.0,2.0,0.0,2.0,0.0,,,,left,1.3649970999999823,67.1151519,sn16,63.5380424,65.55249809999987,67.1151519,None,False,6.0,['r'],False,0.5,0.5,0.0,0.0,2.0,0.6309297535714574,0.0891,wait_cost,1.0,5.0,65.55249809999987,None,sn16,1,2023-03-21_11h29.14.221,threat_forest,2021.2.3,60.07312100281201,False,18.0,0.55,0.55,-0.4800000000000001,-0.4800000000000001,1,0,0,0.3111523040925287,0.0891,0.5,0.5,0.5,1.0,0.0,0.0,6.0,6.0,0.0,2.0,-1.0,6.0,0,0,1,0.5848048713851672,0.24280813378934524,0.31171754691082665,0.5763699885982851,0.2441676248414978,0.23492188652614665,0.6066193679917374,0.23863231036904245,0.2525029440412254,0.6000849703637581,0.23998299870728565,0.27381800361822106,0.6659012581752604,0.22247677253586554,0.2007506209920641,0.7065820892414417,0.20732384040464102,0.2751658344577374,0.692715227966597,0.21286084090978255,0.251180079297751,0.5153566228058405,0.2497641741359991,0.2772009137396246,0.7866619271129881,0.16782493954386796,0.26204461756293845,0.8147956183268524,0.15090371868221467,0.235047125087975
0.0,0.0,0.0,0.0,3.0,0.0,3.0,0.0,,,,left,0.8704997999998341,72.58689449999974,sn16,63.5380424,65.55249809999987,72.58689449999974,None,False,5.0,['r'],False,0.5,0.5,0.0,0.0,2.0,0.6309297535714574,0.1069499999999999,wait_cost,1.0,4.0,70.51447400000006,None,sn16,1,2023-03-21_11h29.14.221,threat_forest,2021.2.3,60.07312100281201,False,18.0,0.55,0.55,-0.4800000000000001,-0.4800000000000001,1,0,0,-0.1386877495271258,0.1069499999999999,0.5,0.5,0.5,1.0,0.0,0.0,5.0,5.0,0.0,2.0,-1.0,5.0,0,0,1,0.5848048713851672,0.24280813378934524,0.31171754691082665,0.5763699885982851,0.2441676248414978,0.23492188652614665,0.6066193679917374,0.23863231036904245,0.2525029440412254,0.6000849703637581,0.23998299870728565,0.27381800361822106,0.6659012581752604,0.22247677253586554,0.2007506209920641,0.7065820892414417,0.20732384040464102,0.2751658344577374,0.692715227966597,0.21286084090978255,0.251180079297751,0.5153566228058405,0.2497641741359991,0.2772009137396246,0.7866619271129881,0.16782493954386796,0.26204461756293845,0.8551801786541684,0.12384704069119308,0.19762071472200568
0.0,0.0,0.0,0.0,4.0,0.0,4.0,0.0,,,,left,1.1826003000001035,76.52880700000014,sn16,63.5380424,65.55249809999987,76.52880700000014,None,False,4.0,['r'],False,0.5,0.5,0.0,0.0,2.0,0.6309297535714574,0.1425,wait_cost,1.0,3.0,75.49339569999984,None,sn16,1,2023-03-21_11h29.14.221,threat_forest,2021.2.3,60.07312100281201,False,18.0,0.55,0.55,-0.4800000000000001,-0.4800000000000001,1,0,0,0.1677156580829837,0.1425,0.5,0.5,0.5,1.0,0.0,0.0,4.0,4.0,0.0,2.0,-1.0,4.0,0,0,1,0.5848048713851672,0.24280813378934524,0.31171754691082665,0.5763699885982851,0.2441676248414978,0.23492188652614665,0.6066193679917374,0.23863231036904245,0.2525029440412254,0.6000849703637581,0.23998299870728565,0.27381800361822106,0.6659012581752604,0.22247677253586554,0.2007506209920641,0.7065820892414417,0.20732384040464102,0.2751658344577374,0.692715227966597,0.21286084090978255,0.251180079297751,0.5153566228058405,0.2497641741359991,0.2772009137396246,0.7866619271129881,0.16782493954386796,0.26204461756293845,0.9138862753784583,0.07869815105334702,0.1351680783815572
0.0,0.0,0.0,0.0,5.0,0.0,5.0,0.0,,,,left,0.7836296999998922,82.56820239999979,sn16,82.56820239999979,None,77.74140979999993,79.75575879999997,True,3.0,['r'],True,0.36,0.6,0.4,2.0,2.0,0.9801625908629508,-0.0017999999999999,succ_gain,0.0,5.0,79.75575879999997,None,sn16,1,2023-03-21_11h29.14.221,threat_forest,2021.2.3,60.07312100281201,True,18.0,0.55,0.55,-0.4800000000000001,-0.4800000000000001,0,0,1,-0.2438186916393396,-0.0017999999999999,0.36,0.36,0.6,0.6,-0.8000000000000003,-0.9600000000000002,2.04,2.04,1.0,2.0,-1.0,3.0,0,0,0,0.552141006907901,0.24728131539863019,0.2333486050200726,0.5615405685888033,0.24621275841776682,0.3097783989813223,0.6066193679917374,0.23863231036904245,0.2525029440412254,0.6575422079510113,0.22518045271392037,0.27185815218708415,0.5887519620749074,0.24212308922785417,0.27448282898157517,0.4311305792318427,0.24525700288305854,0.27177741787773296,0.5810745584738798,0.24342691596826546,0.2802278453363463,0.5153566228058405,0.2497641741359991,0.2772009137396246,0.6148712763217512,0.23680458987621192,0.3147700801574051,0.49563674092301446,0.24998096197022704,0.37209667590336404
0.0,0.0,0.0,0.0,6.0,0.0,6.0,0.0,,,,right,1.6282970000002024,87.72331959999974,sn16,83.36965169999985,85.38417440000012,87.72331959999974,None,True,5.0,['r'],False,0.5,0.5,0.0,0.0,2.0,0.6309297535714574,0.0,succ_gain,1.0,6.0,85.38417440000012,None,sn16,1,2023-03-21_11h29.14.221,threat_forest,2021.2.3,60.07312100281201,True,18.0,0.55,0.55,-0.4800000000000001,-0.4800000000000001,1,0,1,0.4875346833741327,0.0,0.0,0.5,0.5,1.0,0.0,0.0,5.0,5.0,0.0,2.0,1.0,5.0,0,0,1,0.5848048713851672,0.24280813378934524,0.31171754691082665,0.5763699885982851,0.2441676248414978,0.23492188652614665,0.3934123584581956,0.23863907467055587,0.3707573375859283,0.6000849703637581,0.23998299870728565,0.27381800361822106,0.6659012581752604,0.22247677253586554,0.2007506209920641,0.7065820892414417,0.20732384040464102,0.2751658344577374,0.692715227966597,0.21286084090978255,0.251180079297751,0.5153566228058405,0.2497641741359991,0.2772009137396246,0.15647815271968013,0.13199274044111658,0.2346558258777516,0.5030570415969433,0.24999065449667454,0.37211008318390404
0.0,0.0,0.0,0.0,7.0,0.0,7.0,0.0,,,,left,0.975918399999955,95.02903990000004,sn16,83.36965169999985,85.38417440000012,95.02903990000004,None,False,6.0,['r'],False,0.5,0.5,0.0,0.0,2.0,0.6309297535714574,0.0,wait_cost,1.0,5.0,91.39491989999988,None,sn16,1,2023-03-21_11h29.14.221,threat_forest,2021.2.3,60.07312100281201,False,18.0,0.55,0.55,-0.4800000000000001,-0.4800000000000001,1,0,0,-0.0243763026216907,0.0,0.0,0.5,0.5,1.0,0.0,0.0,6.0,6.0,0.0,2.0,1.0,6.0,0,0,1,0.5848048713851672,0.24280813378934524,0.31171754691082665,0.5763699885982851,0.2441676248414978,0.23492188652614665,0.3934123584581956,0.23863907467055587,0.3707573375859283,0.6000849703637581,0.23998299870728565,0.27381800361822106,0.6659012581752604,0.22247677253586554,0.2007506209920641,0.7065820892414417,0.20732384040464102,0.2751658344577374,0.692715227966597,0.21286084090978255,0.251180079297751,0.5153566228058405,0.2497641741359991,0.2772009137396246,0.15647815271968013,0.13199274044111658,0.2346558258777516,0.5030570415969433,0.24999065449667454,0.37211008318390404
1.0,0.0,1.0,0.0,0.0,0.0,0.0,0.0,98.6249911,102.13509560000011,None,left,1.3585524000000078,104.90939049999996,sn16,104.90939049999996,None,98.6249911,102.13509560000011,True,5.0,['r'],True,0.2222222222222222,0.6666666666666666,0.6666666666666666,2.0,1.0,0.77250688571426,-0.0890555304009964,figh_cost,0.0,2.0,,,sn16,1,2023-03-21_11h29.14.221,threat_forest,2021.2.3,60.07312100281201,True,30.0,0.5833333333333333,0.5666666666666667,-1.25,-0.865,0,0,1,0.3064197210947538,-0.0890555304009964,0.2222222222222222,0.2222222222222222,0.6666666666666666,0.3333333333333333,-2.0,-2.0,3.0,3.0,1.0,1.0,-1.0,5.0,0,0,0,0.552141006907901,0.24728131539863019,0.2333486050200726,0.5515911468970375,0.24733835356184827,0.35097772595933385,0.6066193679917374,0.23863231036904245,0.2525029440412254,0.6935399541676751,0.21254228614077422,0.2701848637638339,0.46567007251854403,0.248821456079118,0.29962165706881794,0.4311305792318427,0.24525700288305854,0.27177741787773296,0.462380482638389,0.2485847719134795,0.28512949504016644,0.5153566228058405,0.2497641741359991,0.2772009137396246,0.4119372114086859,0.24224494526552148,0.3189284841678288,0.18903581618291054,0.1533012763829714,0.23836356986417362
1.0,0.0,1.0,0.0,1.0,0.0,1.0,0.0,,,,left,2.000549299999875,111.61361080000006,sn16,106.29809759999988,108.31260609999981,111.61361080000006,None,False,2.0,['r'],False,0.5,0.5,0.0,0.0,1.0,0.6309297535714574,0.0566654074502743,wait_cost,1.0,1.0,108.3126060999998,None,sn16,1,2023-03-21_11h29.14.221,threat_forest,2021.2.3,60.07312100281201,False,30.0,0.5833333333333333,0.5666666666666667,-1.25,-0.865,1,0,0,0.693421792850476,0.0566654074502743,0.5,0.5,0.5,1.0,-0.5,-0.5,1.5,1.5,0.0,1.0,-1.0,2.0,0,0,1,0.5848048713851672,0.24280813378934524,0.31171754691082665,0.5763699885982851,0.2441676248414978,0.23492188652614665,0.6066193679917374,0.23863231036904245,0.2525029440412254,0.6000849703637581,0.23998299870728565,0.27381800361822106,0.6184311554917343,0.23597406140889263,0.25140565857915353,0.7065820892414417,0.20732384040464102,0.2751658344577374,0.692715227966597,0.21286084090978255,0.251180079297751,0.5153566228058405,0.2497641741359991,0.2772009137396246,0.7866619271129881,0.16782493954386796,0.26204461756293845,0.7204378518746952,0.20140715346086996,0.3049064875545774
1.0,0.0,1.0,0.0,2.0,0.0,2.0,0.0,,,,left,0.9923918999998024,118.72630299999992,sn16,118.72630299999992,None,113.64134920000016,115.6557585999999,True,1.0,['r'],True,0.2222222222222222,0.6666666666666666,0.6666666666666666,2.0,1.0,0.77250688571426,0.0452835648148148,succ_gain,0.0,2.0,115.6557585999999,None,sn16,1,2023-03-21_11h29.14.221,threat_forest,2021.2.3,60.07312100281201,True,30.0,0.5833333333333333,0.5666666666666667,-1.25,-0.865,0,0,1,-0.0076371892294387,0.0452835648148148,1.0,0.2222222222222222,0.6666666666666666,0.3333333333333333,-2.0,-2.0,-1.0,0.0,1.0,1.0,-1.0,1.0,1,0,0,0.552141006907901,0.24728131539863019,0.2333486050200726,0.5515911468970375,0.24733835356184827,0.35097772595933385,0.6066193679917374,0.23863231036904245,0.2525029440412254,0.6935399541676751,0.21254228614077422,0.2701848637638339,0.46567007251854403,0.248821456079118,0.29962165706881794,0.4311305792318427,0.24525700288305854,0.27177741787773296,0.462380482638389,0.2485847719134795,0.28512949504016644,0.9512333571576697,0.04638845738821895,0.24682086376374607,0.9865403826153741,0.013278456084485342,0.14391507075479443,0.6811255554274216,0.21719353317110804,0.32674314929939474
1.0,0.0,1.0,0.0,3.0,0.0,3.0,0.0,,,,left,1.3256680999998025,125.38025599999992,sn16,125.38025599999992,None,113.64134920000016,115.6557585999999,True,2.0,['r'],True,0.2222222222222222,0.6666666666666666,0.6666666666666666,2.0,1.0,0.77250688571426,-0.0434456447187929,figh_cost,0.0,0.0,121.75015369999984,None,sn16,1,2023-03-21_11h29.14.221,threat_forest,2021.2.3,60.07312100281201,True,30.0,0.5833333333333333,0.5666666666666667,-1.25,-0.865,0,0,1,0.2819165587737081,-0.0434456447187929,0.2222222222222222,0.2222222222222222,0.6666666666666666,0.3333333333333333,-2.0,-2.0,0.0,0.0,1.0,1.0,1.0,2.0,0,0,0,0.552141006907901,0.24728131539863019,0.2333486050200726,0.5515911468970375,0.24733835356184827,0.35097772595933385,0.3934123584581956,0.23863907467055587,0.3707573375859283,0.6935399541676751,0.21254228614077422,0.2701848637638339,0.46567007251854403,0.248821456079118,0.29962165706881794,0.4311305792318427,0.24525700288305854,0.27177741787773296,0.462380482638389,0.2485847719134795,0.28512949504016644,0.5153566228058405,0.2497641741359991,0.2772009137396246,0.4119372114086859,0.24224494526552148,0.3189284841678288,0.3308849049680482,0.2214000846323339,0.3325619021139734
2.0,0.0,2.0,0.0,0.0,0.0,0.0,0.0,131.5601772,135.05917309999995,None,left,1.6299736000000848,135.82826419999992,sn16,135.82826419999992,None,131.5601772,135.05917309999995,True,5.0,['p'],True,0.4444444444444445,0.6666666666666666,0.3333333333333333,1.0,1.0,0.9656336071428248,0.0468159241685405,figh_cost,0.0,2.0,,,sn16,1,2023-03-21_11h29.14.221,threat_forest,2021.2.3,60.07312100281201,True,23.0,0.4333333333333333,0.5083333333333333,-1.3600000000000003,-1.3050000000000002,1,0,1,0.4885638183685428,0.0468159241685405,0.4444444444444445,0.4444444444444445,0.6666666666666666,0.6666666666666667,-1.0,-1.0,4.0,4.0,1.0,1.0,-1.0,5.0,0,0,1,0.552141006907901,0.24728131539863019,0.2333486050200726,0.5640205305385123,0.24590137166956744,0.2983809400253712,0.6066193679917374,0.23863231036904245,0.2525029440412254,0.6935399541676751,0.21254228614077422,0.2701848637638339,0.5685859910950815,0.24529596182550545,0.28639055224400445,0.7065820892414417,0.20732384040464102,0.2751658344577374,0.6502464457192737,0.22742600554872527,0.2650217483356019,0.5153566228058405,0.2497641741359991,0.2772009137396246,0.7256660627321719,0.19907482813095945,0.2859308626198718,0.6865884030586201,0.21518476784403395,0.3239645053178626
2.0,0.0,2.0,0.0,1.0,0.0,1.0,0.0,,,,left,0.6408714999997756,142.74719939999977,sn16,142.74719939999977,None,131.5601772,135.05917309999995,True,2.0,['p'],True,0.4444444444444445,0.6666666666666666,0.3333333333333333,1.0,1.0,0.9656336071428248,0.0366186597420974,figh_cost,0.0,0.0,139.50015570000005,None,sn16,1,2023-03-21_11h29.14.221,threat_forest,2021.2.3,60.07312100281201,True,23.0,0.4333333333333333,0.5083333333333333,-1.3600000000000003,-1.3050000000000002,1,0,1,-0.444926310176937,0.0366186597420974,0.4444444444444445,0.4444444444444445,0.6666666666666666,0.6666666666666667,-1.0,-1.0,1.0,1.0,1.0,1.0,-1.0,2.0,0,0,1,0.552141006907901,0.24728131539863019,0.2333486050200726,0.5640205305385123,0.24590137166956744,0.2983809400253712,0.6066193679917374,0.23863231036904245,0.2525029440412254,0.6935399541676751,0.21254228614077422,0.2701848637638339,0.5685859910950815,0.24529596182550545,0.28639055224400445,0.7065820892414417,0.20732384040464102,0.2751658344577374,0.6502464457192737,0.22742600554872527,0.2650217483356019,0.5153566228058405,0.2497641741359991,0.2772009137396246,0.7256660627321719,0.19907482813095945,0.2859308626198718,0.6493232735006808,0.22770255999104083,0.3412798618418694
3.0,0.0,3.0,0.0,0.0,0.0,0.0,0.0,147.3207314000001,150.8260697999999,None,left,1.2337250000000497,151.57508439999992,sn16,151.57508439999992,None,147.3207314000001,150.8260697999999,True,4.0,['p'],True,0.1875,0.25,0.25,2.0,1.0,0.895754137500101,-0.0017291066874999,unsucc_cost,0.0,2.0,,,sn16,1,2023-03-21_11h29.14.221,threat_forest,2021.2.3,60.07312100281201,True,57.0,0.4583333333333333,0.4458333333333333,-1.34375,-1.3518750000000002,0,0,1,0.2100380481357698,-0.0017291066874999,0.1875,0.1875,0.25,0.75,-2.0,-1.6875,2.3125,2.3125,1.0,1.0,-1.0,4.0,0,0,0,0.552141006907901,0.24728131539863019,0.2333486050200726,0.5671159713773748,0.24549544638607146,0.28352315694827723,0.6066193679917374,0.23863231036904245,0.2525029440412254,0.44755998596239627,0.2472500449277359,0.27478015775992554,0.46567007251854403,0.248821456079118,0.29962165706881794,0.4311305792318427,0.24525700288305854,0.27177741787773296,0.4326091165093455,0.245458468822349,0.28215848484068407,0.5153566228058405,0.2497641741359991,0.2772009137396246,0.3627210949650139,0.23115450223239525,0.31045136466255674,0.49592897581746276,0.24998342676210514,0.37210008535046346
3.0,0.0,3.0,0.0,1.0,0.0,1.0,0.0,,,,left,2.192366799999945,156.59111269999994,sn16,156.59111269999994,None,147.3207314000001,150.8260697999999,True,2.0,['p'],True,0.1875,0.25,0.25,2.0,1.0,0.895754137500101,-0.0136192356711001,unsucc_cost,0.0,0.0,154.85238560000016,None,sn16,1,2023-03-21_11h29.14.221,threat_forest,2021.2.3,60.07312100281201,True,57.0,0.4583333333333333,0.4458333333333333,-1.34375,-1.3518750000000002,0,0,1,0.7849816908530998,-0.0136192356711001,0.1875,0.1875,0.25,0.75,-2.0,-1.6875,0.3125,0.3125,1.0,1.0,-1.0,2.0,0,0,0,0.552141006907901,0.24728131539863019,0.2333486050200726,0.5671159713773748,0.24549544638607146,0.28352315694827723,0.6066193679917374,0.23863231036904245,0.2525029440412254,0.44755998596239627,0.2472500449277359,0.27478015775992554,0.46567007251854403,0.248821456079118,0.29962165706881794,0.4311305792318427,0.24525700288305854,0.27177741787773296,0.4326091165093455,0.245458468822349,0.28215848484068407,0.5153566228058405,0.2497641741359991,0.2772009137396246,0.3627210949650139,0.23115450223239525,0.31045136466255674,0.4471107582699967,0.24720272810922525,0.3682536571628894
4.0,0.0,4.0,0.0,0.0,0.0,0.0,0.0,164.58685089999972,168.09019009999977,None,left,1.7689282999999705,169.59816180000007,sn16,164.58685089999972,168.09019009999975,169.59816180000007,None,False,5.0,['r'],False,0.36,0.6,0.4,2.0,1.0,0.9801625908629508,-0.019480620685,wait_cost,1.0,4.0,,,sn16,1,2023-03-21_11h29.14.221,threat_forest,2021.2.3,60.07312100281201,False,0.0,0.55,0.5041666666666667,-0.91,-1.126875,0,0,0,0.5703738829825558,-0.019480620685,0.36,0.36,0.6,0.6,-1.4000000000000004,-1.3200000000000005,3.68,3.68,0.0,1.0,-1.0,5.0,0,0,0,0.5848048713851672,0.24280813378934524,0.31171754691082665,0.5615405685888033,0.24621275841776682,0.3097783989813223,0.6066193679917374,0.23863231036904245,0.2525029440412254,0.6575422079510113,0.22518045271392037,0.27185815218708415,0.5276308641149962,0.24923653534825863,0.3011794407228344,0.4311305792318427,0.24525700288305854,0.27177741787773296,0.5810745584738798,0.24342691596826546,0.2802278453363463,0.5153566228058405,0.2497641741359991,0.2772009137396246,0.6148712763217512,0.23680458987621192,0.3147700801574051,0.4233576423737668,0.24412594901749263,0.3639976728572466
4.0,0.0,4.0,0.0,1.0,0.0,1.0,0.0,,,,right,2.2427354999999807,175.53779699999996,sn16,164.58685089999972,168.09019009999975,175.53779699999996,None,True,4.0,['r'],False,0.36,0.6,0.4,2.0,1.0,0.9801625908629508,0.0140390357999998,unsucc_cost,1.0,2.0,173.40181099999973,None,sn16,1,2023-03-21_11h29.14.221,threat_forest,2021.2.3,60.07312100281201,True,0.0,0.55,0.5041666666666667,-0.91,-1.126875,0,0,1,0.8076963261593436,0.0140390357999998,0.36,0.36,0.6,0.6,-1.4000000000000004,-1.3200000000000005,2.68,2.68,0.0,1.0,-1.0,4.0,0,0,0,0.5848048713851672,0.24280813378934524,0.31171754691082665,0.5615405685888033,0.24621275841776682,0.3097783989813223,0.6066193679917374,0.23863231036904245,0.2525029440412254,0.6575422079510113,0.22518045271392037,0.27185815218708415,0.5276308641149962,0.24923653534825863,0.3011794407228344,0.4311305792318427,0.24525700288305854,0.27177741787773296,0.5810745584738798,0.24342691596826546,0.2802278453363463,0.5153566228058405,0.2497641741359991,0.2772009137396246,0.6148712763217512,0.23680458987621192,0.3147700801574051,0.5606327528782248,0.24632366927840807,0.3670376905705046
4.0,0.0,4.0,0.0,2.0,0.0,2.0,0.0,,,,right,1.0519290000002002,181.2970495999998,sn16,164.58685089999972,168.09019009999975,181.2970495999998,None,True,2.0,['r'],False,0.36,0.6,0.4,2.0,1.0,0.9801625908629508,0.0199038400000001,succ_gain,1.0,3.0,179.81224369999973,None,sn16,1,2023-03-21_11h29.14.221,threat_forest,2021.2.3,60.07312100281201,True,0.0,0.55,0.5041666666666667,-0.91,-1.126875,0,0,1,0.0506256215438259,0.0199038400000001,0.36,0.36,0.6,0.6,-1.4000000000000004,-1.3200000000000005,0.6799999999999997,0.6799999999999997,0.0,1.0,-1.0,2.0,0,0,0,0.5848048713851672,0.24280813378934524,0.31171754691082665,0.5615405685888033,0.24621275841776682,0.3097783989813223,0.6066193679917374,0.23863231036904245,0.2525029440412254,0.6575422079510113,0.22518045271392037,0.27185815218708415,0.5276308641149962,0.24923653534825863,0.3011794407228344,0.4311305792318427,0.24525700288305854,0.27177741787773296,0.5810745584738798,0.24342691596826546,0.2802278453363463,0.5153566228058405,0.2497641741359991,0.2772009137396246,0.6148712763217512,0.23680458987621192,0.3147700801574051,0.5842974993422053,0.24289393160465086,0.3622934729075581
4.0,0.0,4.0,0.0,3.0,0.0,3.0,0.0,,,,left,1.860095399999864,187.07714529999976,sn16,187.07714529999976,None,182.3769997,184.39159489999975,True,3.0,['r'],True,0.5,0.5,0.0,0.0,1.0,0.6309297535714574,0.1769,succ_gain,0.0,4.0,184.3915948999997,None,sn16,1,2023-03-21_11h29.14.221,threat_forest,2021.2.3,60.07312100281201,True,0.0,0.55,0.5041666666666667,-0.91,-1.126875,1,0,1,0.6206277767323137,0.1769,0.5,0.5,0.5,1.0,-0.5,-0.5,2.5,2.5,1.0,1.0,1.0,3.0,0,0,1,0.552141006907901,0.24728131539863019,0.2333486050200726,0.5763699885982851,0.2441676248414978,0.23492188652614665,0.3934123584581956,0.23863907467055587,0.3707573375859283,0.6000849703637581,0.23998299870728565,0.27381800361822106,0.6184311554917343,0.23597406140889263,0.25140565857915353,0.7065820892414417,0.20732384040464102,0.2751658344577374,0.692715227966597,0.21286084090978255,0.251180079297751,0.5153566228058405,0.2497641741359991,0.2772009137396246,0.7866619271129881,0.16782493954386796,0.26204461756293845,0.9492754732702684,0.04815154911777635,0.09291419711402121
4.0,0.0,4.0,0.0,4.0,0.0,4.0,0.0,,,,right,1.1950778000000355,192.3507360999997,sn16,192.3507360999997,None,182.3769997,184.39159489999975,False,4.0,['r'],True,0.5,0.5,0.0,0.0,1.0,0.6309297535714574,0.1425,wait_cost,0.0,3.0,190.9685430999998,None,sn16,1,2023-03-21_11h29.14.221,threat_forest,2021.2.3,60.07312100281201,False,0.0,0.55,0.5041666666666667,-0.91,-1.126875,1,0,0,0.1782112878668015,0.1425,0.5,0.5,0.5,1.0,-0.5,-0.5,3.5,3.5,1.0,1.0,1.0,4.0,0,0,1,0.552141006907901,0.24728131539863019,0.2333486050200726,0.5763699885982851,0.2441676248414978,0.23492188652614665,0.3934123584581956,0.23863907467055587,0.3707573375859283,0.6000849703637581,0.23998299870728565,0.27381800361822106,0.6184311554917343,0.23597406140889263,0.25140565857915353,0.7065820892414417,0.20732384040464102,0.2751658344577374,0.692715227966597,0.21286084090978255,0.251180079297751,0.5153566228058405,0.2497641741359991,0.2772009137396246,0.7866619271129881,0.16782493954386796,0.26204461756293845,0.9138862753784583,0.07869815105334702,0.1351680783815572
4.0,0.0,4.0,0.0,5.0,0.0,5.0,0.0,,,,left,2.2698879000004126,197.0559515,sn16,193.5665307,195.5811702000001,197.0559515,None,False,3.0,['r'],False,0.36,0.6,0.4,2.0,1.0,0.9801625908629508,-0.0017999999999999,wait_cost,1.0,2.0,195.5811702000001,None,sn16,1,2023-03-21_11h29.14.221,threat_forest,2021.2.3,60.07312100281201,False,0.0,0.55,0.5041666666666667,-0.91,-1.126875,0,0,0,0.8197304470141878,-0.0017999999999999,0.36,0.36,0.6,0.6,-1.4000000000000004,-1.3200000000000005,1.6799999999999995,1.6799999999999995,0.0,1.0,-1.0,3.0,0,0,0,0.5848048713851672,0.24280813378934524,0.31171754691082665,0.5615405685888033,0.24621275841776682,0.3097783989813223,0.6066193679917374,0.23863231036904245,0.2525029440412254,0.6575422079510113,0.22518045271392037,0.27185815218708415,0.5276308641149962,0.24923653534825863,0.3011794407228344,0.4311305792318427,0.24525700288305854,0.27177741787773296,0.5810745584738798,0.24342691596826546,0.2802278453363463,0.5153566228058405,0.2497641741359991,0.2772009137396246,0.6148712763217512,0.23680458987621192,0.3147700801574051,0.49563674092301446,0.24998096197022704,0.37209667590336404
4.0,0.0,4.0,0.0,6.0,0.0,6.0,0.0,,,,right,1.3962478999997074,204.34275979999984,sn16,193.5665307,195.5811702000001,204.34275979999984,None,True,2.0,['r'],False,0.36,0.6,0.4,2.0,1.0,0.9801625908629508,-0.0699999999999999,unsucc_cost,1.0,0.0,201.3594425000001,None,sn16,1,2023-03-21_11h29.14.221,threat_forest,2021.2.3,60.07312100281201,True,0.0,0.55,0.5041666666666667,-0.91,-1.126875,0,0,1,0.3337885673712846,-0.0699999999999999,0.36,0.36,0.6,0.6,-1.4000000000000004,-1.3200000000000005,0.6799999999999997,0.6799999999999997,0.0,1.0,-1.0,2.0,0,0,0,0.5848048713851672,0.24280813378934524,0.31171754691082665,0.5615405685888033,0.24621275841776682,0.3097783989813223,0.6066193679917374,0.23863231036904245,0.2525029440412254,0.6575422079510113,0.22518045271392037,0.27185815218708415,0.5276308641149962,0.24923653534825863,0.3011794407228344,0.4311305792318427,0.24525700288305854,0.27177741787773296,0.5810745584738798,0.24342691596826546,0.2802278453363463,0.5153566228058405,0.2497641741359991,0.2772009137396246,0.6148712763217512,0.23680458987621192,0.3147700801574051,0.24194164080703992,0.1834058832506372,0.28000605719795946
5.0,0.0,5.0,0.0,0.0,0.0,0.0,0.0,208.70620879999976,212.21969039999976,None,left,1.576632299999801,214.43633709999995,sn16,208.70620879999976,212.21969039999976,214.43633709999995,None,False,4.0,['p'],False,0.16,0.2,0.2,2.0,2.0,0.8198746470064713,0.0018667197674524,wait_cost,1.0,3.0,,,sn16,1,2023-03-21_11h29.14.221,threat_forest,2021.2.3,60.07312100281201,False,63.0,0.2666666666666666,0.4083333333333333,-1.5022222222222226,-1.2061111111111114,0,0,0,0.4552911165578776,0.0018667197674524,0.16,0.16,0.2,0.8,-1.8000000000000005,-1.5600000000000005,2.4399999999999995,2.4399999999999995,0.0,2.0,-1.0,4.0,0,0,0,0.5848048713851672,0.24280813378934524,0.31171754691082665,0.5689707402013541,0.24524303699607733,0.2742844026365088,0.6066193679917374,0.23863231036904245,0.2525029440412254,0.41731510466928506,0.24316320808414868,0.27423906212405874,0.4863004263544832,0.249812321681931,0.3033403545662503,0.4311305792318427,0.24525700288305854,0.27177741787773296,0.40936018455277895,0.24178442385569374,0.2786669407545531,0.5153566228058405,0.2497641741359991,0.2772009137396246,0.3256336266252219,0.2195963678361275,0.3016167593864194,0.5107509223089721,0.2498844176695065,0.37196313006974535
5.0,0.0,5.0,0.0,1.0,0.0,1.0,0.0,,,,left,1.2665138000002116,218.76632010000003,sn16,208.70620879999976,212.21969039999976,218.76632010000003,None,False,3.0,['p'],False,0.16,0.2,0.2,2.0,2.0,0.8198746470064713,0.0173973197132958,wait_cost,1.0,2.0,218.04354809999995,None,sn16,1,2023-03-21_11h29.14.221,threat_forest,2021.2.3,60.07312100281201,False,63.0,0.2666666666666666,0.4083333333333333,-1.5022222222222226,-1.2061111111111114,0,0,0,0.2362680865709459,0.0173973197132958,0.16,0.16,0.2,0.8,-1.8000000000000005,-1.5600000000000005,1.4399999999999995,1.4399999999999995,0.0,2.0,-1.0,3.0,0,0,0,0.5848048713851672,0.24280813378934524,0.31171754691082665,0.5689707402013541,0.24524303699607733,0.2742844026365088,0.6066193679917374,0.23863231036904245,0.2525029440412254,0.41731510466928506,0.24316320808414868,0.27423906212405874,0.4863004263544832,0.249812321681931,0.3033403545662503,0.4311305792318427,0.24525700288305854,0.27177741787773296,0.40936018455277895,0.24178442385569374,0.2786669407545531,0.5153566228058405,0.2497641741359991,0.2772009137396246,0.3256336266252219,0.2195963678361275,0.3016167593864194,0.5742244870020508,0.2444907255292824,0.36450225347969556
5.0,0.0,5.0,0.0,2.0,0.0,2.0,0.0,,,,right,2.6843395000000783,222.92923990000008,sn16,208.70620879999976,212.21969039999976,222.92923990000008,None,True,2.0,['p'],False,0.16,0.2,0.2,2.0,2.0,0.8198746470064713,-0.0054167298692271,unsucc_cost,1.0,0.0,222.0730398999999,None,sn16,1,2023-03-21_11h29.14.221,threat_forest,2021.2.3,60.07312100281201,True,63.0,0.2666666666666666,0.4083333333333333,-1.5022222222222226,-1.2061111111111114,0,0,1,0.9874347014232052,-0.0054167298692271,0.16,0.16,0.2,0.8,-1.8000000000000005,-1.5600000000000005,0.4399999999999997,0.4399999999999997,0.0,2.0,-1.0,2.0,0,0,0,0.5848048713851672,0.24280813378934524,0.31171754691082665,0.5689707402013541,0.24524303699607733,0.2742844026365088,0.6066193679917374,0.23863231036904245,0.2525029440412254,0.41731510466928506,0.24316320808414868,0.27423906212405874,0.4863004263544832,0.249812321681931,0.3033403545662503,0.4311305792318427,0.24525700288305854,0.27177741787773296,0.40936018455277895,0.24178442385569374,0.2786669407545531,0.5153566228058405,0.2497641741359991,0.2772009137396246,0.3256336266252219,0.2195963678361275,0.3016167593864194,0.4807363026038902,0.24962890996263107,0.37160969657386833
6.0,0.0,6.0,0.0,0.0,0.0,0.0,0.0,228.8830015999997,232.3846070999998,None,left,1.924877899999956,233.8878282000001,sn16,233.8878282000001,None,228.8830015999997,232.3846070999998,True,4.0,['p'],True,0.4444444444444445,0.6666666666666666,0.3333333333333333,1.0,1.0,0.9656336071428248,0.045641051707109,succ_gain,0.0,5.0,,,sn16,1,2023-03-21_11h29.14.221,threat_forest,2021.2.3,60.07312100281201,True,39.0,0.4333333333333333,0.35,-1.2000000000000002,-1.3511111111111114,1,1,1,0.6548625371566192,0.045641051707109,0.4444444444444445,0.4444444444444445,0.6666666666666666,0.6666666666666667,-1.0,-1.0,3.0,3.0,1.0,1.0,-1.0,4.0,0,1,1,0.552141006907901,0.24728131539863019,0.2333486050200726,0.5640205305385123,0.24590137166956744,0.2983809400253712,0.6066193679917374,0.23863231036904245,0.2525029440412254,0.6935399541676751,0.21254228614077422,0.2701848637638339,0.5685859910950815,0.24529596182550545,0.28639055224400445,0.7065820892414417,0.20732384040464102,0.2751658344577374,0.6502464457192737,0.22742600554872527,0.2650217483356019,0.5153566228058405,0.2497641741359991,0.2772009137396246,0.7256660627321719,0.19907482813095945,0.2859308626198718,0.6824045243756115,0.21672858948730694,0.32610001147172873
6.0,0.0,6.0,0.0,1.0,0.0,1.0,0.0,,,,left,2.812557199999901,239.54012550000016,sn16,239.54012550000016,None,228.8830015999997,232.3846070999998,True,5.0,['p'],True,0.4444444444444445,0.6666666666666666,0.3333333333333333,1.0,1.0,0.9656336071428248,0.0650358813584198,figh_cost,0.0,2.0,237.85820049999984,None,sn16,1,2023-03-21_11h29.14.221,threat_forest,2021.2.3,60.07312100281201,True,39.0,0.4333333333333333,0.35,-1.2000000000000002,-1.3511111111111114,1,1,1,1.0340941051014714,0.0650358813584198,0.4444444444444445,0.4444444444444445,0.6666666666666666,0.6666666666666667,-1.0,-1.0,4.0,4.0,1.0,1.0,1.0,5.0,0,1,1,0.552141006907901,0.24728131539863019,0.2333486050200726,0.5640205305385123,0.24590137166956744,0.2983809400253712,0.3934123584581956,0.23863907467055587,0.3707573375859283,0.6935399541676751,0.21254228614077422,0.2701848637638339,0.5685859910950815,0.24529596182550545,0.28639055224400445,0.7065820892414417,0.20732384040464102,0.2751658344577374,0.6502464457192737,0.22742600554872527,0.2650217483356019,0.5153566228058405,0.2497641741359991,0.2772009137396246,0.7256660627321719,0.19907482813095945,0.2859308626198718,0.7473753430063242,0.18880543967250346,0.2874750456120594
6.0,0.0,6.0,0.0,2.0,0.0,2.0,0.0,,,,left,2.3734501000003547,247.7385998,sn16,242.37110549999989,244.38576139999986,247.7385998,None,False,2.0,['p'],False,0.2,0.2,0.0,0.0,1.0,0.4554859150035951,-0.0074208352385306,wait_cost,1.0,1.0,244.38576139999984,None,sn16,1,2023-03-21_11h29.14.221,threat_forest,2021.2.3,60.07312100281201,False,39.0,0.4333333333333333,0.35,-1.2000000000000002,-1.3511111111111114,0,0,0,0.8643446349838737,-0.0074208352385306,0.2,0.2,0.2,1.0,-1.4,-1.4,0.5999999999999999,0.5999999999999999,0.0,1.0,-1.0,2.0,0,0,0,0.5848048713851672,0.24280813378934524,0.31171754691082665,0.5763699885982851,0.2441676248414978,0.23492188652614665,0.6066193679917374,0.23863231036904245,0.2525029440412254,0.41731510466928506,0.24316320808414868,0.27423906212405874,0.5276308641149962,0.24923653534825865,0.30117944072283453,0.4311305792318427,0.24525700288305854,0.27177741787773296,0.44328228166998634,0.24678310042743726,0.2834173180038662,0.5153566228058405,0.2497641741359991,0.2772009137396246,0.38016841581292693,0.23564039143121643,0.3138802104455639,0.4724926962634931,0.24924334824114755,0.37107636460996496
6.0,0.0,6.0,0.0,3.0,0.0,3.0,0.0,,,,left,1.2113045999999486,254.4458983999998,sn16,254.4458983999998,None,250.13067169999977,252.14495439999973,True,1.0,['p'],True,0.4444444444444445,0.6666666666666666,0.3333333333333333,1.0,1.0,0.9656336071428248,0.0755387898186251,unsucc_cost,0.0,0.0,252.14495439999973,None,sn16,1,2023-03-21_11h29.14.221,threat_forest,2021.2.3,60.07312100281201,True,39.0,0.4333333333333333,0.35,-1.2000000000000002,-1.3511111111111114,1,1,1,0.1916979606062218,0.0755387898186251,1.0,0.4444444444444445,0.6666666666666666,0.6666666666666667,-1.0,-1.0,0.0,0.0,1.0,1.0,-1.0,1.0,1,1,1,0.552141006907901,0.24728131539863019,0.2333486050200726,0.5640205305385123,0.24590137166956744,0.2983809400253712,0.6066193679917374,0.23863231036904245,0.2525029440412254,0.6935399541676751,0.21254228614077422,0.2701848637638339,0.5685859910950815,0.24529596182550545,0.28639055224400445,0.7065820892414417,0.20732384040464102,0.2751658344577374,0.6502464457192737,0.22742600554872527,0.2650217483356019,0.9512333571576697,0.04638845738821895,0.24682086376374607,0.9865403826153741,0.013278456084485342,0.14391507075479443,0.7786565492128621,0.17235052758077982,0.2647136300131022
7.0,0.0,7.0,0.0,0.0,0.0,0.0,0.0,261.2641282999998,264.7665158,None,left,1.8768930000001087,266.62827449999986,sn16,261.2641282999998,264.7665158,266.62827449999986,None,False,5.0,['r'],False,0.25,0.5,0.5,2.0,2.0,0.9463946303571862,-0.0268916481970431,wait_cost,1.0,4.0,,,sn16,1,2023-03-21_11h29.14.221,threat_forest,2021.2.3,60.07312100281201,False,70.0,0.4166666666666666,0.425,-1.0833333333333337,-1.1416666666666668,0,0,0,0.6296177501191184,-0.0268916481970431,0.25,0.25,0.5,0.5,-1.5,-1.5,3.5,3.5,0.0,2.0,-1.0,5.0,0,0,0,0.5848048713851672,0.24280813378934524,0.31171754691082665,0.5578148915354062,0.2466574383167492,0.3260546886002462,0.6066193679917374,0.23863231036904245,0.2525029440412254,0.6000849703637581,0.23998299870728565,0.27381800361822106,0.5173116086673828,0.2497003082053474,0.3029199703750264,0.4311305792318427,0.24525700288305854,0.27177741787773296,0.48640278348836896,0.24981511570313578,0.2862987239477247,0.5153566228058405,0.2497641741359991,0.2772009137396246,0.4526734853616628,0.24776020101218732,0.32314413920766594,0.3938369677092284,0.23872941057482858,0.3565328590919389
7.0,0.0,7.0,0.0,1.0,0.0,1.0,0.0,,,,left,1.6528204000001097,273.7448519999998,sn16,261.2641282999998,264.7665158,273.7448519999998,None,False,4.0,['r'],False,0.25,0.5,0.5,2.0,2.0,0.9463946303571862,0.019750775623714,wait_cost,1.0,3.0,270.54444319999993,None,sn16,1,2023-03-21_11h29.14.221,threat_forest,2021.2.3,60.07312100281201,False,70.0,0.4166666666666666,0.425,-1.0833333333333337,-1.1416666666666668,0,0,0,0.5024831619983238,0.019750775623714,0.25,0.25,0.5,0.5,-1.5,-1.5,2.5,2.5,0.0,2.0,-1.0,4.0,0,0,0,0.5848048713851672,0.24280813378934524,0.31171754691082665,0.5578148915354062,0.2466574383167492,0.3260546886002462,0.6066193679917374,0.23863231036904245,0.2525029440412254,0.6000849703637581,0.23998299870728565,0.27381800361822106,0.5173116086673828,0.2497003082053474,0.3029199703750264,0.4311305792318427,0.24525700288305854,0.27177741787773296,0.48640278348836896,0.24981511570313578,0.2862987239477247,0.5153566228058405,0.2497641741359991,0.2772009137396246,0.4526734853616628,0.24776020101218732,0.32314413920766594,0.5836843014182626,0.24299693769613737,0.3624359570754758
7.0,0.0,7.0,0.0,2.0,0.0,2.0,0.0,,,,right,2.45617940000011,280.27317029999995,sn16,261.2641282999998,264.7665158,280.27317029999995,None,True,3.0,['r'],False,0.25,0.5,0.5,2.0,2.0,0.9463946303571862,0.0240885416666666,unsucc_cost,1.0,1.0,277.4379334,None,sn16,1,2023-03-21_11h29.14.221,threat_forest,2021.2.3,60.07312100281201,True,70.0,0.4166666666666666,0.425,-1.0833333333333337,-1.1416666666666668,0,0,1,0.8986070532198466,0.0240885416666666,0.25,0.25,0.5,0.5,-1.5,-1.5,1.5,1.5,0.0,2.0,-1.0,3.0,0,0,0,0.5848048713851672,0.24280813378934524,0.31171754691082665,0.5578148915354062,0.2466574383167492,0.3260546886002462,0.6066193679917374,0.23863231036904245,0.2525029440412254,0.6000849703637581,0.23998299870728565,0.27381800361822106,0.5173116086673828,0.2497003082053474,0.3029199703750264,0.4311305792318427,0.24525700288305854,0.27177741787773296,0.48640278348836896,0.24981511570313578,0.2862987239477247,0.5153566228058405,0.2497641741359991,0.2772009137396246,0.4526734853616628,0.24776020101218732,0.32314413920766594,0.6009549532689155,0.23980809741047104,0.35802496304426157
7.0,0.0,7.0,0.0,3.0,0.0,3.0,0.0,,,,right,2.271968300000026,285.44973329999993,sn16,261.2641282999998,264.7665158,285.44973329999993,None,True,1.0,['r'],False,0.25,0.5,0.5,2.0,2.0,0.9463946303571862,0.1063368055555555,succ_gain,1.0,3.0,284.7645518999998,None,sn16,1,2023-03-21_11h29.14.221,threat_forest,2021.2.3,60.07312100281201,True,70.0,0.4166666666666666,0.425,-1.0833333333333337,-1.1416666666666668,0,0,1,0.8206465482967911,0.1063368055555555,1.0,0.25,0.5,0.5,-1.5,-1.5,-0.5,0.0,0.0,2.0,-1.0,1.0,1,0,0,0.5848048713851672,0.24280813378934524,0.31171754691082665,0.5578148915354062,0.2466574383167492,0.3260546886002462,0.6066193679917374,0.23863231036904245,0.2525029440412254,0.6000849703637581,0.23998299870728565,0.27381800361822106,0.5173116086673828,0.2497003082053474,0.3029199703750264,0.4311305792318427,0.24525700288305854,0.27177741787773296,0.48640278348836896,0.24981511570313578,0.2862987239477247,0.9512333571576697,0.04638845738821895,0.24682086376374607,0.9865403826153741,0.013278456084485342,0.14391507075479443,0.8539233954470079,0.12473823015526089,0.19885346112964294
7.0,0.0,7.0,0.0,4.0,0.0,4.0,0.0,,,,right,2.1821383000001333,290.6466105999998,sn16,261.2641282999998,264.7665158,290.6466105999998,None,True,3.0,['r'],False,0.25,0.5,0.5,2.0,2.0,0.9463946303571862,0.0104166666666666,unsucc_cost,1.0,1.0,289.75991909999993,None,sn16,1,2023-03-21_11h29.14.221,threat_forest,2021.2.3,60.07312100281201,True,70.0,0.4166666666666666,0.425,-1.0833333333333337,-1.1416666666666668,0,0,1,0.7803052676205208,0.0104166666666666,0.25,0.25,0.5,0.5,-1.5,-1.5,1.5,1.5,0.0,2.0,1.0,3.0,0,0,0,0.5848048713851672,0.24280813378934524,0.31171754691082665,0.5578148915354062,0.2466574383167492,0.3260546886002462,0.3934123584581956,0.23863907467055587,0.3707573375859283,0.6000849703637581,0.23998299870728565,0.27381800361822106,0.5173116086673828,0.2497003082053474,0.3029199703750264,0.4311305792318427,0.24525700288305854,0.27177741787773296,0.48640278348836896,0.24981511570313578,0.2862987239477247,0.5153566228058405,0.2497641741359991,0.2772009137396246,0.4526734853616628,0.24776020101218732,0.32314413920766594,0.5458701567473261,0.2478959287199757,0.3692125335826959
7.0,0.0,7.0,0.0,5.0,0.0,5.0,0.0,,,,left,2.188769500000035,295.7277055,sn16,295.7277055,None,292.85732770000004,294.8713735000001,True,1.0,['r'],True,0.3333333333333333,0.3333333333333333,0.0,0.0,2.0,0.5793801642856949,0.3333333333333332,unsucc_cost,0.0,0.0,294.8713735000001,None,sn16,1,2023-03-21_11h29.14.221,threat_forest,2021.2.3,60.07312100281201,True,70.0,0.4166666666666666,0.425,-1.0833333333333337,-1.1416666666666668,1,0,1,0.7833395137729997,0.3333333333333332,1.0,0.3333333333333333,0.3333333333333333,1.0,-0.6666666666666669,-0.6666666666666669,0.3333333333333331,0.3333333333333331,1.0,2.0,-1.0,1.0,1,0,1,0.552141006907901,0.24728131539863019,0.2333486050200726,0.5763699885982851,0.2441676248414978,0.23492188652614665,0.6066193679917374,0.23863231036904245,0.2525029440412254,0.4987292197144766,0.24999838511746592,0.27514403695047207,0.6020365142328086,0.23958854976321783,0.2649707563679643,0.7065820892414417,0.20732384040464102,0.2751658344577374,0.558402165541819,0.24658918706002592,0.2832330368975238,0.9512333571576697,0.04638845738821895,0.24682086376374607,0.9865403826153741,0.013278456084485342,0.14391507075479443,0.9959656099368989,0.004018113759919927,0.031866197684407974
8.0,0.0,8.0,0.0,0.0,0.0,0.0,0.0,303.1499889000001,306.64316069999995,None,left,1.0029500999999073,309.97049479999987,sn16,309.97049479999987,None,303.1499889000001,306.64316069999995,True,5.0,['p'],True,0.2777777777777778,0.3333333333333333,0.1666666666666666,1.0,2.0,0.8929352898779304,0.0153029375123799,succ_gain,0.0,6.0,,,sn16,1,2023-03-21_11h29.14.221,threat_forest,2021.2.3,60.07312100281201,True,54.0,0.2777777777777778,0.3472222222222222,-1.1882716049382718,-1.1358024691358026,1,0,1,0.0029457569943397,0.0153029375123799,0.2777777777777778,0.2777777777777778,0.3333333333333333,0.8333333333333334,-1.1666666666666663,-1.0555555555555556,3.9444444444444446,3.9444444444444446,1.0,2.0,-1.0,5.0,0,0,1,0.552141006907901,0.24728131539863019,0.2333486050200726,0.570206181959371,0.24507109201468769,0.26799082759067616,0.6066193679917374,0.23863231036904245,0.2525029440412254,0.4987292197144766,0.24999838511746592,0.27514403695047207,0.5516025121383441,0.24733718074101205,0.2940512033466932,0.7065820892414417,0.20732384040464102,0.2751658344577374,0.5104880679669695,0.24989000043032017,0.2863698889249406,0.5153566228058405,0.2497641741359991,0.2772009137396246,0.4940537469175357,0.24996464207427932,0.3248291314365485,0.565759867006371,0.24567563989130436,0.3661412976807715
8.0,0.0,8.0,0.0,1.0,0.0,1.0,0.0,,,,left,1.372891499999696,314.6228658,sn16,310.9905085999999,313.00499549999995,314.6228658,None,False,6.0,['p'],False,0.1975308641975308,0.2222222222222222,0.1111111111111111,1.0,2.0,0.7461067557824965,-0.0870428740192486,wait_cost,1.0,5.0,313.00499549999995,None,sn16,1,2023-03-21_11h29.14.221,threat_forest,2021.2.3,60.07312100281201,False,54.0,0.2777777777777778,0.3472222222222222,-1.1882716049382718,-1.1358024691358026,0,0,0,0.316919099628089,-0.0870428740192486,0.1975308641975308,0.1975308641975308,0.2222222222222222,0.8888888888888888,-1.4444444444444444,-1.3209876543209875,4.679012345679013,4.679012345679013,0.0,2.0,1.0,6.0,0,0,0,0.5848048713851672,0.24280813378934524,0.31171754691082665,0.572263302329147,0.24477801513648628,0.25726355127094,0.3934123584581956,0.23863907467055587,0.3707573375859283,0.4306945438405131,0.2451967537465255,0.2745083027924193,0.5230469168068261,0.2494688396256992,0.30205127372693585,0.4311305792318427,0.24525700288305854,0.27177741787773296,0.4411695259811216,0.24653897532671407,0.2831853193322544,0.5153566228058405,0.2497641741359991,0.2772009137396246,0.3766957674643473,0.23479606623879368,0.3132348398741539,0.19417623168199474,0.15647182273177507,0.24274925863106614
8.0,0.0,8.0,0.0,2.0,0.0,2.0,0.0,,,,left,1.769204400000035,319.6432414000001,sn16,319.6432414000001,None,316.02849609999976,318.0337282999999,True,5.0,['p'],True,0.2777777777777778,0.3333333333333333,0.1666666666666666,1.0,2.0,0.8929352898779304,0.0481283927074388,figh_cost,0.0,2.0,318.0337282999999,None,sn16,1,2023-03-21_11h29.14.221,threat_forest,2021.2.3,60.07312100281201,True,54.0,0.2777777777777778,0.3472222222222222,-1.1882716049382718,-1.1358024691358026,1,0,1,0.5705299540087359,0.0481283927074388,0.2777777777777778,0.2777777777777778,0.3333333333333333,0.8333333333333334,-1.1666666666666663,-1.0555555555555556,3.9444444444444446,3.9444444444444446,1.0,2.0,-1.0,5.0,0,0,1,0.552141006907901,0.24728131539863019,0.2333486050200726,0.570206181959371,0.24507109201468769,0.26799082759067616,0.6066193679917374,0.23863231036904245,0.2525029440412254,0.4987292197144766,0.24999838511746592,0.27514403695047207,0.5516025121383441,0.24733718074101205,0.2940512033466932,0.7065820892414417,0.20732384040464102,0.2751658344577374,0.5104880679669695,0.24989000043032017,0.2863698889249406,0.5153566228058405,0.2497641741359991,0.2772009137396246,0.4940537469175357,0.24996464207427932,0.3248291314365485,0.6912266193403392,0.213432380055665,0.3215404980354618
8.0,0.0,8.0,0.0,3.0,0.0,3.0,0.0,,,,left,2.0000731999998607,324.5141159,sn16,324.5141159,None,316.02849609999976,318.0337282999999,True,2.0,['p'],True,0.2777777777777778,0.3333333333333333,0.1666666666666666,1.0,2.0,0.8929352898779304,0.0281235946229213,unsucc_cost,0.0,0.0,323.4452117000001,None,sn16,1,2023-03-21_11h29.14.221,threat_forest,2021.2.3,60.07312100281201,True,54.0,0.2777777777777778,0.3472222222222222,-1.1882716049382718,-1.1358024691358026,1,0,1,0.693183779890112,0.0281235946229213,0.2777777777777778,0.2777777777777778,0.3333333333333333,0.8333333333333334,-1.1666666666666663,-1.0555555555555556,0.9444444444444444,0.9444444444444444,1.0,2.0,-1.0,2.0,0,0,1,0.552141006907901,0.24728131539863019,0.2333486050200726,0.570206181959371,0.24507109201468769,0.26799082759067616,0.6066193679917374,0.23863231036904245,0.2525029440412254,0.4987292197144766,0.24999838511746592,0.27514403695047207,0.5516025121383441,0.24733718074101205,0.2940512033466932,0.7065820892414417,0.20732384040464102,0.2751658344577374,0.5104880679669695,0.24989000043032017,0.2863698889249406,0.5153566228058405,0.2497641741359991,0.2772009137396246,0.4940537469175357,0.24996464207427932,0.3248291314365485,0.6167989278122136,0.23635801046191732,0.35325259705100487
9.0,0.0,9.0,0.0,0.0,0.0,0.0,0.0,330.1552177999997,333.66985410000007,None,left,1.0316533999998685,337.14340360000006,sn16,337.14340360000006,None,330.1552177999997,333.66985410000007,True,5.0,['p'],True,0.21875,0.25,0.125,1.0,1.0,0.7908280489481783,-0.003347083026002,unsucc_cost,0.0,3.0,,,sn16,1,2023-03-21_11h29.14.221,threat_forest,2021.2.3,60.07312100281201,True,61.0,0.325,0.3013888888888889,-1.354375,-1.271323302469136,0,0,1,0.0311627579349118,-0.003347083026002,0.21875,0.21875,0.25,0.875,-1.625,-1.46875,3.53125,3.53125,1.0,1.0,-1.0,5.0,0,0,0,0.552141006907901,0.24728131539863019,0.2333486050200726,0.5717492535393549,0.24485204461654536,0.2599731976042641,0.6066193679917374,0.23863231036904245,0.2525029440412254,0.44755998596239627,0.2472500449277359,0.27478015775992554,0.5043927787686197,0.24998070349468993,0.3039722879222393,0.4311305792318427,0.24525700288305854,0.27177741787773296,0.45938764945119376,0.24835063698290083,0.28490699029685546,0.5153566228058405,0.2497641741359991,0.2772009137396246,0.4069173122676854,0.24133561324452843,0.31823342481006434,0.48926047578023935,0.24988466261953318,0.3719634688992285
9.0,0.0,9.0,0.0,1.0,0.0,1.0,0.0,,,,right,1.3501380000002428,342.9644877999999,sn16,342.9644877999999,None,330.1552177999997,333.66985410000007,False,3.0,['p'],True,0.21875,0.25,0.125,1.0,1.0,0.7908280489481783,0.0119374428081254,wait_cost,0.0,2.0,340.2129761000001,None,sn16,1,2023-03-21_11h29.14.221,threat_forest,2021.2.3,60.07312100281201,False,61.0,0.325,0.3013888888888889,-1.354375,-1.271323302469136,0,0,0,0.3002068094484048,0.0119374428081254,0.21875,0.21875,0.25,0.875,-1.625,-1.46875,1.53125,1.53125,1.0,1.0,-1.0,3.0,0,0,0,0.552141006907901,0.24728131539863019,0.2333486050200726,0.5717492535393549,0.24485204461654536,0.2599731976042641,0.6066193679917374,0.23863231036904245,0.2525029440412254,0.44755998596239627,0.2472500449277359,0.27478015775992554,0.5043927787686197,0.24998070349468993,0.3039722879222393,0.4311305792318427,0.24525700288305854,0.27177741787773296,0.45938764945119376,0.24835063698290083,0.28490699029685546,0.5153566228058405,0.2497641741359991,0.2772009137396246,0.4069173122676854,0.24133561324452843,0.31823342481006434,0.552079281268198,0.24728774846258791,0.36837126238535856
9.0,0.0,9.0,0.0,2.0,0.0,2.0,0.0,,,,right,0.9799859999998262,348.51176209999994,sn16,344.3428690999999,346.35712239999975,348.51176209999994,None,True,2.0,['p'],False,0.32,0.4,0.2,1.0,1.0,0.9455672104350704,0.0225587820034484,succ_gain,1.0,3.0,346.3571223999997,None,sn16,1,2023-03-21_11h29.14.221,threat_forest,2021.2.3,60.07312100281201,True,61.0,0.325,0.3013888888888889,-1.354375,-1.271323302469136,1,1,1,-0.0202169931340243,0.0225587820034484,0.32,0.32,0.4,0.8,-1.4,-1.24,0.76,0.76,0.0,1.0,-1.0,2.0,0,1,1,0.5848048713851672,0.24280813378934524,0.31171754691082665,0.5689707402013541,0.24524303699607733,0.2742844026365088,0.6066193679917374,0.23863231036904245,0.2525029440412254,0.539735476590898,0.2484210919000942,0.2749352039314243,0.5276308641149962,0.24923653534825865,0.30117944072283453,0.7065820892414417,0.20732384040464102,0.2751658344577374,0.5469677925845864,0.24779402645973128,0.2843780282950049,0.5153566228058405,0.2497641741359991,0.2772009137396246,0.5569192253082921,0.2467602017903039,0.3223797772354918,0.5948905361090647,0.2409957861569343,0.3596678449393311
9.0,0.0,9.0,0.0,3.0,0.0,3.0,0.0,,,,right,1.040865599999961,354.88482620000013,sn16,344.3428690999999,346.35712239999975,354.88482620000013,None,True,3.0,['p'],False,0.32,0.4,0.2,1.0,1.0,0.9455672104350704,0.0682738046386717,unsucc_cost,1.0,1.0,351.535758,None,sn16,1,2023-03-21_11h29.14.221,threat_forest,2021.2.3,60.07312100281201,True,61.0,0.325,0.3013888888888889,-1.354375,-1.271323302469136,1,1,1,0.0400526746695741,0.0682738046386717,0.32,0.32,0.4,0.8,-1.4,-1.24,1.76,1.76,0.0,1.0,1.0,3.0,0,1,1,0.5848048713851672,0.24280813378934524,0.31171754691082665,0.5689707402013541,0.24524303699607733,0.2742844026365088,0.3934123584581956,0.23863907467055587,0.3707573375859283,0.539735476590898,0.2484210919000942,0.2749352039314243,0.5276308641149962,0.24923653534825865,0.30117944072283453,0.7065820892414417,0.20732384040464102,0.2751658344577374,0.5469677925845864,0.24779402645973128,0.2843780282950049,0.5153566228058405,0.2497641741359991,0.2772009137396246,0.5569192253082921,0.2467602017903039,0.3223797772354918,0.757322484346959,0.1837851390495091,0.2805306664336892
9.0,0.0,9.0,0.0,4.0,0.0,4.0,0.0,,,,right,1.424115399999664,360.1774415,sn16,344.3428690999999,346.35712239999975,360.1774415,None,True,1.0,['p'],False,0.32,0.4,0.2,1.0,1.0,0.9455672104350704,0.0943,figh_cost,1.0,0.0,357.96296859999984,None,sn16,1,2023-03-21_11h29.14.221,threat_forest,2021.2.3,60.07312100281201,True,61.0,0.325,0.3013888888888889,-1.354375,-1.271323302469136,1,1,1,0.353550849031882,0.0943,1.0,0.32,0.4,0.8,-1.4,-1.24,-0.24,0.0,0.0,1.0,-1.0,1.0,1,1,1,0.5848048713851672,0.24280813378934524,0.31171754691082665,0.5689707402013541,0.24524303699607733,0.2742844026365088,0.6066193679917374,0.23863231036904245,0.2525029440412254,0.539735476590898,0.2484210919000942,0.2749352039314243,0.5276308641149962,0.24923653534825865,0.30117944072283453,0.7065820892414417,0.20732384040464102,0.2751658344577374,0.5469677925845864,0.24779402645973128,0.2843780282950049,0.9512333571576697,0.04638845738821895,0.24682086376374607,0.9865403826153741,0.013278456084485342,0.14391507075479443,0.8273876133842467,0.142817350602567,0.22386157857633018
10.0,0.0,10.0,0.0,0.0,0.0,0.0,0.0,367.0926110999999,370.5894438,None,right,1.945383700000093,372.3396416999999,sn16,372.3396416999999,None,367.0926110999999,370.5894438,False,5.0,['p'],True,0.3950617283950617,0.4444444444444444,0.1111111111111111,1.0,2.0,0.8733423231021583,-0.0076247432762748,wait_cost,0.0,4.0,,,sn16,1,2023-03-21_11h29.14.221,threat_forest,2021.2.3,60.07312100281201,False,51.0,0.5555555555555556,0.4402777777777777,-0.2376543209876542,-0.7960146604938272,1,0,0,0.6654592326785581,-0.0076247432762748,0.3950617283950617,0.3950617283950617,0.4444444444444444,0.8888888888888888,-0.5555555555555556,-0.5308641975308641,4.469135802469136,4.469135802469136,1.0,2.0,-1.0,5.0,0,0,1,0.552141006907901,0.24728131539863019,0.2333486050200726,0.572263302329147,0.24477801513648628,0.25726355127094,0.6066193679917374,0.23863231036904245,0.2525029440412254,0.5668109851221418,0.2455362922670089,0.2745532575627401,0.6129941706434829,0.23723231740059145,0.2561278665094481,0.7065820892414417,0.20732384040464102,0.2751658344577374,0.6103573909989506,0.23782124625190468,0.2749006261203058,0.5153566228058405,0.2497641741359991,0.2772009137396246,0.6631750649857586,0.2233738981668934,0.3045041621667271,0.47165471357226263,0.24919654473732952,0.37101162321262715
10.0,0.0,10.0,0.0,1.0,0.0,1.0,0.0,,,,right,1.2969272000000274,378.38472550000006,sn16,374.3143759999998,376.32921369999985,378.38472550000006,None,True,4.0,['p'],False,0.5555555555555556,0.6666666666666666,0.1666666666666666,1.0,2.0,0.8929352898779306,0.1084332506120598,figh_cost,1.0,1.0,376.3292136999999,None,sn16,1,2023-03-21_11h29.14.221,threat_forest,2021.2.3,60.07312100281201,True,51.0,0.5555555555555556,0.4402777777777777,-0.2376543209876542,-0.7960146604938272,1,1,1,0.2599977742293231,0.1084332506120598,0.5555555555555556,0.5555555555555556,0.6666666666666666,0.8333333333333334,0.1666666666666667,0.0555555555555556,4.055555555555555,4.055555555555555,0.0,2.0,-1.0,4.0,0,1,1,0.5848048713851672,0.24280813378934524,0.31171754691082665,0.570206181959371,0.24507109201468769,0.26799082759067616,0.6066193679917374,0.23863231036904245,0.2525029440412254,0.6935399541676751,0.21254228614077422,0.2701848637638339,0.6810587287902101,0.21721773672887318,0.18101357164970222,0.7065820892414417,0.20732384040464102,0.2751658344577374,0.7321514115253842,0.19610572212677174,0.23525723773479076,0.5153566228058405,0.2497641741359991,0.2772009137396246,0.8371395568250034,0.13633691922384036,0.23797635352334884,0.8581830718701653,0.12170488702565202,0.19465756003686255
10.0,0.0,10.0,0.0,2.0,0.0,2.0,0.0,,,,left,0.8037632000000485,385.4817266,sn16,385.4817266,None,379.7095949,381.7243484999999,True,1.0,['p'],True,0.3950617283950617,0.4444444444444444,0.1111111111111111,1.0,2.0,0.8733423231021583,0.2354943065205023,unsucc_cost,0.0,0.0,381.7243484999999,None,sn16,1,2023-03-21_11h29.14.221,threat_forest,2021.2.3,60.07312100281201,True,51.0,0.5555555555555556,0.4402777777777777,-0.2376543209876542,-0.7960146604938272,1,0,1,-0.2184505805479965,0.2354943065205023,1.0,0.3950617283950617,0.4444444444444444,0.8888888888888888,-0.5555555555555556,-0.5308641975308641,0.4691358024691359,0.4691358024691359,1.0,2.0,-1.0,1.0,1,0,1,0.552141006907901,0.24728131539863019,0.2333486050200726,0.572263302329147,0.24477801513648628,0.25726355127094,0.6066193679917374,0.23863231036904245,0.2525029440412254,0.5668109851221418,0.2455362922670089,0.2745532575627401,0.6129941706434829,0.23723231740059145,0.2561278665094481,0.7065820892414417,0.20732384040464102,0.2751658344577374,0.6103573909989506,0.23782124625190468,0.2749006261203058,0.9512333571576697,0.04638845738821895,0.24682086376374607,0.9865403826153741,0.013278456084485342,0.14391507075479443,0.9800720539203704,0.01953082304467685,0.05332430217794391
11.0,0.0,11.0,0.0,0.0,0.0,0.0,0.0,391.66286230000014,395.1641543999999,None,left,1.2798044999999547,396.6582693,sn16,396.6582693,None,391.66286230000014,395.1641543999999,True,4.0,['r'],True,0.4081632653061224,0.5714285714285714,0.2857142857142857,2.0,2.0,0.9885754083994552,0.0102904310319958,unsucc_cost,0.0,2.0,,,sn16,1,2023-03-21_11h29.14.221,threat_forest,2021.2.3,60.07312100281201,True,14.0,0.5357142857142857,0.5456349206349207,-0.326530612244898,-0.282092466616276,0,0,1,0.2467073318914079,0.0102904310319958,0.4081632653061224,0.4081632653061224,0.5714285714285714,0.7142857142857143,-0.5714285714285715,-0.653061224489796,3.346938775510204,3.346938775510204,1.0,2.0,-1.0,4.0,0,0,0,0.552141006907901,0.24728131539863019,0.2333486050200726,0.5657899807663516,0.24567167843076312,0.28997364820299865,0.6066193679917374,0.23863231036904245,0.2525029440412254,0.6415091125360788,0.22997517106925136,0.27249297106451276,0.6114354938976366,0.23758213069978984,0.257440708368732,0.4311305792318427,0.24525700288305854,0.27177741787773296,0.6211103545834045,0.235332282012682,0.2725352962321524,0.5153566228058405,0.2497641741359991,0.2772009137396246,0.6804438131752659,0.21744003028676973,0.2999685356820091,0.5453540846516047,0.24794300700541508,0.3692776550743574
11.0,0.0,11.0,0.0,1.0,0.0,1.0,0.0,,,,right,0.523011399999632,401.7637547,sn16,397.959539,400.02045670000007,401.7637547,None,True,2.0,['r'],False,0.5,0.5,0.0,0.0,2.0,0.6309297535714574,0.0536521501003592,unsucc_cost,1.0,0.0,400.02045670000007,None,sn16,1,2023-03-21_11h29.14.221,threat_forest,2021.2.3,60.07312100281201,True,14.0,0.5357142857142857,0.5456349206349207,-0.326530612244898,-0.282092466616276,1,0,1,-0.6481520178323402,0.0536521501003592,0.5,0.5,0.5,1.0,0.0,0.0,2.0,2.0,0.0,2.0,-1.0,2.0,0,0,1,0.5848048713851672,0.24280813378934524,0.31171754691082665,0.5763699885982851,0.2441676248414978,0.23492188652614665,0.6066193679917374,0.23863231036904245,0.2525029440412254,0.6000849703637581,0.23998299870728565,0.27381800361822106,0.6659012581752604,0.22247677253586554,0.2007506209920641,0.7065820892414417,0.20732384040464102,0.2751658344577374,0.692715227966597,0.21286084090978255,0.251180079297751,0.5153566228058405,0.2497641741359991,0.2772009137396246,0.7866619271129881,0.16782493954386796,0.26204461756293845,0.7103215533700776,0.20576484418799765,0.31093430521406906
12.0,0.0,12.0,0.0,0.0,0.0,0.0,0.0,407.0018799999998,410.5081359999999,None,left,1.555081599999994,412.8564956,sn16,407.0018799999998,410.5081359999999,412.8564956,None,False,4.0,['p'],False,0.24,0.3,0.2,2.0,2.0,0.9003120349047065,0.0048924551776182,wait_cost,1.0,3.0,,,sn16,1,2023-03-21_11h29.14.221,threat_forest,2021.2.3,60.07312100281201,False,15.0,0.4833333333333333,0.5095238095238095,-0.8977777777777778,-0.6121541950113378,0,0,0,0.4415280201386269,0.0048924551776182,0.24,0.24,0.3,0.8,-1.4,-1.24,2.76,2.76,0.0,2.0,-1.0,4.0,0,0,0,0.5848048713851672,0.24280813378934524,0.31171754691082665,0.5689707402013541,0.24524303699607733,0.2742844026365088,0.6066193679917374,0.23863231036904245,0.2525029440412254,0.47819793553435236,0.24952466998503575,0.2750813172480195,0.5276308641149962,0.24923653534825865,0.30117944072283453,0.4311305792318427,0.24525700288305854,0.27177741787773296,0.47774168740703904,0.2495045675205141,0.2860036016287732,0.5153566228058405,0.2497641741359991,0.2772009137396246,0.4379056460635858,0.24614429120921935,0.3219089982427302,0.5232093975982011,0.24946132386312864,0.371377881488007
12.0,0.0,12.0,0.0,1.0,0.0,1.0,0.0,,,,left,1.0882004000000052,418.5507373999999,sn16,418.5507373999999,None,414.4437493999999,416.44249869999976,True,3.0,['p'],True,0.4444444444444445,0.6666666666666666,0.3333333333333333,1.0,2.0,0.9656336071428248,0.0878193674113966,succ_gain,0.0,5.0,416.44249869999976,None,sn16,1,2023-03-21_11h29.14.221,threat_forest,2021.2.3,60.07312100281201,True,15.0,0.4833333333333333,0.5095238095238095,-0.8977777777777778,-0.6121541950113378,1,0,1,0.0845253226491141,0.0878193674113966,0.4444444444444445,0.4444444444444445,0.6666666666666666,0.6666666666666667,-0.3333333333333335,-0.5555555555555556,2.4444444444444446,2.4444444444444446,1.0,2.0,-1.0,3.0,0,0,1,0.552141006907901,0.24728131539863019,0.2333486050200726,0.5640205305385123,0.24590137166956744,0.2983809400253712,0.6066193679917374,0.23863231036904245,0.2525029440412254,0.6935399541676751,0.21254228614077422,0.2701848637638339,0.6345603687131388,0.23189350717178409,0.23609142546157091,0.7065820892414417,0.20732384040464102,0.2751658344577374,0.6502464457192737,0.22742600554872527,0.2650217483356019,0.5153566228058405,0.2497641741359991,0.2772009137396246,0.7256660627321719,0.19907482813095945,0.2859308626198718,0.8115877048855858,0.15291310216413315,0.237826624138148
12.0,0.0,12.0,0.0,2.0,0.0,2.0,0.0,,,,left,1.1134422000000086,422.3859718999997,sn16,419.6559001999999,421.6704058999999,422.3859718999997,None,False,5.0,['p'],False,0.24,0.3,0.2,2.0,2.0,0.9003120349047065,-0.012394675250724,wait_cost,1.0,4.0,421.6704058999999,None,sn16,1,2023-03-21_11h29.14.221,threat_forest,2021.2.3,60.07312100281201,False,15.0,0.4833333333333333,0.5095238095238095,-0.8977777777777778,-0.6121541950113378,0,0,0,0.1074562979710589,-0.012394675250724,0.24,0.24,0.3,0.8,-1.4,-1.24,3.76,3.76,0.0,2.0,1.0,5.0,0,0,0,0.5848048713851672,0.24280813378934524,0.31171754691082665,0.5689707402013541,0.24524303699607733,0.2742844026365088,0.3934123584581956,0.23863907467055587,0.3707573375859283,0.47819793553435236,0.24952466998503575,0.2750813172480195,0.5276308641149962,0.24923653534825865,0.30117944072283453,0.4311305792318427,0.24525700288305854,0.27177741787773296,0.47774168740703904,0.2495045675205141,0.2860036016287732,0.5153566228058405,0.2497641741359991,0.2772009137396246,0.4379056460635858,0.24614429120921935,0.3219089982427302,0.4521076561600099,0.24770632340151222,0.3689502602001786
12.0,0.0,12.0,0.0,3.0,0.0,3.0,0.0,,,,left,1.5549294000002192,429.27195870000014,sn16,419.6559001999999,421.6704058999999,429.27195870000014,None,False,4.0,['p'],False,0.24,0.3,0.2,2.0,2.0,0.9003120349047065,0.0167818183813442,wait_cost,1.0,3.0,425.5338501000001,None,sn16,1,2023-03-21_11h29.14.221,threat_forest,2021.2.3,60.07312100281201,False,15.0,0.4833333333333333,0.5095238095238095,-0.8977777777777778,-0.6121541950113378,0,0,0,0.4414301426713792,0.0167818183813442,0.24,0.24,0.3,0.8,-1.4,-1.24,2.76,2.76,0.0,2.0,-1.0,4.0,0,0,0,0.5848048713851672,0.24280813378934524,0.31171754691082665,0.5689707402013541,0.24524303699607733,0.2742844026365088,0.6066193679917374,0.23863231036904245,0.2525029440412254,0.47819793553435236,0.24952466998503575,0.2750813172480195,0.5276308641149962,0.24923653534825865,0.30117944072283453,0.4311305792318427,0.24525700288305854,0.27177741787773296,0.47774168740703904,0.2495045675205141,0.2860036016287732,0.5153566228058405,0.2497641741359991,0.2772009137396246,0.4379056460635858,0.24614429120921935,0.3219089982427302,0.5717411671857835,0.2448532049308215,0.36500365660227085
12.0,0.0,12.0,0.0,4.0,0.0,4.0,0.0,,,,left,1.6110990000001948,434.58355930000016,sn16,419.6559001999999,421.6704058999999,434.58355930000016,None,False,3.0,['p'],False,0.24,0.3,0.2,2.0,2.0,0.9003120349047065,0.0383111111111111,wait_cost,1.0,2.0,432.8600118999998,None,sn16,1,2023-03-21_11h29.14.221,threat_forest,2021.2.3,60.07312100281201,False,15.0,0.4833333333333333,0.5095238095238095,-0.8977777777777778,-0.6121541950113378,0,0,0,0.4769165548207963,0.0383111111111111,0.24,0.24,0.3,0.8,-1.4,-1.24,1.76,1.76,0.0,2.0,-1.0,3.0,0,0,0,0.5848048713851672,0.24280813378934524,0.31171754691082665,0.5689707402013541,0.24524303699607733,0.2742844026365088,0.6066193679917374,0.23863231036904245,0.2525029440412254,0.47819793553435236,0.24952466998503575,0.2750813172480195,0.5276308641149962,0.24923653534825865,0.30117944072283453,0.4311305792318427,0.24525700288305854,0.27177741787773296,0.47774168740703904,0.2495045675205141,0.2860036016287732,0.5153566228058405,0.2497641741359991,0.2772009137396246,0.4379056460635858,0.24614429120921935,0.3219089982427302,0.6556512905572329,0.2257726757478678,0.3386103308792072
12.0,0.0,12.0,0.0,5.0,0.0,5.0,0.0,,,,right,1.64980659999992,441.3112981999998,sn16,419.6559001999999,421.6704058999999,441.3112981999998,None,True,2.0,['p'],False,0.24,0.3,0.2,2.0,2.0,0.9003120349047065,-0.1022222222222222,figh_cost,1.0,0.0,438.23814390000007,None,sn16,1,2023-03-21_11h29.14.221,threat_forest,2021.2.3,60.07312100281201,True,15.0,0.4833333333333333,0.5095238095238095,-0.8977777777777778,-0.6121541950113378,0,0,1,0.5006580689213511,-0.1022222222222222,0.24,0.24,0.3,0.8,-1.4,-1.24,0.76,0.76,0.0,2.0,-1.0,2.0,0,0,0,0.5848048713851672,0.24280813378934524,0.31171754691082665,0.5689707402013541,0.24524303699607733,0.2742844026365088,0.6066193679917374,0.23863231036904245,0.2525029440412254,0.47819793553435236,0.24952466998503575,0.2750813172480195,0.5276308641149962,0.24923653534825865,0.30117944072283453,0.4311305792318427,0.24525700288305854,0.27177741787773296,0.47774168740703904,0.2495045675205141,0.2860036016287732,0.5153566228058405,0.2497641741359991,0.2772009137396246,0.4379056460635858,0.24614429120921935,0.3219089982427302,0.15797077689697475,0.13301601054354098,0.21030378056035612
13.0,0.0,13.0,0.0,0.0,0.0,0.0,0.0,446.3994177,449.90854089999993,None,right,1.3348368999995728,452.6191840000001,sn16,446.3994177,449.90854089999993,452.6191840000001,None,True,5.0,['r'],False,0.2857142857142857,0.2857142857142857,0.0,0.0,2.0,0.5445684476282007,0.0313986794861317,unsucc_cost,1.0,3.0,,,sn16,1,2023-03-21_11h29.14.221,threat_forest,2021.2.3,60.07312100281201,True,55.0,0.2928571428571428,0.388095238095238,-1.0485714285714285,-0.9731746031746032,1,0,1,0.2888091121036071,0.0313986794861317,0.2857142857142857,0.2857142857142857,0.2857142857142857,1.0,-0.8571428571428572,-0.8571428571428572,4.142857142857142,4.142857142857142,0.0,2.0,-1.0,5.0,0,0,1,0.5848048713851672,0.24280813378934524,0.31171754691082665,0.5763699885982851,0.2441676248414978,0.23492188652614665,0.6066193679917374,0.23863231036904245,0.2525029440412254,0.46941727763707636,0.2490646970928723,0.2750204170129252,0.583017510560395,0.24310809294035476,0.27817952692954984,0.7065820892414417,0.20732384040464102,0.2751658344577374,0.5173655267643466,0.24969843848019682,0.28618784243390655,0.5153566228058405,0.2497641741359991,0.2772009137396246,0.5059166422903102,0.2499649933440085,0.3248293999339804,0.6294805515047788,0.23323478678201834,0.34893236782155557
13.0,0.0,13.0,0.0,1.0,0.0,1.0,0.0,,,,right,1.3507779999999912,458.9523172999998,sn16,446.3994177,449.90854089999993,458.9523172999998,None,True,3.0,['r'],False,0.2857142857142857,0.2857142857142857,0.0,0.0,2.0,0.5445684476282007,0.0813189773311461,unsucc_cost,1.0,1.0,455.988343,None,sn16,1,2023-03-21_11h29.14.221,threat_forest,2021.2.3,60.07312100281201,True,55.0,0.2928571428571428,0.388095238095238,-1.0485714285714285,-0.9731746031746032,1,0,1,0.300680722751689,0.0813189773311461,0.2857142857142857,0.2857142857142857,0.2857142857142857,1.0,-0.8571428571428572,-0.8571428571428572,2.142857142857143,2.142857142857143,0.0,2.0,-1.0,3.0,0,0,1,0.5848048713851672,0.24280813378934524,0.31171754691082665,0.5763699885982851,0.2441676248414978,0.23492188652614665,0.6066193679917374,0.23863231036904245,0.2525029440412254,0.46941727763707636,0.2490646970928723,0.2750204170129252,0.583017510560395,0.24310809294035476,0.27817952692954984,0.7065820892414417,0.20732384040464102,0.2751658344577374,0.5173655267643466,0.24969843848019682,0.28618784243390655,0.5153566228058405,0.2497641741359991,0.2772009137396246,0.5059166422903102,0.2499649933440085,0.3248293999339804,0.7946472599748284,0.1631829921893259,0.25203254840659606
13.0,0.0,13.0,0.0,2.0,0.0,2.0,0.0,,,,left,2.164150000000064,463.1618207000001,sn16,463.1618207000001,None,460.3346286000001,462.34863559999985,True,1.0,['r'],True,0.24,0.3,0.2,2.0,2.0,0.9003120349047065,0.0803828504416493,unsucc_cost,0.0,0.0,462.3486355999999,None,sn16,1,2023-03-21_11h29.14.221,threat_forest,2021.2.3,60.07312100281201,True,55.0,0.2928571428571428,0.388095238095238,-1.0485714285714285,-0.9731746031746032,0,0,1,0.7720276746633469,0.0803828504416493,1.0,0.24,0.3,0.8,-1.4,-1.24,-0.24,0.0,1.0,2.0,-1.0,1.0,1,0,0,0.552141006907901,0.24728131539863019,0.2333486050200726,0.5689707402013541,0.24524303699607733,0.2742844026365088,0.6066193679917374,0.23863231036904245,0.2525029440412254,0.47819793553435236,0.24952466998503575,0.2750813172480195,0.5276308641149962,0.24923653534825865,0.30117944072283453,0.4311305792318427,0.24525700288305854,0.27177741787773296,0.47774168740703904,0.2495045675205141,0.2860036016287732,0.9512333571576697,0.04638845738821895,0.24682086376374607,0.9865403826153741,0.013278456084485342,0.14391507075479443,0.7921168057553563,0.16466777179528744,0.254086384093822
14.0,0.0,14.0,0.0,0.0,0.0,0.0,0.0,470.1626513000001,473.6660456999998,None,left,1.885772800000268,476.6274239,sn16,476.6274239,None,470.1626513000001,473.6660456999998,True,4.0,['p'],True,0.25,0.5,0.5,1.0,1.0,0.9463946303571862,0.0069096320109571,figh_cost,0.0,1.0,,,sn16,1,2023-03-21_11h29.14.221,threat_forest,2021.2.3,60.07312100281201,True,71.0,0.35,0.3214285714285714,-1.7350000000000003,-1.3917857142857144,0,0,1,0.6343377103587544,0.0069096320109571,0.25,0.25,0.5,0.5,-2.0,-1.75,2.25,2.25,1.0,1.0,-1.0,4.0,0,0,0,0.552141006907901,0.24728131539863019,0.2333486050200726,0.5578148915354062,0.2466574383167492,0.3260546886002462,0.6066193679917374,0.23863231036904245,0.2525029440412254,0.6000849703637581,0.23998299870728565,0.27381800361822106,0.46567007251854403,0.248821456079118,0.29962165706881794,0.4311305792318427,0.24525700288305854,0.27177741787773296,0.48640278348836896,0.24981511570313578,0.2862987239477247,0.5153566228058405,0.2497641741359991,0.2772009137396246,0.4526734853616628,0.24776020101218732,0.32314413920766594,0.531500069613216,0.2490077456143625,0.3707504650077934
14.0,0.0,14.0,0.0,1.0,0.0,1.0,0.0,,,,left,1.0961228999999548,483.9964721000001,sn16,483.9964721000001,None,470.1626513000001,473.6660456999998,True,1.0,['p'],True,0.25,0.5,0.5,1.0,1.0,0.9463946303571862,0.0044525290507813,succ_gain,0.0,2.0,480.54856299999983,None,sn16,1,2023-03-21_11h29.14.221,threat_forest,2021.2.3,60.07312100281201,True,71.0,0.35,0.3214285714285714,-1.7350000000000003,-1.3917857142857144,0,0,1,0.0917793172756156,0.0044525290507813,1.0,0.25,0.5,0.5,-2.0,-1.75,-0.75,0.0,1.0,1.0,-1.0,1.0,1,0,0,0.552141006907901,0.24728131539863019,0.2333486050200726,0.5578148915354062,0.2466574383167492,0.3260546886002462,0.6066193679917374,0.23863231036904245,0.2525029440412254,0.6000849703637581,0.23998299870728565,0.27381800361822106,0.46567007251854403,0.248821456079118,0.29962165706881794,0.4311305792318427,0.24525700288305854,0.27177741787773296,0.48640278348836896,0.24981511570313578,0.2862987239477247,0.9512333571576697,0.04638845738821895,0.24682086376374607,0.9865403826153741,0.013278456084485342,0.14391507075479443,0.5213994254060973,0.24954206459228884,0.37148956687908863
14.0,0.0,14.0,0.0,2.0,0.0,2.0,0.0,,,,left,2.9645832000001064,490.6910312,sn16,485.1115037,487.12565989999985,490.6910312,None,False,2.0,['p'],False,0.16,0.2,0.2,2.0,1.0,0.8198746470064713,0.0014517228749999,wait_cost,1.0,1.0,487.1256598999999,None,sn16,1,2023-03-21_11h29.14.221,threat_forest,2021.2.3,60.07312100281201,False,71.0,0.35,0.3214285714285714,-1.7350000000000003,-1.3917857142857144,0,0,0,1.0867364492125466,0.0014517228749999,0.16,0.16,0.2,0.8,-2.0,-1.7200000000000004,0.2799999999999996,0.2799999999999996,0.0,1.0,1.0,2.0,0,0,0,0.5848048713851672,0.24280813378934524,0.31171754691082665,0.5689707402013541,0.24524303699607733,0.2742844026365088,0.3934123584581956,0.23863907467055587,0.3707573375859283,0.41731510466928506,0.24316320808414868,0.27423906212405874,0.46567007251854403,0.248821456079118,0.29962165706881794,0.4311305792318427,0.24525700288305854,0.27177741787773296,0.40936018455277895,0.24178442385569374,0.2786669407545531,0.5153566228058405,0.2497641741359991,0.2772009137396246,0.3256336266252219,0.2195963678361275,0.3016167593864194,0.5090407810715466,0.24991826427761638,0.3720099487163301
14.0,0.0,14.0,0.0,3.0,0.0,3.0,0.0,,,,left,1.0091081999999003,498.93694049999976,sn16,498.93694049999976,None,493.6883454999997,495.7011579,True,1.0,['p'],True,0.25,0.5,0.5,1.0,1.0,0.9463946303571862,0.0151815312499999,figh_cost,0.0,0.0,495.7011579,None,sn16,1,2023-03-21_11h29.14.221,threat_forest,2021.2.3,60.07312100281201,True,71.0,0.35,0.3214285714285714,-1.7350000000000003,-1.3917857142857144,0,0,1,0.0090669705081495,0.0151815312499999,1.0,0.25,0.5,0.5,-2.0,-1.75,-0.75,0.0,1.0,1.0,-1.0,1.0,1,0,0,0.552141006907901,0.24728131539863019,0.2333486050200726,0.5578148915354062,0.2466574383167492,0.3260546886002462,0.6066193679917374,0.23863231036904245,0.2525029440412254,0.6000849703637581,0.23998299870728565,0.27381800361822106,0.46567007251854403,0.248821456079118,0.29962165706881794,0.4311305792318427,0.24525700288305854,0.27177741787773296,0.48640278348836896,0.24981511570313578,0.2862987239477247,0.9512333571576697,0.04638845738821895,0.24682086376374607,0.9865403826153741,0.013278456084485342,0.14391507075479443,0.5652679657631251,0.24574009264514354,0.3662304525731498
15.0,0.0,15.0,0.0,0.0,0.0,0.0,0.0,503.00567169999977,506.5077851000001,None,left,1.3066278000001148,510.2152535999999,sn16,503.00567169999977,506.5077851000001,510.2152535999999,None,False,5.0,['r'],False,0.2222222222222222,0.6666666666666666,0.6666666666666666,2.0,2.0,0.77250688571426,-0.0387270176745866,wait_cost,1.0,4.0,,,sn16,1,2023-03-21_11h29.14.221,threat_forest,2021.2.3,60.07312100281201,False,68.0,0.5,0.425,-1.2222222222222223,-1.478611111111111,0,0,0,0.2674496197940019,-0.0387270176745866,0.2222222222222222,0.2222222222222222,0.6666666666666666,0.3333333333333333,-1.3333333333333337,-1.777777777777778,3.2222222222222223,3.2222222222222223,0.0,2.0,-1.0,5.0,0,0,0,0.5848048713851672,0.24280813378934524,0.31171754691082665,0.5515911468970375,0.24733835356184827,0.35097772595933385,0.6066193679917374,0.23863231036904245,0.2525029440412254,0.6935399541676751,0.21254228614077422,0.2701848637638339,0.5344978190153975,0.24880990048318088,0.2995782891634525,0.4311305792318427,0.24525700288305854,0.27177741787773296,0.462380482638389,0.2485847719134795,0.28512949504016644,0.5153566228058405,0.2497641741359991,0.2772009137396246,0.4119372114086859,0.24224494526552148,0.3189284841678288,0.3483327542178888,0.22699704655686867,0.3403039535905019
15.0,0.0,15.0,0.0,1.0,0.0,1.0,0.0,,,,left,1.073035600000367,515.5771611,sn16,515.5771611,None,511.5534502999999,513.5679077999998,True,4.0,['r'],True,0.3333333333333333,0.3333333333333333,0.0,0.0,2.0,0.5793801642856949,0.0916280864197529,unsucc_cost,0.0,2.0,513.5679077999998,None,sn16,1,2023-03-21_11h29.14.221,threat_forest,2021.2.3,60.07312100281201,True,68.0,0.5,0.425,-1.2222222222222223,-1.478611111111111,1,0,1,0.0704916411041172,0.0916280864197529,0.3333333333333333,0.3333333333333333,0.3333333333333333,1.0,-0.6666666666666669,-0.6666666666666669,3.333333333333333,3.333333333333333,1.0,2.0,-1.0,4.0,0,0,1,0.552141006907901,0.24728131539863019,0.2333486050200726,0.5763699885982851,0.2441676248414978,0.23492188652614665,0.6066193679917374,0.23863231036904245,0.2525029440412254,0.4987292197144766,0.24999838511746592,0.27514403695047207,0.6020365142328086,0.23958854976321783,0.2649707563679643,0.7065820892414417,0.20732384040464102,0.2751658344577374,0.558402165541819,0.24658918706002592,0.2832330368975238,0.5153566228058405,0.2497641741359991,0.2772009137396246,0.5764923567338893,0.24414891936129543,0.3203838106950567,0.8210040977045701,0.14695636925687483,0.22958691598545083
15.0,0.0,15.0,0.0,2.0,0.0,2.0,0.0,,,,left,1.1416921000000002,521.5440654999998,sn16,521.5440654999998,None,511.5534502999999,513.5679077999998,True,2.0,['r'],True,0.3333333333333333,0.3333333333333333,0.0,0.0,2.0,0.5793801642856949,0.0437242798353909,unsucc_cost,0.0,0.0,518.6965568999999,None,sn16,1,2023-03-21_11h29.14.221,threat_forest,2021.2.3,60.07312100281201,True,68.0,0.5,0.425,-1.2222222222222223,-1.478611111111111,1,0,1,0.1325114601702049,0.0437242798353909,0.3333333333333333,0.3333333333333333,0.3333333333333333,1.0,-0.6666666666666669,-0.6666666666666669,1.333333333333333,1.333333333333333,1.0,2.0,-1.0,2.0,0,0,1,0.552141006907901,0.24728131539863019,0.2333486050200726,0.5763699885982851,0.2441676248414978,0.23492188652614665,0.6066193679917374,0.23863231036904245,0.2525029440412254,0.4987292197144766,0.24999838511746592,0.27514403695047207,0.6020365142328086,0.23958854976321783,0.2649707563679643,0.7065820892414417,0.20732384040464102,0.2751658344577374,0.558402165541819,0.24658918706002592,0.2832330368975238,0.5153566228058405,0.2497641741359991,0.2772009137396246,0.5764923567338893,0.24414891936129543,0.3203838106950567,0.675515161435036,0.2191944281064332,0.32951090648575443
16.0,0.0,16.0,0.0,0.0,0.0,0.0,0.0,528.4194812999999,531.9215576000001,None,right,0.8875976999997874,534.5908257000001,sn16,528.4194812999999,531.9215576000001,534.5908257000001,None,True,4.0,['p'],False,0.4444444444444445,0.6666666666666666,0.3333333333333333,1.0,2.0,0.9656336071428248,0.0822356493687493,figh_cost,1.0,1.0,,,sn16,1,2023-03-21_11h29.14.221,threat_forest,2021.2.3,60.07312100281201,True,21.0,0.4761904761904761,0.4880952380952381,-1.012471655328798,-1.1173469387755102,1,0,1,-0.1192366791846181,0.0822356493687493,0.4444444444444445,0.4444444444444445,0.6666666666666666,0.6666666666666667,-0.3333333333333335,-0.5555555555555556,3.4444444444444446,3.4444444444444446,0.0,2.0,-1.0,4.0,0,0,1,0.5848048713851672,0.24280813378934524,0.31171754691082665,0.5640205305385123,0.24590137166956744,0.2983809400253712,0.6066193679917374,0.23863231036904245,0.2525029440412254,0.6935399541676751,0.21254228614077422,0.2701848637638339,0.6345603687131388,0.23189350717178409,0.23609142546157091,0.7065820892414417,0.20732384040464102,0.2751658344577374,0.6502464457192737,0.22742600554872527,0.2650217483356019,0.5153566228058405,0.2497641741359991,0.2772009137396246,0.7256660627321719,0.19907482813095945,0.2859308626198718,0.7971029206991622,0.1617298545120274,0.2500224817218807
16.0,0.0,16.0,0.0,1.0,0.0,1.0,0.0,,,,left,1.7483468000000355,538.5230560999998,sn16,538.5230560999998,None,535.4976530999998,537.5121472000001,True,1.0,['p'],True,0.2040816326530612,0.2857142857142857,0.2857142857142857,2.0,2.0,0.9335459102197724,0.0518803872354329,succ_gain,0.0,3.0,537.5121472000001,None,sn16,1,2023-03-21_11h29.14.221,threat_forest,2021.2.3,60.07312100281201,True,21.0,0.4761904761904761,0.4880952380952381,-1.012471655328798,-1.1173469387755102,0,0,1,0.5586706557243863,0.0518803872354329,1.0,0.2040816326530612,0.2857142857142857,0.7142857142857143,-1.7142857142857144,-1.469387755102041,-0.4693877551020406,0.0,1.0,2.0,-1.0,1.0,1,0,0,0.552141006907901,0.24728131539863019,0.2333486050200726,0.5657899807663516,0.24567167843076312,0.28997364820299865,0.6066193679917374,0.23863231036904245,0.2525029440412254,0.46941727763707636,0.2490646970928723,0.2750204170129252,0.4951604433755628,0.2499765786916789,0.303956807624416,0.4311305792318427,0.24525700288305854,0.27177741787773296,0.44677926413619606,0.24716755327411527,0.2837826739195933,0.9512333571576697,0.04638845738821895,0.24682086376374607,0.9865403826153741,0.013278456084485342,0.14391507075479443,0.7042731566092517,0.2082724774888921,0.3144030131241011
16.0,0.0,16.0,0.0,2.0,0.0,2.0,0.0,,,,right,1.8247102999998788,544.3768737999999,sn16,544.3768737999999,None,535.4976530999998,537.5121472000001,False,3.0,['p'],True,0.2040816326530612,0.2857142857142857,0.2857142857142857,2.0,2.0,0.9335459102197724,0.0021800726536297,wait_cost,0.0,2.0,542.3077530999999,None,sn16,1,2023-03-21_11h29.14.221,threat_forest,2021.2.3,60.07312100281201,False,21.0,0.4761904761904761,0.4880952380952381,-1.012471655328798,-1.1173469387755102,0,0,0,0.6014212347078772,0.0021800726536297,0.2040816326530612,0.2040816326530612,0.2857142857142857,0.7142857142857143,-1.7142857142857144,-1.469387755102041,1.530612244897959,1.530612244897959,1.0,2.0,1.0,3.0,0,0,0,0.552141006907901,0.24728131539863019,0.2333486050200726,0.5657899807663516,0.24567167843076312,0.28997364820299865,0.3934123584581956,0.23863907467055587,0.3707573375859283,0.46941727763707636,0.2490646970928723,0.2750204170129252,0.4951604433755628,0.2499765786916789,0.303956807624416,0.4311305792318427,0.24525700288305854,0.27177741787773296,0.44677926413619606,0.24716755327411527,0.2837826739195933,0.5153566228058405,0.2497641741359991,0.2772009137396246,0.38593575621104814,0.23698934828885457,0.3149113025719559,0.5120420389680721,0.24985498929749148,0.37192242299078315
16.0,0.0,16.0,0.0,3.0,0.0,3.0,0.0,,,,left,1.277320900000177,549.3727881999998,sn16,549.3727881999998,None,535.4976530999998,537.5121472000001,True,2.0,['p'],True,0.2040816326530612,0.2857142857142857,0.2857142857142857,2.0,2.0,0.9335459102197724,-0.0306724464080636,unsucc_cost,0.0,0.0,548.2356033000001,None,sn16,1,2023-03-21_11h29.14.221,threat_forest,2021.2.3,60.07312100281201,True,21.0,0.4761904761904761,0.4880952380952381,-1.012471655328798,-1.1173469387755102,0,0,1,0.2447648375728098,-0.0306724464080636,0.2040816326530612,0.2040816326530612,0.2857142857142857,0.7142857142857143,-1.7142857142857144,-1.469387755102041,0.5306122448979593,0.5306122448979593,1.0,2.0,-1.0,2.0,0,0,0,0.552141006907901,0.24728131539863019,0.2333486050200726,0.5657899807663516,0.24567167843076312,0.28997364820299865,0.6066193679917374,0.23863231036904245,0.2525029440412254,0.46941727763707636,0.2490646970928723,0.2750204170129252,0.4951604433755628,0.2499765786916789,0.303956807624416,0.4311305792318427,0.24525700288305854,0.27177741787773296,0.44677926413619606,0.24716755327411527,0.2837826739195933,0.5153566228058405,0.2497641741359991,0.2772009137396246,0.38593575621104814,0.23698934828885457,0.3149113025719559,0.3790560157474135,0.23537255267311008,0.35188945307544073
17.0,0.0,17.0,0.0,0.0,0.0,0.0,0.0,553.5133013999998,557.0125564,None,left,1.0971816000001129,557.6031414999998,sn16,557.6031414999998,None,553.5133013999998,557.0125564,True,4.0,['r'],True,0.4444444444444445,0.6666666666666666,0.3333333333333333,2.0,2.0,0.9656336071428248,0.0111006869633694,figh_cost,0.0,1.0,,,sn16,1,2023-03-21_11h29.14.221,threat_forest,2021.2.3,60.07312100281201,True,47.0,0.6333333333333333,0.5547619047619048,-0.0777777777777778,-0.545124716553288,0,0,1,0.0927447099808987,0.0111006869633694,0.4444444444444445,0.4444444444444445,0.6666666666666666,0.6666666666666667,-0.3333333333333335,-0.5555555555555556,3.4444444444444446,3.4444444444444446,1.0,2.0,-1.0,4.0,0,0,0,0.552141006907901,0.24728131539863019,0.2333486050200726,0.5640205305385123,0.24590137166956744,0.2983809400253712,0.6066193679917374,0.23863231036904245,0.2525029440412254,0.6935399541676751,0.21254228614077422,0.2701848637638339,0.6345603687131388,0.23189350717178409,0.23609142546157091,0.4311305792318427,0.24525700288305854,0.27177741787773296,0.6502464457192737,0.22742600554872527,0.2650217483356019,0.5153566228058405,0.2497641741359991,0.2772009137396246,0.7256660627321719,0.19907482813095945,0.2859308626198718,0.5486648029944324,0.24763173694951313,0.36884708777224096
17.0,0.0,17.0,0.0,1.0,0.0,1.0,0.0,,,,right,1.6314634999998816,564.4095403000001,sn16,558.7323157000001,560.7404068999999,564.4095403000001,None,True,1.0,['r'],False,0.6,0.6,0.0,0.0,2.0,0.6126016192893442,0.3265010699588477,unsucc_cost,1.0,0.0,560.7404068999999,None,sn16,1,2023-03-21_11h29.14.221,threat_forest,2021.2.3,60.07312100281201,True,47.0,0.6333333333333333,0.5547619047619048,-0.0777777777777778,-0.545124716553288,1,1,1,0.4894774647506471,0.3265010699588477,1.0,0.6,0.6,1.0,0.3999999999999999,0.3999999999999999,1.4,1.4,0.0,2.0,-1.0,1.0,1,1,1,0.5848048713851672,0.24280813378934524,0.31171754691082665,0.5763699885982851,0.2441676248414978,0.23492188652614665,0.6066193679917374,0.23863231036904245,0.2525029440412254,0.6575422079510113,0.22518045271392037,0.27185815218708415,0.7016469832158717,0.20933849415993794,0.15144294215203946,0.7065820892414417,0.20732384040464102,0.2751658344577374,0.7612859436893038,0.18172965563038998,0.22159527376515464,0.9512333571576697,0.04638845738821895,0.24682086376374607,0.9865403826153741,0.013278456084485342,0.14391507075479443,0.9954866603420003,0.004492969423131174,0.03252304635303781
0.0,0.0,0.0,0.0,0.0,0.0,0.0,0.0,20.42367379999996,23.917382499999803,None,left,1.5670979000001353,25.18556209999997,sn16,25.18556209999997,None,20.42367379999996,23.917382499999803,True,5.0,['p'],True,0.4285714285714285,0.4285714285714285,0.0,0.0,2.0,0.6216097450797565,0.0526055132283747,unsucc_cost,0.0,3.0,,,sn16,2,2023-03-21_11h40.32.059,threat_forest,2021.2.3,60.22481925017943,True,52.0,0.4365079365079364,0.5349206349206349,-0.5626102292768962,-0.320194003527337,1,0,1,0.4492254374913433,0.0526055132283747,0.4285714285714285,0.4285714285714285,0.4285714285714285,1.0,-0.285714285714286,-0.285714285714286,4.7142857142857135,4.7142857142857135,1.0,2.0,-1.0,5.0,0,0,1,0.552141006907901,0.24728131539863019,0.2333486050200726,0.5763699885982851,0.2441676248414978,0.23492188652614665,0.6066193679917374,0.23863231036904245,0.2525029440412254,0.5571783220573759,0.24673063948670299,0.2747113886780794,0.6391155724300142,0.23064685750746947,0.23141277583068198,0.7065820892414417,0.20732384040464102,0.2751658344577374,0.6376223781377014,0.2310600810357236,0.26847530834652733,0.5153566228058405,0.2497641741359991,0.2772009137396246,0.7063736303878417,0.20740992468054248,0.2923018984141812,0.7067574243857794,0.2072513674613587,0.3129905528460155
0.0,0.0,0.0,0.0,1.0,0.0,1.0,0.0,,,,left,1.4156668999999056,29.67584129999977,sn16,26.77892029999976,28.79324510000015,29.67584129999977,None,False,3.0,['p'],False,0.345679012345679,0.4444444444444444,0.2222222222222222,2.0,2.0,0.9685033186841367,0.0688188688757238,wait_cost,1.0,2.0,28.79324510000015,None,sn16,2,2023-03-21_11h40.32.059,threat_forest,2021.2.3,60.22481925017943,False,52.0,0.4365079365079364,0.5349206349206349,-0.5626102292768962,-0.320194003527337,0,0,0,0.3476007274851715,0.0688188688757238,0.345679012345679,0.345679012345679,0.4444444444444444,0.7777777777777778,-0.888888888888889,-0.8395061728395062,2.1604938271604937,2.1604938271604937,0.0,2.0,-1.0,3.0,0,0,0,0.5848048713851672,0.24280813378934524,0.31171754691082665,0.5681466341700561,0.24535603625129254,0.2784204308419973,0.6066193679917374,0.23863231036904245,0.2525029440412254,0.5668109851221418,0.2455362922670089,0.2745532575627401,0.579821867191293,0.24362846951809558,0.2801324891394332,0.4311305792318427,0.24525700288305854,0.27177741787773296,0.5689348816932722,0.2452479820859345,0.28195845361449956,0.5153566228058405,0.2497641741359991,0.2772009137396246,0.5944054275637419,0.24108761524650707,0.31804386442370136,0.7589705312815337,0.18293426392776016,0.27935368522826043
0.0,0.0,0.0,0.0,2.0,0.0,2.0,0.0,,,,left,1.4073699000000488,35.020348699999886,sn16,35.020348699999886,None,31.11072319999994,33.12252390000003,True,2.0,['p'],True,0.4285714285714285,0.4285714285714285,0.0,0.0,2.0,0.6216097450797565,0.0412935399694925,unsucc_cost,0.0,0.0,33.12252390000003,None,sn16,2,2023-03-21_11h40.32.059,threat_forest,2021.2.3,60.22481925017943,True,52.0,0.4365079365079364,0.5349206349206349,-0.5626102292768962,-0.320194003527337,1,0,1,0.3417226433669738,0.0412935399694925,0.4285714285714285,0.4285714285714285,0.4285714285714285,1.0,-0.285714285714286,-0.285714285714286,1.714285714285714,1.714285714285714,1.0,2.0,-1.0,2.0,0,0,1,0.552141006907901,0.24728131539863019,0.2333486050200726,0.5763699885982851,0.2441676248414978,0.23492188652614665,0.6066193679917374,0.23863231036904245,0.2525029440412254,0.5571783220573759,0.24673063948670299,0.2747113886780794,0.6391155724300142,0.23064685750746947,0.23141277583068198,0.7065820892414417,0.20732384040464102,0.2751658344577374,0.6376223781377014,0.2310600810357236,0.26847530834652733,0.5153566228058405,0.2497641741359991,0.2772009137396246,0.7063736303878417,0.20740992468054248,0.2923018984141812,0.6666682179934976,0.22222170511087191,0.3336984165524811
1.0,0.0,1.0,0.0,0.0,0.0,0.0,0.0,40.61572549999983,44.12900390000004,None,right,0.9417981999999938,47.6693593,sn16,47.6693593,None,40.61572549999983,44.12900390000004,False,4.0,['p'],True,0.36,0.6,0.4,2.0,2.0,0.9801625908629508,-0.0020350304999999,wait_cost,0.0,3.0,,,sn16,2,2023-03-21_11h40.32.059,threat_forest,2021.2.3,60.22481925017943,False,67.0,0.55,0.4932539682539683,-0.4800000000000001,-0.5213051146384482,0,0,0,-0.0599642524083234,-0.0020350304999999,0.36,0.36,0.6,0.6,-0.8000000000000003,-0.9600000000000002,3.04,3.04,1.0,2.0,-1.0,4.0,0,0,0,0.552141006907901,0.24728131539863019,0.2333486050200726,0.5615405685888033,0.24621275841776682,0.3097783989813223,0.6066193679917374,0.23863231036904245,0.2525029440412254,0.6575422079510113,0.22518045271392037,0.27185815218708415,0.5887519620749074,0.24212308922785417,0.27448282898157517,0.4311305792318427,0.24525700288305854,0.27177741787773296,0.5810745584738798,0.24342691596826546,0.2802278453363463,0.5153566228058405,0.2497641741359991,0.2772009137396246,0.6148712763217512,0.23680458987621192,0.3147700801574051,0.4946679256567722,0.24997156898319825,0.3720836829636093
1.0,0.0,1.0,0.0,1.0,0.0,1.0,0.0,,,,right,1.0178359000001365,52.67535199999975,sn16,48.64130160000013,50.65624539999999,52.67535199999975,None,True,3.0,['p'],False,0.5,0.5,0.0,0.0,2.0,0.6309297535714574,0.1837645000000001,succ_gain,1.0,5.0,50.65624539999999,None,sn16,2,2023-03-21_11h40.32.059,threat_forest,2021.2.3,60.22481925017943,True,67.0,0.55,0.4932539682539683,-0.4800000000000001,-0.5213051146384482,1,1,1,0.0176787067063112,0.1837645000000001,0.5,0.5,0.5,1.0,0.0,0.0,3.0,3.0,0.0,2.0,-1.0,3.0,0,1,1,0.5848048713851672,0.24280813378934524,0.31171754691082665,0.5763699885982851,0.2441676248414978,0.23492188652614665,0.6066193679917374,0.23863231036904245,0.2525029440412254,0.6000849703637581,0.23998299870728565,0.27381800361822106,0.6659012581752604,0.22247677253586554,0.2007506209920641,0.7065820892414417,0.20732384040464102,0.2751658344577374,0.692715227966597,0.21286084090978255,0.251180079297751,0.5153566228058405,0.2497641741359991,0.2772009137396246,0.7866619271129881,0.16782493954386796,0.26204461756293845,0.954456941564514,0.04346888826382801,0.0864368613973938
1.0,0.0,1.0,0.0,2.0,0.0,2.0,0.0,,,,right,1.739398700000038,57.2002966,sn16,48.64130160000013,50.65624539999999,57.2002966,None,True,5.0,['p'],False,0.5,0.5,0.0,0.0,2.0,0.6309297535714574,0.1117124999999999,succ_gain,1.0,6.0,55.73475849999977,None,sn16,2,2023-03-21_11h40.32.059,threat_forest,2021.2.3,60.22481925017943,True,67.0,0.55,0.4932539682539683,-0.4800000000000001,-0.5213051146384482,1,1,1,0.5535394787891148,0.1117124999999999,0.5,0.5,0.5,1.0,0.0,0.0,5.0,5.0,0.0,2.0,1.0,5.0,0,1,1,0.5848048713851672,0.24280813378934524,0.31171754691082665,0.5763699885982851,0.2441676248414978,0.23492188652614665,0.3934123584581956,0.23863907467055587,0.3707573375859283,0.6000849703637581,0.23998299870728565,0.27381800361822106,0.6659012581752604,0.22247677253586554,0.2007506209920641,0.7065820892414417,0.20732384040464102,0.2751658344577374,0.692715227966597,0.21286084090978255,0.251180079297751,0.5153566228058405,0.2497641741359991,0.2772009137396246,0.7866619271129881,0.16782493954386796,0.26204461756293845,0.8646376094942582,0.11703941374231291,0.18820399919278336
1.0,0.0,1.0,0.0,3.0,0.0,3.0,0.0,,,,right,0.8965310000003228,61.69429790000004,sn16,61.69429790000004,None,58.96540219999997,60.98002489999999,False,6.0,['p'],True,0.36,0.6,0.4,2.0,2.0,0.9801625908629508,-0.238868,wait_cost,0.0,5.0,60.98002489999999,None,sn16,2,2023-03-21_11h40.32.059,threat_forest,2021.2.3,60.22481925017943,False,67.0,0.55,0.4932539682539683,-0.4800000000000001,-0.5213051146384482,0,0,0,-0.1092224076164119,-0.238868,0.0,0.36,0.6,0.6,-0.8000000000000003,-0.9600000000000002,5.04,5.04,1.0,2.0,1.0,6.0,0,0,0,0.552141006907901,0.24728131539863019,0.2333486050200726,0.5615405685888033,0.24621275841776682,0.3097783989813223,0.3934123584581956,0.23863907467055587,0.3707573375859283,0.6575422079510113,0.22518045271392037,0.27185815218708415,0.5887519620749074,0.24212308922785417,0.27448282898157517,0.4311305792318427,0.24525700288305854,0.27177741787773296,0.5810745584738798,0.24342691596826546,0.2802278453363463,0.5153566228058405,0.2497641741359991,0.2772009137396246,0.15647815271968013,0.13199274044111658,0.2346558258777516,0.01932809512222901,0.018954519861175086,0.052527125250011034
1.0,0.0,1.0,0.0,4.0,0.0,4.0,0.0,,,,right,0.9648879000001216,66.69754409999996,sn16,66.69754409999996,None,58.96540219999997,60.98002489999999,False,5.0,['p'],True,0.36,0.6,0.4,2.0,2.0,0.9801625908629508,-0.3124,wait_cost,0.0,4.0,64.62618399999974,None,sn16,2,2023-03-21_11h40.32.059,threat_forest,2021.2.3,60.22481925017943,False,67.0,0.55,0.4932539682539683,-0.4800000000000001,-0.5213051146384482,0,0,0,-0.0357433501939034,-0.3124,0.0,0.36,0.6,0.6,-0.8000000000000003,-0.9600000000000002,4.04,4.04,1.0,2.0,-1.0,5.0,0,0,0,0.552141006907901,0.24728131539863019,0.2333486050200726,0.5615405685888033,0.24621275841776682,0.3097783989813223,0.6066193679917374,0.23863231036904245,0.2525029440412254,0.6575422079510113,0.22518045271392037,0.27185815218708415,0.5887519620749074,0.24212308922785417,0.27448282898157517,0.4311305792318427,0.24525700288305854,0.27177741787773296,0.5810745584738798,0.24342691596826546,0.2802278453363463,0.5153566228058405,0.2497641741359991,0.2772009137396246,0.15647815271968013,0.13199274044111658,0.2346558258777516,0.0058281373080390185,0.005794170123557663,0.0343229447514594
1.0,0.0,1.0,0.0,5.0,0.0,5.0,0.0,,,,right,1.2189774999997098,71.89503579999973,sn16,71.89503579999973,None,58.96540219999997,60.98002489999999,False,4.0,['p'],True,0.36,0.6,0.4,2.0,2.0,0.9801625908629508,-0.3564,wait_cost,0.0,3.0,69.70502390000001,None,sn16,2,2023-03-21_11h40.32.059,threat_forest,2021.2.3,60.22481925017943,False,67.0,0.55,0.4932539682539683,-0.4800000000000001,-0.5213051146384482,0,0,0,0.198012392576294,-0.3564,0.0,0.36,0.6,0.6,-0.8000000000000003,-0.9600000000000002,3.04,3.04,1.0,2.0,-1.0,4.0,0,0,0,0.552141006907901,0.24728131539863019,0.2333486050200726,0.5615405685888033,0.24621275841776682,0.3097783989813223,0.6066193679917374,0.23863231036904245,0.2525029440412254,0.6575422079510113,0.22518045271392037,0.27185815218708415,0.5887519620749074,0.24212308922785417,0.27448282898157517,0.4311305792318427,0.24525700288305854,0.27177741787773296,0.5810745584738798,0.24342691596826546,0.2802278453363463,0.5153566228058405,0.2497641741359991,0.2772009137396246,0.15647815271968013,0.13199274044111658,0.2346558258777516,0.002829652483156829,0.0028216455499813944,0.030211171511946754
1.0,0.0,1.0,0.0,6.0,0.0,6.0,0.0,,,,left,0.9856952999998612,77.20510719999993,sn16,73.13554489999979,75.14998979999973,77.20510719999993,None,False,3.0,['p'],False,0.5,0.5,0.0,0.0,2.0,0.6309297535714574,-0.285,wait_cost,1.0,2.0,75.14998979999973,None,sn16,2,2023-03-21_11h40.32.059,threat_forest,2021.2.3,60.22481925017943,False,67.0,0.55,0.4932539682539683,-0.4800000000000001,-0.5213051146384482,1,1,0,-0.0144079985072986,-0.285,0.0,0.5,0.5,1.0,0.0,0.0,3.0,3.0,0.0,2.0,-1.0,3.0,0,1,1,0.5848048713851672,0.24280813378934524,0.31171754691082665,0.5763699885982851,0.2441676248414978,0.23492188652614665,0.6066193679917374,0.23863231036904245,0.2525029440412254,0.6000849703637581,0.23998299870728565,0.27381800361822106,0.6659012581752604,0.22247677253586554,0.2007506209920641,0.7065820892414417,0.20732384040464102,0.2751658344577374,0.692715227966597,0.21286084090978255,0.251180079297751,0.5153566228058405,0.2497641741359991,0.2772009137396246,0.15647815271968013,0.13199274044111658,0.2346558258777516,0.009126634663917778,0.009043339203629156,0.038817389168454265
1.0,0.0,1.0,0.0,7.0,0.0,7.0,0.0,,,,right,0.796846799999912,83.88313609999977,sn16,83.88313609999977,None,78.21400630000016,80.22861079999984,False,2.0,['p'],True,0.36,0.6,0.4,2.0,2.0,0.9801625908629508,-0.64,wait_cost,0.0,1.0,80.22861079999984,None,sn16,2,2023-03-21_11h40.32.059,threat_forest,2021.2.3,60.22481925017943,False,67.0,0.55,0.4932539682539683,-0.4800000000000001,-0.5213051146384482,0,0,0,-0.2270928394969289,-0.64,0.0,0.36,0.6,0.6,-0.8000000000000003,-0.9600000000000002,1.0399999999999998,1.0399999999999998,1.0,2.0,-1.0,2.0,0,0,0,0.552141006907901,0.24728131539863019,0.2333486050200726,0.5615405685888033,0.24621275841776682,0.3097783989813223,0.6066193679917374,0.23863231036904245,0.2525029440412254,0.6575422079510113,0.22518045271392037,0.27185815218708415,0.5887519620749074,0.24212308922785417,0.27448282898157517,0.4311305792318427,0.24525700288305854,0.27177741787773296,0.5810745584738798,0.24342691596826546,0.2802278453363463,0.5153566228058405,0.2497641741359991,0.2772009137396246,0.15647815271968013,0.13199274044111658,0.2346558258777516,2.6421662808095853e-05,2.6420964703830323e-05,0.026344650188510087
2.0,0.0,2.0,0.0,0.0,0.0,0.0,0.0,90.4720373,93.97420809999994,None,left,1.1211071000002448,96.99359400000004,sn16,90.4720373,93.97420809999994,96.99359400000004,None,False,4.0,['r'],False,0.16,0.2,0.2,2.0,2.0,0.8198746470064713,0.0025632255999997,wait_cost,1.0,3.0,,,sn16,2,2023-03-21_11h40.32.059,threat_forest,2021.2.3,60.22481925017943,False,65.0,0.3,0.425,-1.5000000000000002,-0.9900000000000002,0,0,0,0.1143166792233144,0.0025632255999997,0.16,0.16,0.2,0.8,-1.8000000000000005,-1.5600000000000005,2.4399999999999995,2.4399999999999995,0.0,2.0,-1.0,4.0,0,0,0,0.5848048713851672,0.24280813378934524,0.31171754691082665,0.5689707402013541,0.24524303699607733,0.2742844026365088,0.6066193679917374,0.23863231036904245,0.2525029440412254,0.41731510466928506,0.24316320808414868,0.27423906212405874,0.4863004263544832,0.249812321681931,0.3033403545662503,0.4311305792318427,0.24525700288305854,0.27177741787773296,0.40936018455277895,0.24178442385569374,0.2786669407545531,0.5153566228058405,0.2497641741359991,0.2772009137396246,0.3256336266252219,0.2195963678361275,0.3016167593864194,0.5136205346986966,0.24981448103452158,0.37186638954596674
2.0,0.0,2.0,0.0,1.0,0.0,1.0,0.0,,,,left,1.5551464999998643,101.38276339999992,sn16,90.4720373,93.97420809999994,101.38276339999992,None,False,3.0,['r'],False,0.16,0.2,0.2,2.0,2.0,0.8198746470064713,0.0162975999999998,wait_cost,1.0,2.0,100.14349839999976,None,sn16,2,2023-03-21_11h40.32.059,threat_forest,2021.2.3,60.22481925017943,False,65.0,0.3,0.425,-1.5000000000000002,-0.9900000000000002,0,0,0,0.4415697534120674,0.0162975999999998,0.16,0.16,0.2,0.8,-1.8000000000000005,-1.5600000000000005,1.4399999999999995,1.4399999999999995,0.0,2.0,-1.0,3.0,0,0,0,0.5848048713851672,0.24280813378934524,0.31171754691082665,0.5689707402013541,0.24524303699607733,0.2742844026365088,0.6066193679917374,0.23863231036904245,0.2525029440412254,0.41731510466928506,0.24316320808414868,0.27423906212405874,0.4863004263544832,0.249812321681931,0.3033403545662503,0.4311305792318427,0.24525700288305854,0.27177741787773296,0.40936018455277895,0.24178442385569374,0.2786669407545531,0.5153566228058405,0.2497641741359991,0.2772009137396246,0.3256336266252219,0.2195963678361275,0.3016167593864194,0.5697849759591485,0.24513005713038108,0.36538661507318426
