miniblock.thisRepN,miniblock.thisTrialN,miniblock.thisN,miniblock.thisIndex,day.thisRepN,day.thisTrialN,day.thisN,day.thisIndex,forest.started,fixation_forest.started,fixation_forest.stopped,key_resp.keys,key_resp.rt,key_resp.started,Subject_ID,weather_left.started,weather_left.stopped,weather_right.started,weather_right.stopped,foraging T/F,in_LP,p/r heuristic,good_weather.T/F,p_succ_correct,p_succ_uncorrected,r_threat,n_oponents,gain_if_succ,weather_entropy,OP_value_difference,action_outcome,forest_side_L=0_R=1,out_LP,fixation_day.started,fixation_day.stopped,participant,session,date,expName,psychopyVersion,frameRate,foraging T/F NaNs,fora_NR,forest_mean_p,mvt_cutoff_p,forest_mean_ev,mvt_cutoff_ev,mvt_policy_eg,mvt_policy_p,fora_response,logRT,optimal policy values,multi-heuristic policy,** $\mathit{p}$ success,* $\mathit{p}$ gain,* $\mathit{r}$ predator,expected gain naive,expected gain correct,expected state no bounds,expected state with bounds,weather type,gain magnitude,win stay lose shift,continuous energy state,** binary energy state,** wait when safe,$\mathit{p}$ success based MVT,marginal value,$\mathit{OP}$ values + cap,win stay lose shift fit,win stay lose shift_uncertain,win stay lose shift_uncertain_fit,** wait when safe fit,** wait when safe_uncertain,** wait when safe_uncertain_fit,** binary energy state fit,** binary energy state_uncertain,** binary energy state_uncertain_fit,weather type fit,weather type_uncertain,weather type_uncertain_fit,* $\mathit{r}$ predator fit,* $\mathit{r}$ predator_uncertain,* $\mathit{r}$ predator_uncertain_fit,* $\mathit{p}$ gain fit,* $\mathit{p}$ gain_uncertain,* $\mathit{p}$ gain_uncertain_fit,expected gain naive fit,expected gain naive_uncertain,expected gain naive_uncertain_fit,** $\mathit{p}$ success fit,** $\mathit{p}$ success_uncertain,** $\mathit{p}$ success_uncertain_fit,marginal value fit,marginal value_uncertain,marginal value_uncertain_fit,multi-heuristic policy fit,multi-heuristic policy_uncertain,multi-heuristic policy_uncertain_fit,optimal policy values fit,optimal policy values_uncertain,optimal policy values_uncertain_fit
0.0,0.0,0.0,0.0,0.0,0.0,0.0,0.0,23.513005500019062,27.02807220001705,,right,1.6572953999857418,29.90923230000772,pz19,29.90923230000772,,23.513005500019062,27.02807220001705,False,4.0,['r'],True,0.2040816326530612,0.2857142857142857,0.2857142857142857,2.0,2.0,0.9335459102197724,-0.0038600655291852,wait_cost,0.0,3.0,,,pz19,1,2023-04-20_11h51.13.410,threat_forest,2021.2.3,60.04282253858096,False,17.0,0.2678571428571428,0.2678571428571428,-1.2346938775510203,-1.2346938775510203,0,0,0.0,0.5051869965360404,-0.0038600655291852,0.2040816326530612,0.2040816326530612,0.2857142857142857,0.2857142857142857,-0.7142857142857144,-0.4693877551020406,3.5306122448979598,3.5306122448979598,1.0,2.0,,4.0,0,1,0,0,-0.0038600655291852,,,,0.5236703590257458,0.24943971410359236,0.46922625625004355,0.3927448908839604,0.23849634156850646,0.4063952561401322,0.4808743906376199,0.24963421106651756,0.3853246955312315,0.48255261271643446,0.24969558867697733,0.41658348659043387,0.356255418688549,0.2293374953435956,0.40383616371518066,0.3357357496943801,0.22301725607153264,0.3402606400825514,0.3199870161498711,0.2175953256453732,0.3474010205996588,0.3729680474769007,0.23386288303816902,0.4200746997801698,0.23445864643777142,0.17948778954833952,0.4286963333680893,0.39379696540236414,0.23872091544225335,0.47820964921962483
0.0,0.0,0.0,0.0,1.0,0.0,1.0,0.0,,,,left,2.048105599998962,36.58613410001272,pz19,31.590820800018264,33.60519520001253,36.58613410001272,,False,3.0,['r'],False,0.25,0.25,0.0,0.0,2.0,0.5118595071429148,0.0631612346701049,wait_cost,1.0,2.0,33.60519520001253,,pz19,1,2023-04-20_11h51.13.410,threat_forest,2021.2.3,60.04282253858096,False,17.0,0.2678571428571428,0.2678571428571428,-1.2346938775510203,-1.2346938775510203,1,0,0.0,0.7169152683474546,0.0631612346701049,0.25,0.25,0.25,0.0,0.0,0.0,3.0,3.0,0.0,2.0,-1.0,3.0,0,1,0,1,0.0631612346701049,0.5355874068047859,0.24873353647691065,0.41193563681951356,0.5236703590257458,0.24943971410359236,0.46922625625004355,0.3927448908839604,0.23849634156850646,0.4063952561401322,0.4739883277469707,0.24932339290660105,0.44131638495324665,0.4656947958983451,0.24882315297154387,0.4049469113284996,0.3315447996752898,0.22162284548356173,0.39201125669281134,0.476492177973485,0.2494473823035697,0.4989650372183103,0.3690367290244305,0.23284862165537956,0.4202556566271639,0.590641565882216,0.24178410653441995,0.40437622467705936,0.294658303659599,0.2078347877440465,0.46286423113470376,0.5749494399657479,0.24438258144882075,0.4882746464204696
0.0,0.0,0.0,0.0,2.0,0.0,2.0,0.0,,,,left,1.6293862000165973,43.76320380001562,pz19,31.590820800018264,33.60519520001253,43.76320380001562,,False,2.0,['r'],False,0.25,0.25,0.0,0.0,2.0,0.5118595071429148,0.0158460129548487,wait_cost,1.0,1.0,40.665739300020505,,pz19,1,2023-04-20_11h51.13.410,threat_forest,2021.2.3,60.04282253858096,False,17.0,0.2678571428571428,0.2678571428571428,-1.2346938775510203,-1.2346938775510203,1,0,0.0,0.488203379493495,0.0158460129548487,0.25,0.25,0.25,0.0,0.0,0.0,2.0,2.0,0.0,2.0,-1.0,2.0,0,1,0,1,0.0158460129548487,0.5355874068047859,0.24873353647691065,0.41193563681951356,0.5236703590257458,0.24943971410359236,0.46922625625004355,0.3927448908839604,0.23849634156850646,0.4063952561401322,0.4739883277469707,0.24932339290660105,0.44131638495324665,0.4656947958983451,0.24882315297154387,0.4049469113284996,0.3315447996752898,0.22162284548356173,0.39201125669281134,0.476492177973485,0.2494473823035697,0.4989650372183103,0.3690367290244305,0.23284862165537956,0.4202556566271639,0.590641565882216,0.24178410653441995,0.40437622467705936,0.294658303659599,0.2078347877440465,0.46286423113470376,0.44627710330553816,0.24711385037075617,0.49313014549479617
0.0,0.0,0.0,0.0,3.0,0.0,3.0,0.0,,,,left,0.6949407000211067,48.97760100002051,pz19,48.97760100002051,,45.41113250001217,47.42576110002119,True,1.0,['r'],True,0.2040816326530612,0.2857142857142857,0.2857142857142857,2.0,2.0,0.9335459102197724,0.0755305506209147,figh_cost,0.0,0.0,47.42576110002119,,pz19,1,2023-04-20_11h51.13.410,threat_forest,2021.2.3,60.04282253858096,True,17.0,0.2678571428571428,0.2678571428571428,-1.2346938775510203,-1.2346938775510203,0,0,1.0,-0.3639287607682575,0.0755305506209147,1.0,0.2040816326530612,0.2857142857142857,0.2857142857142857,-0.7142857142857144,-0.4693877551020406,0.5306122448979593,1.0,1.0,2.0,-1.0,1.0,1,1,0,0,0.625,0.5355874068047859,0.24873353647691065,0.41193563681951356,0.5236703590257458,0.24943971410359236,0.46922625625004355,0.9622662770596592,0.03630988909340243,0.4476300239367692,0.4808743906376199,0.24963421106651756,0.3853246955312315,0.48255261271643446,0.24969558867697733,0.41658348659043387,0.356255418688549,0.2293374953435956,0.40383616371518066,0.3357357496943801,0.22301725607153264,0.3402606400825514,0.3199870161498711,0.2175953256453732,0.3474010205996588,0.3729680474769007,0.23386288303816902,0.4200746997801698,0.9851913154835478,0.01458938737934438,0.22993695474571443,0.6076485496149224,0.23841178976580354,0.4776601026613207
1.0,0.0,1.0,0.0,0.0,0.0,0.0,0.0,54.17743300000439,57.68266510000103,,left,2.589979100011988,59.91475870000431,pz19,59.91475870000431,,54.17743300000439,57.68266510000103,True,5.0,['r'],True,0.3333333333333333,0.3333333333333333,0.0,0.0,1.0,0.5793801642856949,0.0360091124884982,unsucc_cost,0.0,3.0,,,pz19,1,2023-04-20_11h51.13.410,threat_forest,2021.2.3,60.04282253858096,True,66.0,0.5,0.3839285714285714,-1.5,-1.3673469387755102,1,0,1.0,0.9516498061854468,0.0360091124884982,0.3333333333333333,0.3333333333333333,0.3333333333333333,0.0,-2.220446049250313e-16,-2.220446049250313e-16,5.0,5.0,1.0,1.0,-1.0,5.0,0,1,0,1,0.0360091124884982,0.5355874068047859,0.24873353647691065,0.41193563681951356,0.5236703590257458,0.24943971410359236,0.46922625625004355,0.3927448908839604,0.23849634156850646,0.4063952561401322,0.4808743906376199,0.24963421106651756,0.3853246955312315,0.4656947958983451,0.24882315297154387,0.4049469113284996,0.3904111494225286,0.23799028382910864,0.41709903645493845,0.476492177973485,0.24944738230356972,0.4989650372183103,0.4646427221050909,0.2487498628998622,0.4962050869989575,0.590641565882216,0.24178410653441995,0.40437622467705936,0.42324205793000785,0.24410821832917967,0.5065862104187365,0.501233083488293,0.24999847950511084,0.49825827988652405
1.0,0.0,1.0,0.0,1.0,0.0,1.0,0.0,,,,right,2.006828099983977,65.27620170000591,pz19,65.27620170000591,,54.17743300000439,57.68266510000103,False,3.0,['r'],True,0.3333333333333333,0.3333333333333333,0.0,0.0,1.0,0.5793801642856949,0.0403131826957271,wait_cost,0.0,2.0,64.54309170000488,,pz19,1,2023-04-20_11h51.13.410,threat_forest,2021.2.3,60.04282253858096,False,66.0,0.5,0.3839285714285714,-1.5,-1.3673469387755102,1,0,0.0,0.6965554159138118,0.0403131826957271,0.3333333333333333,0.3333333333333333,0.3333333333333333,0.0,-2.220446049250313e-16,-2.220446049250313e-16,3.0,3.0,1.0,1.0,-1.0,3.0,0,1,0,1,0.0403131826957271,0.5355874068047859,0.24873353647691065,0.41193563681951356,0.5236703590257458,0.24943971410359236,0.46922625625004355,0.3927448908839604,0.23849634156850646,0.4063952561401322,0.4808743906376199,0.24963421106651756,0.3853246955312315,0.4656947958983451,0.24882315297154387,0.4049469113284996,0.3904111494225286,0.23799028382910864,0.41709903645493845,0.476492177973485,0.24944738230356972,0.4989650372183103,0.4646427221050909,0.2487498628998622,0.4962050869989575,0.590641565882216,0.24178410653441995,0.40437622467705936,0.42324205793000785,0.24410821832917967,0.5065862104187365,0.5130056443097659,0.24983085321608783,0.4979602831258802
1.0,0.0,1.0,0.0,3.0,0.0,3.0,0.0,,,,right,2.335677900002338,80.87793829999282,pz19,67.30754320000415,69.32191410000087,80.87793829999282,,True,1.0,['r'],False,0.2222222222222222,0.6666666666666666,0.6666666666666666,2.0,1.0,0.77250688571426,0.0254343850022862,figh_cost,1.0,0.0,78.1468898000021,,pz19,1,2023-04-20_11h51.13.410,threat_forest,2021.2.3,60.04282253858096,True,66.0,0.5,0.3839285714285714,-1.5,-1.3673469387755102,0,0,1.0,0.8483021701859607,0.0254343850022862,1.0,0.2222222222222222,0.6666666666666666,0.6666666666666666,-1.0,-1.0,0.0,1.0,0.0,1.0,-1.0,1.0,1,1,0,0,0.625,0.5355874068047859,0.24873353647691065,0.41193563681951356,0.5236703590257458,0.24943971410359236,0.46922625625004355,0.9622662770596592,0.03630988909340243,0.4476300239367692,0.4739883277469707,0.24932339290660105,0.44131638495324665,0.5050849665321391,0.24997414311536703,0.4202988545730606,0.6403547609459099,0.23030054107981648,0.405312306702317,0.28543540680042345,0.20396203534510024,0.22584017568039605,0.33896421177078295,0.2240674749093948,0.37831408218560403,0.3729680474769007,0.23386288303816902,0.4200746997801698,0.9851913154835478,0.01458938737934438,0.22993695474571443,0.4723300195983134,0.24923437218457034,0.4968998920845124
2.0,0.0,2.0,0.0,0.0,0.0,0.0,0.0,88.83117920000223,92.3337500000198,,left,2.6667178999923635,95.68449030001648,pz19,88.83117920000223,92.3337500000198,95.68449030001648,,False,4.0,['p'],False,0.24,0.3,0.2,2.0,2.0,0.9003120349047065,0.0048924551776182,wait_cost,1.0,3.0,,,pz19,1,2023-04-20_11h51.13.410,threat_forest,2021.2.3,60.04282253858096,False,15.0,0.4833333333333333,0.4916666666666666,-0.8977777777777778,-1.198888888888889,0,0,0.0,0.9808484653243048,0.0048924551776182,0.24,0.24,0.3,0.2,-0.3999999999999999,-0.24,3.76,3.76,0.0,2.0,-1.0,4.0,0,1,0,0,0.0048924551776182,0.5355874068047859,0.24873353647691065,0.41193563681951356,0.5236703590257458,0.24943971410359236,0.46922625625004355,0.3927448908839604,0.23849634156850646,0.4063952561401322,0.4739883277469707,0.24932339290660105,0.44131638495324665,0.4774893400068252,0.24949327018667172,0.41388495611459497,0.36636727947758685,0.23214229600577865,0.40813532280189635,0.39567392662989753,0.23911607041517596,0.4369288361621999,0.35807849970124206,0.2298582877529496,0.4059728624088309,0.3729680474769007,0.23386288303816902,0.4200746997801698,0.28080491458187995,0.20195351452854307,0.4557752709359028,0.41687977049642944,0.2430910274472738,0.4859785930334929
2.0,0.0,2.0,0.0,1.0,0.0,1.0,0.0,,,,right,0.6895668999932241,102.7091083000123,pz19,88.83117920000223,92.3337500000198,102.7091083000123,,True,3.0,['p'],False,0.24,0.3,0.2,2.0,2.0,0.9003120349047065,0.0206023046878086,succ_gain,1.0,5.0,100.39288810000288,,pz19,1,2023-04-20_11h51.13.410,threat_forest,2021.2.3,60.04282253858096,True,15.0,0.4833333333333333,0.4916666666666666,-0.8977777777777778,-1.198888888888889,0,0,1.0,-0.3716915596343684,0.0206023046878086,0.24,0.24,0.3,0.2,-0.3999999999999999,-0.24,2.76,2.76,0.0,2.0,-1.0,3.0,0,1,0,0,0.0206023046878086,0.5355874068047859,0.24873353647691065,0.41193563681951356,0.5236703590257458,0.24943971410359236,0.46922625625004355,0.3927448908839604,0.23849634156850646,0.4063952561401322,0.4739883277469707,0.24932339290660105,0.44131638495324665,0.4774893400068252,0.24949327018667172,0.41388495611459497,0.36636727947758685,0.23214229600577865,0.40813532280189635,0.39567392662989753,0.23911607041517596,0.4369288361621999,0.35807849970124206,0.2298582877529496,0.4059728624088309,0.3729680474769007,0.23386288303816902,0.4200746997801698,0.28080491458187995,0.20195351452854307,0.4557752709359028,0.4591727498368741,0.24833313564411758,0.49529772352733614
2.0,0.0,2.0,0.0,2.0,0.0,2.0,0.0,,,,left,1.096461800014367,107.07059370001662,pz19,107.07059370001662,,103.43007180001588,105.43817730000592,True,5.0,['p'],True,0.4444444444444445,0.6666666666666666,0.3333333333333333,1.0,2.0,0.9656336071428248,0.0727072881708411,unsucc_cost,0.0,3.0,105.43817730000592,,pz19,1,2023-04-20_11h51.13.410,threat_forest,2021.2.3,60.04282253858096,True,15.0,0.4833333333333333,0.4916666666666666,-0.8977777777777778,-1.198888888888889,1,0,1.0,0.0920884501607525,0.0727072881708411,0.4444444444444445,0.4444444444444445,0.6666666666666666,0.3333333333333333,0.6666666666666665,0.4444444444444444,5.444444444444445,5.444444444444445,1.0,2.0,1.0,5.0,0,1,0,1,0.0727072881708411,0.19999668531354423,0.15999801117713938,0.41393256701360415,0.5236703590257458,0.24943971410359236,0.46922625625004355,0.3927448908839604,0.23849634156850646,0.4063952561401322,0.4808743906376199,0.24963421106651756,0.3853246955312315,0.4853671576766066,0.2497858799255387,0.4177877941432251,0.6403547609459099,0.23030054107981648,0.405312306702317,0.6118124823362402,0.23749796879380794,0.4272126569782986,0.5949778266797883,0.24097921243918413,0.4590899670512244,0.590641565882216,0.24178410653441995,0.40437622467705936,0.6086652228802021,0.23819186933639602,0.4994549718254502,0.6002584394959412,0.23994824530983871,0.4803915284875701
2.0,0.0,2.0,0.0,3.0,0.0,3.0,0.0,,,,right,0.575331100000767,113.8164254000003,pz19,108.18579089999548,110.20036610000534,113.8164254000003,,True,3.0,['p'],False,0.24,0.3,0.2,2.0,2.0,0.9003120349047065,-0.0620973282853222,figh_cost,1.0,0.0,110.20036610000534,,pz19,1,2023-04-20_11h51.13.410,threat_forest,2021.2.3,60.04282253858096,True,15.0,0.4833333333333333,0.4916666666666666,-0.8977777777777778,-1.198888888888889,0,0,1.0,-0.5528095778207223,-0.0620973282853222,0.24,0.24,0.3,0.2,-0.3999999999999999,-0.24,2.76,2.76,0.0,2.0,-1.0,3.0,0,1,0,0,-0.0620973282853222,0.5355874068047859,0.24873353647691065,0.41193563681951356,0.5236703590257458,0.24943971410359236,0.46922625625004355,0.3927448908839604,0.23849634156850646,0.4063952561401322,0.4739883277469707,0.24932339290660105,0.44131638495324665,0.4774893400068252,0.24949327018667172,0.41388495611459497,0.36636727947758685,0.23214229600577865,0.40813532280189635,0.39567392662989753,0.23911607041517596,0.4369288361621999,0.35807849970124206,0.2298582877529496,0.4059728624088309,0.3729680474769007,0.23386288303816902,0.4200746997801698,0.28080491458187995,0.20195351452854307,0.4557752709359028,0.25564960386422897,0.1902928839082918,0.39211696885551645
3.0,0.0,3.0,0.0,1.0,0.0,1.0,0.0,,,,left,2.063219599978765,127.60096420001356,pz19,127.60096420001356,,125.0535366999975,127.0678145000129,True,3.0,['p'],True,0.4166666666666667,0.5,0.1666666666666666,1.0,2.0,0.9358932809493992,0.1077932424260725,succ_gain,0.0,5.0,127.0678145000129,,pz19,1,2023-04-20_11h51.13.410,threat_forest,2021.2.3,60.04282253858096,True,22.0,0.4166666666666666,0.4499999999999999,-0.7129629629629629,-0.8053703703703703,1,0,1.0,0.7242676753357093,0.1077932424260725,0.4166666666666667,0.4166666666666667,0.5,0.1666666666666666,0.5000000000000002,0.5000000000000002,3.5,3.5,1.0,2.0,-1.0,3.0,0,1,0,1,0.1077932424260725,0.5355874068047859,0.24873353647691065,0.41193563681951356,0.5236703590257458,0.24943971410359236,0.46922625625004355,0.3927448908839604,0.23849634156850646,0.4063952561401322,0.4808743906376199,0.24963421106651756,0.3853246955312315,0.4755214808049852,0.24940080209801935,0.4126516137992482,0.516409097249269,0.24973074152746405,0.4350946452255099,0.578758215707236,0.2437971434586125,0.46503717241397835,0.5629197724428391,0.24604110223574135,0.4832671769144298,0.590641565882216,0.24178410653441995,0.40437622467705936,0.5631384401019898,0.24601353738148743,0.5088827762188464,0.6879404577276182,0.21467838434913336,0.43546816502172697
3.0,0.0,3.0,0.0,2.0,0.0,2.0,0.0,,,,left,1.6819777000055185,135.37889660001383,pz19,129.68238980000024,131.6968478000199,135.37889660001383,,False,5.0,['p'],False,0.2962962962962963,0.3333333333333333,0.1111111111111111,1.0,2.0,0.8325252476189534,0.0111445756795599,wait_cost,1.0,4.0,131.6968478000199,,pz19,1,2023-04-20_11h51.13.410,threat_forest,2021.2.3,60.04282253858096,False,22.0,0.4166666666666666,0.4499999999999999,-0.7129629629629629,-0.8053703703703703,0,0,0.0,0.5199703034399895,0.0111445756795599,0.2962962962962963,0.2962962962962963,0.3333333333333333,0.1111111111111111,-2.220446049250313e-16,0.0740740740740739,5.074074074074074,5.074074074074074,0.0,2.0,1.0,5.0,0,1,0,0,0.0111445756795599,0.19999668531354423,0.15999801117713938,0.41393256701360415,0.5236703590257458,0.24943971410359236,0.46922625625004355,0.3927448908839604,0.23849634156850646,0.4063952561401322,0.4739883277469707,0.24932339290660105,0.44131638495324665,0.4722434340578881,0.2492295730471012,0.41036775525743296,0.3904111494225286,0.23799028382910864,0.41709903645493845,0.476492177973485,0.24944738230356972,0.4989650372183103,0.42138716684352184,0.24382002246311174,0.47265858724850907,0.3729680474769007,0.23386288303816902,0.4200746997801698,0.36357687308869263,0.2313887304437413,0.4912548459224716,0.43360078391920287,0.24559114410385566,0.4904231623742298
3.0,0.0,3.0,0.0,3.0,0.0,3.0,0.0,,,,left,1.078356599988183,140.75562559999526,pz19,140.75562559999526,,137.09228909999365,139.10657910001464,True,4.0,['p'],True,0.4166666666666667,0.5,0.1666666666666666,1.0,2.0,0.9358932809493992,0.0732344145593066,unsucc_cost,0.0,2.0,139.10657910001464,,pz19,1,2023-04-20_11h51.13.410,threat_forest,2021.2.3,60.04282253858096,True,22.0,0.4166666666666666,0.4499999999999999,-0.7129629629629629,-0.8053703703703703,1,0,1.0,0.0754382155479815,0.0732344145593066,0.4166666666666667,0.4166666666666667,0.5,0.1666666666666666,0.5000000000000002,0.5000000000000002,4.5,4.5,1.0,2.0,-1.0,4.0,0,1,0,1,0.0732344145593066,0.5355874068047859,0.24873353647691065,0.41193563681951356,0.5236703590257458,0.24943971410359236,0.46922625625004355,0.3927448908839604,0.23849634156850646,0.4063952561401322,0.4808743906376199,0.24963421106651756,0.3853246955312315,0.4755214808049852,0.24940080209801935,0.4126516137992482,0.516409097249269,0.24973074152746405,0.4350946452255099,0.578758215707236,0.2437971434586125,0.46503717241397835,0.5629197724428391,0.24604110223574135,0.4832671769144298,0.590641565882216,0.24178410653441995,0.40437622467705936,0.5631384401019898,0.24601353738148743,0.5088827762188464,0.6016418139738879,0.23966894165209757,0.4798949978674153
3.0,0.0,3.0,0.0,4.0,0.0,4.0,0.0,,,,left,1.8450328999897465,147.65087529999437,pz19,141.85432139999466,143.86874560001888,147.65087529999437,,False,2.0,['p'],False,0.2962962962962963,0.3333333333333333,0.1111111111111111,1.0,2.0,0.8325252476189534,-0.0601851851851852,wait_cost,1.0,1.0,143.86874560001888,,pz19,1,2023-04-20_11h51.13.410,threat_forest,2021.2.3,60.04282253858096,False,22.0,0.4166666666666666,0.4499999999999999,-0.7129629629629629,-0.8053703703703703,0,0,0.0,0.6124971093062651,-0.0601851851851852,0.2962962962962963,0.2962962962962963,0.3333333333333333,0.1111111111111111,-2.220446049250313e-16,0.0740740740740739,2.074074074074074,2.074074074074074,0.0,2.0,-1.0,2.0,0,1,0,0,-0.0601851851851852,0.5355874068047859,0.24873353647691065,0.41193563681951356,0.5236703590257458,0.24943971410359236,0.46922625625004355,0.3927448908839604,0.23849634156850646,0.4063952561401322,0.4739883277469707,0.24932339290660105,0.44131638495324665,0.4722434340578881,0.2492295730471012,0.41036775525743296,0.3904111494225286,0.23799028382910864,0.41709903645493845,0.476492177973485,0.24944738230356972,0.4989650372183103,0.42138716684352184,0.24382002246311174,0.47265858724850907,0.3729680474769007,0.23386288303816902,0.4200746997801698,0.36357687308869263,0.2313887304437413,0.4912548459224716,0.2596519355205283,0.19223280790097172,0.39556565861106296
3.0,0.0,3.0,0.0,5.0,0.0,5.0,0.0,,,,right,2.019879800005583,152.22852090001106,pz19,141.85432139999466,143.86874560001888,152.22852090001106,,True,1.0,['p'],False,0.2962962962962963,0.3333333333333333,0.1111111111111111,1.0,2.0,0.8325252476189534,0.2962962962962963,succ_gain,1.0,3.0,151.52829859999474,,pz19,1,2023-04-20_11h51.13.410,threat_forest,2021.2.3,60.04282253858096,True,22.0,0.4166666666666666,0.4499999999999999,-0.7129629629629629,-0.8053703703703703,0,0,1.0,0.7030380046948926,0.2962962962962963,1.0,0.2962962962962963,0.3333333333333333,0.1111111111111111,-2.220446049250313e-16,0.0740740740740739,1.074074074074074,1.074074074074074,0.0,2.0,-1.0,1.0,1,1,0,0,0.625,0.5355874068047859,0.24873353647691065,0.41193563681951356,0.5236703590257458,0.24943971410359236,0.46922625625004355,0.9622662770596592,0.03630988909340243,0.4476300239367692,0.4739883277469707,0.24932339290660105,0.44131638495324665,0.4722434340578881,0.2492295730471012,0.41036775525743296,0.3904111494225286,0.23799028382910864,0.41709903645493845,0.476492177973485,0.24944738230356972,0.4989650372183103,0.42138716684352184,0.24382002246311174,0.47265858724850907,0.3729680474769007,0.23386288303816902,0.4200746997801698,0.9851913154835478,0.01458938737934438,0.22993695474571443,0.9454945805459574,0.051534578704181565,0.14544011581379562
3.0,0.0,3.0,0.0,6.0,0.0,6.0,0.0,,,,right,1.844282599980943,158.92298010000377,pz19,158.92298010000377,,154.2761945000093,156.2905962000077,False,3.0,['p'],True,0.4166666666666667,0.5,0.1666666666666666,1.0,2.0,0.9358932809493992,-0.4347993827160493,wait_cost,0.0,2.0,156.2905962000077,,pz19,1,2023-04-20_11h51.13.410,threat_forest,2021.2.3,60.04282253858096,False,22.0,0.4166666666666666,0.4499999999999999,-0.7129629629629629,-0.8053703703703703,1,0,0.0,0.6120903671780011,-0.4347993827160493,0.0,0.4166666666666667,0.5,0.1666666666666666,0.5000000000000002,0.5000000000000002,3.5,3.5,1.0,2.0,1.0,3.0,0,0,0,1,-0.84,0.19999668531354423,0.15999801117713938,0.41393256701360415,0.10255096364787301,0.09203426350276564,-0.04827100902961218,0.3927448908839604,0.23849634156850646,0.4063952561401322,0.4808743906376199,0.24963421106651756,0.3853246955312315,0.4755214808049852,0.24940080209801935,0.4126516137992482,0.516409097249269,0.24973074152746405,0.4350946452255099,0.578758215707236,0.2437971434586125,0.46503717241397835,0.5629197724428391,0.24604110223574135,0.4832671769144298,0.590641565882216,0.24178410653441995,0.40437622467705936,0.07155607073862483,0.06643579947907376,0.2924297413172957,0.005780879402043323,0.005747460835382355,0.06404230593775534
3.0,0.0,3.0,0.0,7.0,0.0,7.0,0.0,,,,left,1.599059500003932,163.8672964000143,pz19,160.7867252000142,162.80116269999417,163.8672964000143,,False,2.0,['p'],False,0.2962962962962963,0.3333333333333333,0.1111111111111111,1.0,2.0,0.8325252476189534,-0.7037037037037037,wait_cost,1.0,1.0,162.80116269999417,,pz19,1,2023-04-20_11h51.13.410,threat_forest,2021.2.3,60.04282253858096,False,22.0,0.4166666666666666,0.4499999999999999,-0.7129629629629629,-0.8053703703703703,0,0,0.0,0.469415643918696,-0.7037037037037037,0.0,0.2962962962962963,0.3333333333333333,0.1111111111111111,-2.220446049250313e-16,0.0740740740740739,2.074074074074074,2.074074074074074,0.0,2.0,-1.0,2.0,0,0,0,0,-0.84,0.5355874068047859,0.24873353647691065,0.41193563681951356,0.10255096364787301,0.09203426350276564,-0.04827100902961218,0.3927448908839604,0.23849634156850646,0.4063952561401322,0.4739883277469707,0.24932339290660105,0.44131638495324665,0.4722434340578881,0.2492295730471012,0.41036775525743296,0.3904111494225286,0.23799028382910864,0.41709903645493845,0.476492177973485,0.24944738230356972,0.4989650372183103,0.42138716684352184,0.24382002246311174,0.47265858724850907,0.3729680474769007,0.23386288303816902,0.4200746997801698,0.07155607073862483,0.06643579947907376,0.2924297413172957,0.00030644067711302586,0.00030634677122443656,0.054369393801698446
4.0,0.0,4.0,0.0,0.0,0.0,0.0,0.0,169.05439170001773,172.5587724999932,,left,2.549784600007115,173.17503730001044,pz19,169.05439170001773,172.5587724999932,173.17503730001044,,False,5.0,['p'],False,0.25,0.5,0.5,1.0,1.0,0.9463946303571862,0.0122551342604393,wait_cost,1.0,4.0,,,pz19,1,2023-04-20_11h51.13.410,threat_forest,2021.2.3,60.04282253858096,False,71.0,0.35,0.3833333333333333,-1.7350000000000003,-1.2239814814814816,0,0,0.0,0.9360088850170488,0.0122551342604393,0.25,0.25,0.5,0.5,-1.0,-0.75,4.25,4.25,0.0,1.0,-1.0,5.0,0,1,0,0,0.0122551342604393,0.5355874068047859,0.24873353647691065,0.41193563681951356,0.5236703590257458,0.24943971410359236,0.46922625625004355,0.3927448908839604,0.23849634156850646,0.4063952561401322,0.4739883277469707,0.24932339290660105,0.44131638495324665,0.49522420514425597,0.24997719178349592,0.4203395178057887,0.516409097249269,0.24973074152746405,0.4350946452255099,0.28543540680042345,0.20396203534510024,0.22584017568039605,0.3690367290244305,0.23284862165537956,0.4202556566271639,0.3729680474769007,0.23386288303816902,0.4200746997801698,0.294658303659599,0.2078347877440465,0.46286423113470376,0.436587948593006,0.24597891173635675,0.4911125142595537
4.0,0.0,4.0,0.0,1.0,0.0,1.0,0.0,,,,right,2.776957399997628,179.8857157000166,pz19,169.05439170001773,172.5587724999932,179.8857157000166,,True,4.0,['p'],False,0.25,0.5,0.5,1.0,1.0,0.9463946303571862,0.0188078231718747,unsucc_cost,1.0,2.0,177.7705816999951,,pz19,1,2023-04-20_11h51.13.410,threat_forest,2021.2.3,60.04282253858096,True,71.0,0.35,0.3833333333333333,-1.7350000000000003,-1.2239814814814816,0,0,1.0,1.021355867910862,0.0188078231718747,0.25,0.25,0.5,0.5,-1.0,-0.75,3.25,3.25,0.0,1.0,-1.0,4.0,0,1,0,0,0.0188078231718747,0.5355874068047859,0.24873353647691065,0.41193563681951356,0.5236703590257458,0.24943971410359236,0.46922625625004355,0.3927448908839604,0.23849634156850646,0.4063952561401322,0.4739883277469707,0.24932339290660105,0.44131638495324665,0.49522420514425597,0.24997719178349592,0.4203395178057887,0.516409097249269,0.24973074152746405,0.4350946452255099,0.28543540680042345,0.20396203534510024,0.22584017568039605,0.3690367290244305,0.23284862165537956,0.4202556566271639,0.3729680474769007,0.23386288303816902,0.4200746997801698,0.294658303659599,0.2078347877440465,0.46286423113470376,0.4543000306659161,0.2479115128028638,0.49454818572130715
4.0,0.0,4.0,0.0,2.0,0.0,2.0,0.0,,,,right,2.034524499991676,187.07715980001376,pz19,187.07715980001376,,182.68290280000656,184.69732940001995,False,2.0,['p'],True,0.16,0.2,0.2,2.0,1.0,0.8198746470064713,0.0014517228749999,wait_cost,0.0,1.0,184.69732940001995,,pz19,1,2023-04-20_11h51.13.410,threat_forest,2021.2.3,60.04282253858096,False,71.0,0.35,0.3833333333333333,-1.7350000000000003,-1.2239814814814816,0,0,0.0,0.7102621306538368,0.0014517228749999,0.16,0.16,0.2,0.2,-1.0,-0.7200000000000004,1.2799999999999996,1.2799999999999996,1.0,1.0,-1.0,2.0,0,1,0,0,0.0014517228749999,0.5355874068047859,0.24873353647691065,0.41193563681951356,0.5236703590257458,0.24943971410359236,0.46922625625004355,0.3927448908839604,0.23849634156850646,0.4063952561401322,0.4808743906376199,0.24963421106651756,0.3853246955312315,0.4774893400068252,0.24949327018667172,0.41388495611459497,0.2984730406334924,0.20938688464849003,0.37325614766918025,0.28543540680042345,0.20396203534510024,0.22584017568039605,0.2763554807308554,0.19998312900087323,0.2632795182477645,0.3729680474769007,0.23386288303816902,0.4200746997801698,0.18522744005063915,0.15091823550292605,0.39426017913679967,0.407756064926311,0.2414910564421211,0.48313425292766277
4.0,0.0,4.0,0.0,3.0,0.0,3.0,0.0,,,,left,2.251848399988376,192.69021729999804,pz19,192.69021729999804,,182.68290280000656,184.69732940001995,True,1.0,['p'],True,0.16,0.2,0.2,2.0,1.0,0.8198746470064713,0.0097161799999998,unsucc_cost,0.0,0.0,191.15801050001755,,pz19,1,2023-04-20_11h51.13.410,threat_forest,2021.2.3,60.04282253858096,True,71.0,0.35,0.3833333333333333,-1.7350000000000003,-1.2239814814814816,0,0,1.0,0.8117513900667186,0.0097161799999998,1.0,0.16,0.2,0.2,-1.0,-0.7200000000000004,0.2799999999999996,1.0,1.0,1.0,-1.0,1.0,1,1,0,0,0.625,0.5355874068047859,0.24873353647691065,0.41193563681951356,0.5236703590257458,0.24943971410359236,0.46922625625004355,0.9622662770596592,0.03630988909340243,0.4476300239367692,0.4808743906376199,0.24963421106651756,0.3853246955312315,0.4774893400068252,0.24949327018667172,0.41388495611459497,0.2984730406334924,0.20938688464849003,0.37325614766918025,0.28543540680042345,0.20396203534510024,0.22584017568039605,0.2763554807308554,0.19998312900087323,0.2632795182477645,0.3729680474769007,0.23386288303816902,0.4200746997801698,0.9851913154835478,0.01458938737934438,0.22993695474571443,0.42976581728254665,0.24506715957801137,0.4894916516175389
5.0,0.0,5.0,0.0,1.0,0.0,1.0,0.0,,,,left,1.5427063000097403,209.5743424000102,pz19,209.5743424000102,,198.2421053000144,201.7479253000056,True,3.0,['p'],True,0.2448979591836734,0.2857142857142857,0.1428571428571428,1.0,2.0,0.8400769154957735,0.0286218062243927,succ_gain,0.0,5.0,208.04209339999943,,pz19,1,2023-04-20_11h51.13.410,threat_forest,2021.2.3,60.04282253858096,True,29.0,0.4761904761904761,0.413095238095238,-0.8594104308390023,-1.2972052154195013,1,0,1.0,0.4335382117830028,0.0286218062243927,0.2448979591836734,0.2448979591836734,0.2857142857142857,0.1428571428571428,-0.2857142857142856,-0.1632653061224489,2.836734693877551,2.836734693877551,1.0,2.0,-1.0,3.0,0,1,0,1,0.0286218062243927,0.5355874068047859,0.24873353647691065,0.41193563681951356,0.5236703590257458,0.24943971410359236,0.46922625625004355,0.3927448908839604,0.23849634156850646,0.4063952561401322,0.4808743906376199,0.24963421106651756,0.3853246955312315,0.47411632877095544,0.24933003556370675,0.41170772750776985,0.356255418688549,0.2293374953435956,0.40383616371518066,0.41838597293225205,0.24333915058578495,0.4622870726930597,0.3634280939047451,0.2313481144655089,0.41308875282466995,0.590641565882216,0.24178410653441995,0.40437622467705936,0.2875405540887594,0.20486098384308862,0.4592797730215595,0.4810312852195526,0.24964018785957798,0.49762132878322846
5.0,0.0,5.0,0.0,2.0,0.0,2.0,0.0,,,,right,2.1435125000134576,216.1515829999989,pz19,216.1515829999989,,198.2421053000144,201.7479253000056,False,5.0,['p'],True,0.2448979591836734,0.2857142857142857,0.1428571428571428,1.0,2.0,0.8400769154957735,-0.0053927091035934,wait_cost,0.0,4.0,213.15393900001072,,pz19,1,2023-04-20_11h51.13.410,threat_forest,2021.2.3,60.04282253858096,False,29.0,0.4761904761904761,0.413095238095238,-0.8594104308390023,-1.2972052154195013,1,0,0.0,0.7624458386290276,-0.0053927091035934,0.2448979591836734,0.2448979591836734,0.2857142857142857,0.1428571428571428,-0.2857142857142856,-0.1632653061224489,4.836734693877551,4.836734693877551,1.0,2.0,1.0,5.0,0,1,0,1,-0.0053927091035934,0.19999668531354423,0.15999801117713938,0.41393256701360415,0.5236703590257458,0.24943971410359236,0.46922625625004355,0.3927448908839604,0.23849634156850646,0.4063952561401322,0.4808743906376199,0.24963421106651756,0.3853246955312315,0.47411632877095544,0.24933003556370675,0.41170772750776985,0.356255418688549,0.2293374953435956,0.40383616371518066,0.41838597293225205,0.24333915058578495,0.4622870726930597,0.3634280939047451,0.2313481144655089,0.41308875282466995,0.590641565882216,0.24178410653441995,0.40437622467705936,0.2875405540887594,0.20486098384308862,0.4592797730215595,0.38980020341963045,0.23785600483364516,0.4766720588982381
5.0,0.0,5.0,0.0,3.0,0.0,3.0,0.0,,,,right,2.515727499994682,222.2124768999929,pz19,218.31619870002032,220.3306150000135,222.2124768999929,,True,4.0,['p'],False,0.4444444444444445,0.6666666666666666,0.3333333333333333,1.0,2.0,0.9656336071428248,0.0997659825764223,figh_cost,1.0,1.0,220.3306150000135,,pz19,1,2023-04-20_11h51.13.410,threat_forest,2021.2.3,60.04282253858096,True,29.0,0.4761904761904761,0.413095238095238,-0.8594104308390023,-1.2972052154195013,1,1,1.0,0.9225620261342232,0.0997659825764223,0.4444444444444445,0.4444444444444445,0.6666666666666666,0.3333333333333333,0.6666666666666665,0.4444444444444444,4.444444444444445,4.444444444444445,0.0,2.0,-1.0,4.0,0,1,1,1,0.0997659825764223,0.5355874068047859,0.24873353647691065,0.41193563681951356,0.5236703590257458,0.24943971410359236,0.46922625625004355,0.3927448908839604,0.23849634156850646,0.4063952561401322,0.4739883277469707,0.24932339290660105,0.44131638495324665,0.4853671576766066,0.2497858799255387,0.4177877941432251,0.6403547609459099,0.23030054107981648,0.405312306702317,0.6118124823362402,0.23749796879380794,0.4272126569782986,0.5949778266797883,0.24097921243918413,0.4590899670512244,0.590641565882216,0.24178410653441995,0.40437622467705936,0.6086652228802021,0.23819186933639602,0.4994549718254502,0.6687775425994107,0.22151414111410409,0.447620395941968
5.0,0.0,5.0,0.0,4.0,0.0,4.0,0.0,,,,left,1.4621367999934591,228.323500700004,pz19,228.323500700004,,224.7601313000196,226.77459750001435,True,1.0,['p'],True,0.2448979591836734,0.2857142857142857,0.1428571428571428,1.0,2.0,0.8400769154957735,0.1196276557733094,succ_gain,0.0,3.0,226.77459750001435,,pz19,1,2023-04-20_11h51.13.410,threat_forest,2021.2.3,60.04282253858096,True,29.0,0.4761904761904761,0.413095238095238,-0.8594104308390023,-1.2972052154195013,1,0,1.0,0.379898927397108,0.1196276557733094,1.0,0.2448979591836734,0.2857142857142857,0.1428571428571428,-0.2857142857142856,-0.1632653061224489,0.8367346938775511,1.0,1.0,2.0,-1.0,1.0,1,1,0,1,0.625,0.5355874068047859,0.24873353647691065,0.41193563681951356,0.5236703590257458,0.24943971410359236,0.46922625625004355,0.9622662770596592,0.03630988909340243,0.4476300239367692,0.4808743906376199,0.24963421106651756,0.3853246955312315,0.47411632877095544,0.24933003556370675,0.41170772750776985,0.356255418688549,0.2293374953435956,0.40383616371518066,0.41838597293225205,0.24333915058578495,0.4622870726930597,0.3634280939047451,0.2313481144655089,0.41308875282466995,0.590641565882216,0.24178410653441995,0.40437622467705936,0.9851913154835478,0.01458938737934438,0.22993695474571443,0.7150460224456733,0.20375520823029503,0.4160495456731267
5.0,0.0,5.0,0.0,5.0,0.0,5.0,0.0,,,,right,1.6492259000078775,233.0193124000216,pz19,233.0193124000216,,224.7601313000196,226.77459750001435,False,3.0,['p'],True,0.2448979591836734,0.2857142857142857,0.1428571428571428,1.0,2.0,0.8400769154957735,0.0613633208385395,wait_cost,0.0,2.0,231.8199790000217,,pz19,1,2023-04-20_11h51.13.410,threat_forest,2021.2.3,60.04282253858096,False,29.0,0.4761904761904761,0.413095238095238,-0.8594104308390023,-1.2972052154195013,1,0,0.0,0.5003060263161094,0.0613633208385395,0.2448979591836734,0.2448979591836734,0.2857142857142857,0.1428571428571428,-0.2857142857142856,-0.1632653061224489,2.836734693877551,2.836734693877551,1.0,2.0,1.0,3.0,0,1,0,1,0.0613633208385395,0.19999668531354423,0.15999801117713938,0.41393256701360415,0.5236703590257458,0.24943971410359236,0.46922625625004355,0.3927448908839604,0.23849634156850646,0.4063952561401322,0.4808743906376199,0.24963421106651756,0.3853246955312315,0.47411632877095544,0.24933003556370675,0.41170772750776985,0.356255418688549,0.2293374953435956,0.40383616371518066,0.41838597293225205,0.24333915058578495,0.4622870726930597,0.3634280939047451,0.2313481144655089,0.41308875282466995,0.590641565882216,0.24178410653441995,0.40437622467705936,0.2875405540887594,0.20486098384308862,0.4592797730215595,0.5701341134822425,0.24508120612605988,0.4895166227950378
5.0,0.0,5.0,0.0,7.0,0.0,7.0,0.0,,,,right,1.6011786999879405,247.95501619999413,pz19,234.7009754000173,236.7153228000097,247.95501619999413,,True,1.0,['p'],False,0.4444444444444445,0.6666666666666666,0.3333333333333333,1.0,2.0,0.9656336071428248,0.4444444444444444,succ_gain,1.0,3.0,245.15748340002028,,pz19,1,2023-04-20_11h51.13.410,threat_forest,2021.2.3,60.04282253858096,True,29.0,0.4761904761904761,0.413095238095238,-0.8594104308390023,-1.2972052154195013,1,1,1.0,0.4707400455171628,0.4444444444444444,1.0,0.4444444444444445,0.6666666666666666,0.3333333333333333,0.6666666666666665,0.4444444444444444,1.4444444444444444,1.4444444444444444,0.0,2.0,-1.0,1.0,1,1,1,1,0.625,0.5355874068047859,0.24873353647691065,0.41193563681951356,0.5236703590257458,0.24943971410359236,0.46922625625004355,0.9622662770596592,0.03630988909340243,0.4476300239367692,0.4739883277469707,0.24932339290660105,0.44131638495324665,0.4853671576766066,0.2497858799255387,0.4177877941432251,0.6403547609459099,0.23030054107981648,0.405312306702317,0.6118124823362402,0.23749796879380794,0.4272126569782986,0.5949778266797883,0.24097921243918413,0.4590899670512244,0.590641565882216,0.24178410653441995,0.40437622467705936,0.9851913154835478,0.01458938737934438,0.22993695474571443,0.9887344935116821,0.011138594851879529,0.07362636630487708
6.0,0.0,6.0,0.0,0.0,0.0,0.0,0.0,252.4305319999985,255.9259846000059,,left,2.297444399999222,257.93272640000214,pz19,252.4305319999985,255.9259846000059,257.93272640000214,,False,5.0,['p'],False,0.16,0.2,0.2,2.0,2.0,0.8198746470064713,-0.011066432,wait_cost,1.0,4.0,,,pz19,1,2023-04-20_11h51.13.410,threat_forest,2021.2.3,60.04282253858096,False,65.0,0.3,0.3880952380952381,-1.5000000000000002,-1.1797052154195011,0,0,0.0,0.8317973747369085,-0.011066432,0.16,0.16,0.2,0.2,-0.8000000000000003,-0.5600000000000003,4.44,4.44,0.0,2.0,1.0,5.0,0,1,0,0,-0.011066432,0.19999668531354423,0.15999801117713938,0.41393256701360415,0.5236703590257458,0.24943971410359236,0.46922625625004355,0.3927448908839604,0.23849634156850646,0.4063952561401322,0.4739883277469707,0.24932339290660105,0.44131638495324665,0.4774893400068252,0.24949327018667172,0.41388495611459497,0.2984730406334924,0.20938688464849003,0.37325614766918025,0.32017966815993726,0.21766464825692972,0.3081199537739474,0.2763554807308554,0.19998312900087323,0.2632795182477645,0.3729680474769007,0.23386288303816902,0.4200746997801698,0.18522744005063915,0.15091823550292605,0.39426017913679967,0.37513655881405666,0.23440912105520448,0.4705443792468069
6.0,0.0,6.0,0.0,1.0,0.0,1.0,0.0,,,,left,2.5625828000193,264.24005160000524,pz19,252.4305319999985,255.9259846000059,264.24005160000524,,False,4.0,['p'],False,0.16,0.2,0.2,2.0,2.0,0.8198746470064713,0.0106207999999998,wait_cost,1.0,3.0,262.2747356000182,,pz19,1,2023-04-20_11h51.13.410,threat_forest,2021.2.3,60.04282253858096,False,65.0,0.3,0.3880952380952381,-1.5000000000000002,-1.1797052154195011,0,0,0.0,0.9410156561451524,0.0106207999999998,0.16,0.16,0.2,0.2,-0.8000000000000003,-0.5600000000000003,3.4399999999999995,3.4399999999999995,0.0,2.0,-1.0,4.0,0,1,0,0,0.0106207999999998,0.5355874068047859,0.24873353647691065,0.41193563681951356,0.5236703590257458,0.24943971410359236,0.46922625625004355,0.3927448908839604,0.23849634156850646,0.4063952561401322,0.4739883277469707,0.24932339290660105,0.44131638495324665,0.4774893400068252,0.24949327018667172,0.41388495611459497,0.2984730406334924,0.20938688464849003,0.37325614766918025,0.32017966815993726,0.21766464825692972,0.3081199537739474,0.2763554807308554,0.19998312900087323,0.2632795182477645,0.3729680474769007,0.23386288303816902,0.4200746997801698,0.18522744005063915,0.15091823550292605,0.39426017913679967,0.4321935985448518,0.24540229192170326,0.49008743139283095
6.0,0.0,6.0,0.0,4.0,0.0,4.0,0.0,,,,right,0.865351999993436,284.1713266000152,pz19,252.4305319999985,255.9259846000059,284.1713266000152,,True,1.0,['p'],False,0.16,0.2,0.2,2.0,2.0,0.8198746470064713,0.0479999999999999,unsucc_cost,1.0,0.0,281.0905372000125,,pz19,1,2023-04-20_11h51.13.410,threat_forest,2021.2.3,60.04282253858096,True,65.0,0.3,0.3880952380952381,-1.5000000000000002,-1.1797052154195011,0,0,1.0,-0.1446189184178258,0.0479999999999999,1.0,0.16,0.2,0.2,-0.8000000000000003,-0.5600000000000003,0.4399999999999997,1.0,0.0,2.0,-1.0,1.0,1,1,0,0,0.625,0.5355874068047859,0.24873353647691065,0.41193563681951356,0.5236703590257458,0.24943971410359236,0.46922625625004355,0.9622662770596592,0.03630988909340243,0.4476300239367692,0.4739883277469707,0.24932339290660105,0.44131638495324665,0.4774893400068252,0.24949327018667172,0.41388495611459497,0.2984730406334924,0.20938688464849003,0.37325614766918025,0.32017966815993726,0.21766464825692972,0.3081199537739474,0.2763554807308554,0.19998312900087323,0.2632795182477645,0.3729680474769007,0.23386288303816902,0.4200746997801698,0.9851913154835478,0.01458938737934438,0.22993695474571443,0.5339864306697791,0.2488449225303283,0.4962075499938152
7.0,0.0,7.0,0.0,0.0,0.0,0.0,0.0,288.2249243000115,291.7304662000097,,right,1.5524992999853566,293.2299106999999,pz19,288.2249243000115,291.7304662000097,293.2299106999999,,True,4.0,['p'],False,0.4444444444444445,0.6666666666666666,0.3333333333333333,1.0,1.0,0.9656336071428248,0.045641051707109,succ_gain,1.0,5.0,,,pz19,1,2023-04-20_11h51.13.410,threat_forest,2021.2.3,60.04282253858096,True,39.0,0.4333333333333333,0.3666666666666667,-1.2000000000000002,-1.35,1,1,1.0,0.4398660839302947,0.045641051707109,0.4444444444444445,0.4444444444444445,0.6666666666666666,0.3333333333333333,0.0,0.0,4.0,4.0,0.0,1.0,-1.0,4.0,0,1,1,1,0.045641051707109,0.5355874068047859,0.24873353647691065,0.41193563681951356,0.5236703590257458,0.24943971410359236,0.46922625625004355,0.3927448908839604,0.23849634156850646,0.4063952561401322,0.4739883277469707,0.24932339290660105,0.44131638495324665,0.4853671576766066,0.2497858799255387,0.4177877941432251,0.6403547609459099,0.23030054107981648,0.405312306702317,0.476492177973485,0.2494473823035697,0.4989650372183103,0.5949778266797883,0.24097921243918413,0.4590899670512244,0.590641565882216,0.24178410653441995,0.40437622467705936,0.6086652228802021,0.23819186933639602,0.4994549718254502,0.5275571260709152,0.2492406048027117,0.4969109720888917
7.0,0.0,7.0,0.0,1.0,0.0,1.0,0.0,,,,left,1.275068300019484,300.0611349999963,pz19,300.0611349999963,,294.8113147999975,296.82581629999913,True,5.0,['p'],True,0.2,0.2,0.0,0.0,1.0,0.4554859150035951,0.0004162250842519,unsucc_cost,0.0,3.0,296.82581629999913,,pz19,1,2023-04-20_11h51.13.410,threat_forest,2021.2.3,60.04282253858096,True,39.0,0.4333333333333333,0.3666666666666667,-1.2000000000000002,-1.35,0,0,1.0,0.2429997458183735,0.0004162250842519,0.2,0.2,0.2,0.0,-0.4000000000000001,-0.4000000000000001,4.6,4.6,1.0,1.0,1.0,5.0,0,1,0,0,0.0004162250842519,0.19999668531354423,0.15999801117713938,0.41393256701360415,0.5236703590257458,0.24943971410359236,0.46922625625004355,0.3927448908839604,0.23849634156850646,0.4063952561401322,0.4808743906376199,0.24963421106651756,0.3853246955312315,0.4656947958983451,0.24882315297154387,0.4049469113284996,0.2984730406334924,0.20938688464849003,0.37325614766918025,0.3956739266298975,0.239116070415176,0.43692883616220013,0.3157952776403321,0.21606862026039766,0.3401089858112002,0.3729680474769007,0.23386288303816902,0.4200746997801698,0.22954210974523717,0.17685252959894268,0.4255199373378006,0.4050223603539982,0.24097924796727424,0.48222438808209844
7.0,0.0,7.0,0.0,2.0,0.0,2.0,0.0,,,,right,1.7213686000031885,305.83436280000024,pz19,305.83436280000024,,294.8113147999975,296.82581629999913,False,3.0,['p'],True,0.2,0.2,0.0,0.0,1.0,0.4554859150035951,-0.0178719250114312,wait_cost,0.0,2.0,303.3695967000094,,pz19,1,2023-04-20_11h51.13.410,threat_forest,2021.2.3,60.04282253858096,False,39.0,0.4333333333333333,0.3666666666666667,-1.2000000000000002,-1.35,0,0,0.0,0.5431196721020658,-0.0178719250114312,0.2,0.2,0.2,0.0,-0.4000000000000001,-0.4000000000000001,2.6,2.6,1.0,1.0,-1.0,3.0,0,1,0,0,-0.0178719250114312,0.5355874068047859,0.24873353647691065,0.41193563681951356,0.5236703590257458,0.24943971410359236,0.46922625625004355,0.3927448908839604,0.23849634156850646,0.4063952561401322,0.4808743906376199,0.24963421106651756,0.3853246955312315,0.4656947958983451,0.24882315297154387,0.4049469113284996,0.2984730406334924,0.20938688464849003,0.37325614766918025,0.3956739266298975,0.239116070415176,0.43692883616220013,0.3157952776403321,0.21606862026039766,0.3401089858112002,0.3729680474769007,0.23386288303816902,0.4200746997801698,0.22954210974523717,0.17685252959894268,0.4255199373378006,0.3578473552752288,0.229792625597753,0.46233742853599785
7.0,0.0,7.0,0.0,3.0,0.0,3.0,0.0,,,,left,1.62897749998956,312.4615393000131,pz19,312.4615393000131,,294.8113147999975,296.82581629999913,True,2.0,['p'],True,0.2,0.2,0.0,0.0,1.0,0.4554859150035951,-0.0379958847736625,unsucc_cost,0.0,0.0,309.597155800002,,pz19,1,2023-04-20_11h51.13.410,threat_forest,2021.2.3,60.04282253858096,True,39.0,0.4333333333333333,0.3666666666666667,-1.2000000000000002,-1.35,0,0,1.0,0.4879525173634144,-0.0379958847736625,0.2,0.2,0.2,0.0,-0.4000000000000001,-0.4000000000000001,1.6,1.6,1.0,1.0,-1.0,2.0,0,1,0,0,-0.0379958847736625,0.5355874068047859,0.24873353647691065,0.41193563681951356,0.5236703590257458,0.24943971410359236,0.46922625625004355,0.3927448908839604,0.23849634156850646,0.4063952561401322,0.4808743906376199,0.24963421106651756,0.3853246955312315,0.4656947958983451,0.24882315297154387,0.4049469113284996,0.2984730406334924,0.20938688464849003,0.37325614766918025,0.3956739266298975,0.239116070415176,0.43692883616220013,0.3157952776403321,0.21606862026039766,0.3401089858112002,0.3729680474769007,0.23386288303816902,0.4200746997801698,0.22954210974523717,0.17685252959894268,0.4255199373378006,0.3089681220992786,0.21350682162572387,0.4333854255033498
8.0,0.0,8.0,0.0,0.0,0.0,0.0,0.0,317.50299179999274,321.00047440000344,,left,2.48188370000571,322.9693840999971,pz19,317.50299179999274,321.00047440000344,322.9693840999971,,False,5.0,['p'],False,0.2222222222222222,0.3333333333333333,0.3333333333333333,2.0,2.0,0.9656336071428248,0.0018803614496756,wait_cost,1.0,4.0,,,pz19,1,2023-04-20_11h51.13.410,threat_forest,2021.2.3,60.04282253858096,False,63.0,0.2666666666666666,0.35,-1.5022222222222226,-1.3511111111111114,0,0,0.0,0.909017828313789,0.0018803614496756,0.2222222222222222,0.2222222222222222,0.3333333333333333,0.3333333333333333,-0.666666666666667,-0.4444444444444446,4.555555555555555,4.555555555555555,0.0,2.0,-1.0,5.0,0,1,0,0,0.0018803614496756,0.5355874068047859,0.24873353647691065,0.41193563681951356,0.5236703590257458,0.24943971410359236,0.46922625625004355,0.3927448908839604,0.23849634156850646,0.4063952561401322,0.4739883277469707,0.24932339290660105,0.44131638495324665,0.4853671576766066,0.2497858799255387,0.4177877941432251,0.3904111494225286,0.23799028382910864,0.41709903645493845,0.34453738885331003,0.22583137653545307,0.3571585272804014,0.33896421177078295,0.2240674749093948,0.37831408218560403,0.3729680474769007,0.23386288303816902,0.4200746997801698,0.25718300009999245,0.19103990455955974,0.4426206114156789,0.4088893500768756,0.24169884947058592,0.483503655899761
8.0,0.0,8.0,0.0,1.0,0.0,1.0,0.0,,,,right,0.8332655999984127,328.18014630000107,pz19,317.50299179999274,321.00047440000344,328.18014630000107,,True,4.0,['p'],False,0.2222222222222222,0.3333333333333333,0.3333333333333333,2.0,2.0,0.9656336071428248,0.0288077520013096,unsucc_cost,1.0,2.0,327.49727439999697,,pz19,1,2023-04-20_11h51.13.410,threat_forest,2021.2.3,60.04282253858096,True,63.0,0.2666666666666666,0.35,-1.5022222222222226,-1.3511111111111114,0,0,1.0,-0.1824028400992578,0.0288077520013096,0.2222222222222222,0.2222222222222222,0.3333333333333333,0.3333333333333333,-0.666666666666667,-0.4444444444444446,3.555555555555556,3.555555555555556,0.0,2.0,-1.0,4.0,0,1,0,0,0.0288077520013096,0.5355874068047859,0.24873353647691065,0.41193563681951356,0.5236703590257458,0.24943971410359236,0.46922625625004355,0.3927448908839604,0.23849634156850646,0.4063952561401322,0.4739883277469707,0.24932339290660105,0.44131638495324665,0.4853671576766066,0.2497858799255387,0.4177877941432251,0.3904111494225286,0.23799028382910864,0.41709903645493845,0.34453738885331003,0.22583137653545307,0.3571585272804014,0.33896421177078295,0.2240674749093948,0.37831408218560403,0.3729680474769007,0.23386288303816902,0.4200746997801698,0.25718300009999245,0.19103990455955974,0.4426206114156789,0.48153930095548403,0.2496592025907878,0.4976551321224187
8.0,0.0,8.0,0.0,2.0,0.0,2.0,0.0,,,,right,1.5509828999929596,334.3443895000092,pz19,334.3443895000092,,329.0459555000125,331.0604783000017,False,2.0,['p'],True,0.16,0.2,0.2,2.0,2.0,0.8198746470064713,-0.0054167298692271,wait_cost,0.0,1.0,331.0604783000017,,pz19,1,2023-04-20_11h51.13.410,threat_forest,2021.2.3,60.04282253858096,False,63.0,0.2666666666666666,0.35,-1.5022222222222226,-1.3511111111111114,0,0,0.0,0.4388888589840173,-0.0054167298692271,0.16,0.16,0.2,0.2,-0.8000000000000003,-0.5600000000000003,1.4399999999999995,1.4399999999999995,1.0,2.0,-1.0,2.0,0,1,0,0,-0.0054167298692271,0.5355874068047859,0.24873353647691065,0.41193563681951356,0.5236703590257458,0.24943971410359236,0.46922625625004355,0.3927448908839604,0.23849634156850646,0.4063952561401322,0.4808743906376199,0.24963421106651756,0.3853246955312315,0.4774893400068252,0.24949327018667172,0.41388495611459497,0.2984730406334924,0.20938688464849003,0.37325614766918025,0.32017966815993726,0.21766464825692972,0.3081199537739474,0.2763554807308554,0.19998312900087323,0.2632795182477645,0.3729680474769007,0.23386288303816902,0.4200746997801698,0.18522744005063915,0.15091823550292605,0.39426017913679967,0.38973767922399133,0.23784222061708857,0.47664755407918
8.0,0.0,8.0,0.0,3.0,0.0,3.0,0.0,,,,left,1.1555915999924764,340.1023180000193,pz19,340.1023180000193,,329.0459555000125,331.0604783000017,True,1.0,['p'],True,0.16,0.2,0.2,2.0,2.0,0.8198746470064713,0.0471577283950616,succ_gain,0.0,3.0,337.93729550001444,,pz19,1,2023-04-20_11h51.13.410,threat_forest,2021.2.3,60.04282253858096,True,63.0,0.2666666666666666,0.35,-1.5022222222222226,-1.3511111111111114,0,0,1.0,0.1446124206258194,0.0471577283950616,1.0,0.16,0.2,0.2,-0.8000000000000003,-0.5600000000000003,0.4399999999999997,1.0,1.0,2.0,-1.0,1.0,1,1,0,0,0.625,0.5355874068047859,0.24873353647691065,0.41193563681951356,0.5236703590257458,0.24943971410359236,0.46922625625004355,0.9622662770596592,0.03630988909340243,0.4476300239367692,0.4808743906376199,0.24963421106651756,0.3853246955312315,0.4774893400068252,0.24949327018667172,0.41388495611459497,0.2984730406334924,0.20938688464849003,0.37325614766918025,0.32017966815993726,0.21766464825692972,0.3081199537739474,0.2763554807308554,0.19998312900087323,0.2632795182477645,0.3729680474769007,0.23386288303816902,0.4200746997801698,0.9851913154835478,0.01458938737934438,0.22993695474571443,0.5316920067017461,0.24899561671121645,0.49647544578757336
8.0,0.0,8.0,0.0,4.0,0.0,4.0,0.0,,,,right,1.356401500001084,346.27990090000094,pz19,346.27990090000094,,329.0459555000125,331.0604783000017,False,3.0,['p'],True,0.16,0.2,0.2,2.0,2.0,0.8198746470064713,0.0756444444444444,wait_cost,0.0,2.0,343.2989287000091,,pz19,1,2023-04-20_11h51.13.410,threat_forest,2021.2.3,60.04282253858096,False,63.0,0.2666666666666666,0.35,-1.5022222222222226,-1.3511111111111114,0,0,0.0,0.3048352371380096,0.0756444444444444,0.16,0.16,0.2,0.2,-0.8000000000000003,-0.5600000000000003,2.4399999999999995,2.4399999999999995,1.0,2.0,1.0,3.0,0,1,0,0,0.0756444444444444,0.19999668531354423,0.15999801117713938,0.41393256701360415,0.5236703590257458,0.24943971410359236,0.46922625625004355,0.3927448908839604,0.23849634156850646,0.4063952561401322,0.4808743906376199,0.24963421106651756,0.3853246955312315,0.4774893400068252,0.24949327018667172,0.41388495611459497,0.2984730406334924,0.20938688464849003,0.37325614766918025,0.32017966815993726,0.21766464825692972,0.3081199537739474,0.2763554807308554,0.19998312900087323,0.2632795182477645,0.3729680474769007,0.23386288303816902,0.4200746997801698,0.18522744005063915,0.15091823550292605,0.39426017913679967,0.6079456678511364,0.2383477327921722,0.4775462257106941
8.0,0.0,8.0,0.0,5.0,0.0,5.0,0.0,,,,right,2.779190400004154,352.9569857000024,pz19,347.6620533000096,349.6763132000051,352.9569857000024,,True,2.0,['p'],False,0.2222222222222222,0.3333333333333333,0.3333333333333333,2.0,2.0,0.9656336071428248,0.031111111111111,succ_gain,1.0,4.0,349.6763132000051,,pz19,1,2023-04-20_11h51.13.410,threat_forest,2021.2.3,60.04282253858096,True,63.0,0.2666666666666666,0.35,-1.5022222222222226,-1.3511111111111114,0,0,1.0,1.0221596622687987,0.031111111111111,0.2222222222222222,0.2222222222222222,0.3333333333333333,0.3333333333333333,-0.666666666666667,-0.4444444444444446,1.5555555555555554,1.5555555555555554,0.0,2.0,-1.0,2.0,0,1,0,0,0.031111111111111,0.5355874068047859,0.24873353647691065,0.41193563681951356,0.5236703590257458,0.24943971410359236,0.46922625625004355,0.3927448908839604,0.23849634156850646,0.4063952561401322,0.4739883277469707,0.24932339290660105,0.44131638495324665,0.4853671576766066,0.2497858799255387,0.4177877941432251,0.3904111494225286,0.23799028382910864,0.41709903645493845,0.34453738885331003,0.22583137653545307,0.3571585272804014,0.33896421177078295,0.2240674749093948,0.37831408218560403,0.3729680474769007,0.23386288303816902,0.4200746997801698,0.25718300009999245,0.19103990455955974,0.4426206114156789,0.48783506000261895,0.24985201423486014,0.4979979020165854
8.0,0.0,8.0,0.0,6.0,0.0,6.0,0.0,,,,left,0.6367708999896422,360.0669796000002,pz19,347.6620533000096,349.6763132000051,360.0669796000002,,False,4.0,['p'],False,0.2222222222222222,0.3333333333333333,0.3333333333333333,2.0,2.0,0.9656336071428248,-0.2696296296296296,wait_cost,1.0,3.0,357.76880720001645,,pz19,1,2023-04-20_11h51.13.410,threat_forest,2021.2.3,60.04282253858096,False,63.0,0.2666666666666666,0.35,-1.5022222222222226,-1.3511111111111114,0,0,0.0,-0.4513453427485613,-0.2696296296296296,0.0,0.2222222222222222,0.3333333333333333,0.3333333333333333,-0.666666666666667,-0.4444444444444446,3.555555555555556,3.555555555555556,0.0,2.0,1.0,4.0,0,0,0,0,-0.84,0.19999668531354423,0.15999801117713938,0.41393256701360415,0.10255096364787301,0.09203426350276564,-0.04827100902961218,0.3927448908839604,0.23849634156850646,0.4063952561401322,0.4739883277469707,0.24932339290660105,0.44131638495324665,0.4853671576766066,0.2497858799255387,0.4177877941432251,0.3904111494225286,0.23799028382910864,0.41709903645493845,0.34453738885331003,0.22583137653545307,0.3571585272804014,0.33896421177078295,0.2240674749093948,0.37831408218560403,0.3729680474769007,0.23386288303816902,0.4200746997801698,0.07155607073862483,0.06643579947907376,0.2924297413172957,0.03422904664709371,0.0330574190127248,0.11259244158533524
8.0,0.0,8.0,0.0,7.0,0.0,7.0,0.0,,,,left,0.5548356999934185,364.6626142000023,pz19,347.6620533000096,349.6763132000051,364.6626142000023,,False,3.0,['p'],False,0.2222222222222222,0.3333333333333333,0.3333333333333333,2.0,2.0,0.9656336071428248,-0.3333333333333333,wait_cost,1.0,2.0,362.7473990000144,,pz19,1,2023-04-20_11h51.13.410,threat_forest,2021.2.3,60.04282253858096,False,63.0,0.2666666666666666,0.35,-1.5022222222222226,-1.3511111111111114,0,0,0.0,-0.5890832451109178,-0.3333333333333333,0.0,0.2222222222222222,0.3333333333333333,0.3333333333333333,-0.666666666666667,-0.4444444444444446,2.555555555555556,2.555555555555556,0.0,2.0,-1.0,3.0,0,0,0,0,-0.84,0.5355874068047859,0.24873353647691065,0.41193563681951356,0.10255096364787301,0.09203426350276564,-0.04827100902961218,0.3927448908839604,0.23849634156850646,0.4063952561401322,0.4739883277469707,0.24932339290660105,0.44131638495324665,0.4853671576766066,0.2497858799255387,0.4177877941432251,0.3904111494225286,0.23799028382910864,0.41709903645493845,0.34453738885331003,0.22583137653545307,0.3571585272804014,0.33896421177078295,0.2240674749093948,0.37831408218560403,0.3729680474769007,0.23386288303816902,0.4200746997801698,0.07155607073862483,0.06643579947907376,0.2924297413172957,0.01734422678281953,0.01704340458012566,0.0841236109882227
9.0,0.0,9.0,0.0,0.0,0.0,0.0,0.0,370.547025900014,374.0535054000211,,right,2.266052099992521,376.8863337000075,pz19,370.547025900014,374.0535054000211,376.8863337000075,,True,4.0,['p'],False,0.2040816326530612,0.2857142857142857,0.2857142857142857,2.0,2.0,0.9335459102197724,-0.0053173066993206,unsucc_cost,1.0,2.0,,,pz19,1,2023-04-20_11h51.13.410,threat_forest,2021.2.3,60.04282253858096,True,21.0,0.4761904761904761,0.3714285714285714,-1.012471655328798,-1.2573469387755103,0,0,1.0,0.8180391543946881,-0.0053173066993206,0.2040816326530612,0.2040816326530612,0.2857142857142857,0.2857142857142857,-0.7142857142857144,-0.4693877551020406,3.5306122448979598,3.5306122448979598,0.0,2.0,-1.0,4.0,0,1,0,0,-0.0053173066993206,0.5355874068047859,0.24873353647691065,0.41193563681951356,0.5236703590257458,0.24943971410359236,0.46922625625004355,0.3927448908839604,0.23849634156850646,0.4063952561401322,0.4739883277469707,0.24932339290660105,0.44131638495324665,0.48255261271643446,0.24969558867697733,0.41658348659043387,0.356255418688549,0.2293374953435956,0.40383616371518066,0.3357357496943801,0.22301725607153264,0.3402606400825514,0.3199870161498711,0.2175953256453732,0.3474010205996588,0.3729680474769007,0.23386288303816902,0.4200746997801698,0.23445864643777142,0.17948778954833952,0.4286963333680893,0.38999649357276145,0.23789922857371246,0.4767488996766031
9.0,0.0,9.0,0.0,1.0,0.0,1.0,0.0,,,,left,1.7996980999887455,383.8113696000073,pz19,383.8113696000073,,379.1823968999961,381.1968279000139,True,2.0,['p'],True,0.4444444444444445,0.6666666666666666,0.3333333333333333,1.0,2.0,0.9656336071428248,0.0754537458767131,figh_cost,0.0,0.0,381.1968279000139,,pz19,1,2023-04-20_11h51.13.410,threat_forest,2021.2.3,60.04282253858096,True,21.0,0.4761904761904761,0.3714285714285714,-1.012471655328798,-1.2573469387755103,1,1,1.0,0.5876189286066984,0.0754537458767131,0.4444444444444445,0.4444444444444445,0.6666666666666666,0.3333333333333333,0.6666666666666665,0.4444444444444444,2.4444444444444446,2.4444444444444446,1.0,2.0,-1.0,2.0,0,1,1,1,0.0754537458767131,0.5355874068047859,0.24873353647691065,0.41193563681951356,0.5236703590257458,0.24943971410359236,0.46922625625004355,0.3927448908839604,0.23849634156850646,0.4063952561401322,0.4808743906376199,0.24963421106651756,0.3853246955312315,0.4853671576766066,0.2497858799255387,0.4177877941432251,0.6403547609459099,0.23030054107981648,0.405312306702317,0.6118124823362402,0.23749796879380794,0.4272126569782986,0.5949778266797883,0.24097921243918413,0.4590899670512244,0.590641565882216,0.24178410653441995,0.40437622467705936,0.6086652228802021,0.23819186933639602,0.4994549718254502,0.6074481417426094,0.2384548968360601,0.47773673603053846
10.0,0.0,10.0,0.0,0.0,0.0,0.0,0.0,390.9977224000031,394.5010825000063,,left,2.5403285000065807,395.3007817000034,pz19,395.3007817000034,,390.9977224000031,394.5010825000063,True,5.0,['p'],True,0.375,0.5,0.25,1.0,2.0,0.9850568223215076,0.0358735195754151,figh_cost,0.0,2.0,,,pz19,1,2023-04-20_11h51.13.410,threat_forest,2021.2.3,60.04282253858096,True,59.0,0.3611111111111111,0.4186507936507936,-1.1404320987654322,-1.076451877047115,1,0,1.0,0.932293403379202,0.0358735195754151,0.375,0.375,0.5,0.25,0.25,0.25,5.25,5.25,1.0,2.0,-1.0,5.0,0,1,0,1,0.0358735195754151,0.5355874068047859,0.24873353647691065,0.41193563681951356,0.5236703590257458,0.24943971410359236,0.46922625625004355,0.3927448908839604,0.23849634156850646,0.4063952561401322,0.4808743906376199,0.24963421106651756,0.3853246955312315,0.4804424204759847,0.24961750108316183,0.41554195177383013,0.516409097249269,0.24973074152746405,0.4350946452255099,0.5279180771796307,0.24922058096659222,0.4976031682231117,0.51391575407661,0.24980635178847932,0.5012512169237168,0.590641565882216,0.24178410653441995,0.40437622467705936,0.49305428879477253,0.2499517570958536,0.5136296876079791,0.5008621168929714,0.24999925675446283,0.4982596616375039
10.0,0.0,10.0,0.0,1.0,0.0,1.0,0.0,,,,left,1.7070626000058835,400.78151170001365,pz19,397.86479260001215,399.879406299995,400.78151170001365,,False,2.0,['p'],False,0.1728395061728395,0.2222222222222222,0.2222222222222222,2.0,2.0,0.8571721972794328,-0.0298469984512649,wait_cost,1.0,1.0,399.879406299995,,pz19,1,2023-04-20_11h51.13.410,threat_forest,2021.2.3,60.04282253858096,False,59.0,0.3611111111111111,0.4186507936507936,-1.1404320987654322,-1.076451877047115,0,0,0.0,0.534774115668227,-0.0298469984512649,0.1728395061728395,0.1728395061728395,0.2222222222222222,0.2222222222222222,-0.7777777777777777,-0.5308641975308643,1.4691358024691357,1.4691358024691357,0.0,2.0,-1.0,2.0,0,1,0,0,-0.0298469984512649,0.5355874068047859,0.24873353647691065,0.41193563681951356,0.5236703590257458,0.24943971410359236,0.46922625625004355,0.3927448908839604,0.23849634156850646,0.4063952561401322,0.4739883277469707,0.24932339290660105,0.44131638495324665,0.4788016382550709,0.24955062945933112,0.41465001592257167,0.31293921117848195,0.21500826128547143,0.38187251487650964,0.3241762477611161,0.21908600814863957,0.31665476222496913,0.2886804500946233,0.205344047827789,0.2888849867085962,0.3729680474769007,0.23386288303816902,0.4200746997801698,0.19868696741736502,0.15921045639585596,0.4042551618073359,0.32832518216515405,0.22052775692137247,0.4458668565902498
10.0,0.0,10.0,0.0,2.0,0.0,2.0,0.0,,,,left,2.454667199985124,406.95638119999785,pz19,406.95638119999785,,402.510632599995,404.5249978000065,True,1.0,['p'],True,0.375,0.5,0.25,1.0,2.0,0.9850568223215076,0.1390093416583739,succ_gain,0.0,3.0,404.5249978000065,,pz19,1,2023-04-20_11h51.13.410,threat_forest,2021.2.3,60.04282253858096,True,59.0,0.3611111111111111,0.4186507936507936,-1.1404320987654322,-1.076451877047115,1,0,1.0,0.897991191969859,0.1390093416583739,1.0,0.375,0.5,0.25,0.25,0.25,1.25,1.25,1.0,2.0,-1.0,1.0,1,1,0,1,0.625,0.5355874068047859,0.24873353647691065,0.41193563681951356,0.5236703590257458,0.24943971410359236,0.46922625625004355,0.9622662770596592,0.03630988909340243,0.4476300239367692,0.4808743906376199,0.24963421106651756,0.3853246955312315,0.4804424204759847,0.24961750108316183,0.41554195177383013,0.516409097249269,0.24973074152746405,0.4350946452255099,0.5279180771796307,0.24922058096659222,0.4976031682231117,0.51391575407661,0.24980635178847932,0.5012512169237168,0.590641565882216,0.24178410653441995,0.40437622467705936,0.9851913154835478,0.01458938737934438,0.22993695474571443,0.7562307375661863,0.18434580912628823,0.3815445876933908
10.0,0.0,10.0,0.0,3.0,0.0,3.0,0.0,,,,right,1.0084482000092976,414.6670381000149,pz19,409.4374903000135,411.451907300012,414.6670381000149,,True,3.0,['p'],False,0.1728395061728395,0.2222222222222222,0.2222222222222222,2.0,2.0,0.8571721972794328,-0.0839910479197434,unsucc_cost,1.0,1.0,411.451907300012,,pz19,1,2023-04-20_11h51.13.410,threat_forest,2021.2.3,60.04282253858096,True,59.0,0.3611111111111111,0.4186507936507936,-1.1404320987654322,-1.076451877047115,0,0,1.0,0.0084127136911974,-0.0839910479197434,0.1728395061728395,0.1728395061728395,0.2222222222222222,0.2222222222222222,-0.7777777777777777,-0.5308641975308643,2.469135802469136,2.469135802469136,0.0,2.0,1.0,3.0,0,1,0,0,-0.0839910479197434,0.19999668531354423,0.15999801117713938,0.41393256701360415,0.5236703590257458,0.24943971410359236,0.46922625625004355,0.3927448908839604,0.23849634156850646,0.4063952561401322,0.4739883277469707,0.24932339290660105,0.44131638495324665,0.4788016382550709,0.24955062945933112,0.41465001592257167,0.31293921117848195,0.21500826128547143,0.38187251487650964,0.3241762477611161,0.21908600814863957,0.31665476222496913,0.2886804500946233,0.205344047827789,0.2888849867085962,0.3729680474769007,0.23386288303816902,0.4200746997801698,0.19868696741736502,0.15921045639585596,0.4042551618073359,0.21277146140264383,0.16749976661522709,0.35159662352127924
10.0,0.0,10.0,0.0,4.0,0.0,4.0,0.0,,,,left,2.8690025999967474,421.2762674000114,pz19,421.2762674000114,,415.69819799999823,417.71266049999394,True,1.0,['p'],True,0.375,0.5,0.25,1.0,2.0,0.9850568223215076,0.1530494916695244,figh_cost,0.0,0.0,417.71266049999394,,pz19,1,2023-04-20_11h51.13.410,threat_forest,2021.2.3,60.04282253858096,True,59.0,0.3611111111111111,0.4186507936507936,-1.1404320987654322,-1.076451877047115,1,0,1.0,1.0539644432367912,0.1530494916695244,1.0,0.375,0.5,0.25,0.25,0.25,1.25,1.25,1.0,2.0,-1.0,1.0,1,1,0,1,0.625,0.5355874068047859,0.24873353647691065,0.41193563681951356,0.5236703590257458,0.24943971410359236,0.46922625625004355,0.9622662770596592,0.03630988909340243,0.4476300239367692,0.4808743906376199,0.24963421106651756,0.3853246955312315,0.4804424204759847,0.24961750108316183,0.41554195177383013,0.516409097249269,0.24973074152746405,0.4350946452255099,0.5279180771796307,0.24922058096659222,0.4976031682231117,0.51391575407661,0.24980635178847932,0.5012512169237168,0.590641565882216,0.24178410653441995,0.40437622467705936,0.9851913154835478,0.01458938737934438,0.22993695474571443,0.783431039624431,0.16966684577741423,0.3554491371941313
11.0,0.0,11.0,0.0,0.0,0.0,0.0,0.0,426.9457885000156,430.4507539000188,,right,2.726953200006392,433.817008300015,pz19,426.9457885000156,430.4507539000188,433.817008300015,,True,4.0,['r'],False,0.28125,0.375,0.25,2.0,2.0,0.9634951148421658,-0.0007636143604934,succ_gain,1.0,6.0,,,pz19,1,2023-04-20_11h51.13.410,threat_forest,2021.2.3,60.04282253858096,True,40.0,0.3541666666666666,0.3576388888888888,-0.8958333333333335,-1.018132716049383,0,0,1.0,1.00318494200236,-0.0007636143604934,0.28125,0.28125,0.375,0.25,-0.25,-0.125,3.875,3.875,0.0,2.0,-1.0,4.0,0,1,0,0,-0.0007636143604934,0.5355874068047859,0.24873353647691065,0.41193563681951356,0.5236703590257458,0.24943971410359236,0.46922625625004355,0.3927448908839604,0.23849634156850646,0.4063952561401322,0.4739883277469707,0.24932339290660105,0.44131638495324665,0.4804424204759847,0.24961750108316183,0.41554195177383013,0.42121852345964006,0.2437934789541207,0.42599409248871073,0.4255599502104075,0.244458678987323,0.46900948023975886,0.4041159500216817,0.24080624895975541,0.45826383797515036,0.3729680474769007,0.23386288303816902,0.4200746997801698,0.3403812655126447,0.22452185960065518,0.48297790106491534,0.40191476829538564,0.24037928732145208,0.481157811174557
11.0,0.0,11.0,0.0,1.0,0.0,1.0,0.0,,,,left,1.415450200001942,441.5575357000053,pz19,426.9457885000156,430.4507539000188,441.5575357000053,,False,6.0,['r'],False,0.28125,0.375,0.25,2.0,2.0,0.9634951148421658,-0.1073108765070514,wait_cost,1.0,5.0,438.5766181999934,,pz19,1,2023-04-20_11h51.13.410,threat_forest,2021.2.3,60.04282253858096,False,40.0,0.3541666666666666,0.3576388888888888,-0.8958333333333335,-1.018132716049383,0,0,0.0,0.3474476430377733,-0.1073108765070514,0.28125,0.28125,0.375,0.25,-0.25,-0.125,5.875,5.875,0.0,2.0,1.0,6.0,0,1,0,0,-0.1073108765070514,0.19999668531354423,0.15999801117713938,0.41393256701360415,0.5236703590257458,0.24943971410359236,0.46922625625004355,0.3927448908839604,0.23849634156850646,0.4063952561401322,0.4739883277469707,0.24932339290660105,0.44131638495324665,0.4804424204759847,0.24961750108316183,0.41554195177383013,0.42121852345964006,0.2437934789541207,0.42599409248871073,0.4255599502104075,0.244458678987323,0.46900948023975886,0.4041159500216817,0.24080624895975541,0.45826383797515036,0.3729680474769007,0.23386288303816902,0.4200746997801698,0.3403812655126447,0.22452185960065518,0.48297790106491534,0.17314462769805797,0.14316556559735888,0.3083366246365814
11.0,0.0,11.0,0.0,2.0,0.0,2.0,0.0,,,,right,1.844613699999172,447.95141490001697,pz19,447.95141490001697,,442.9895058000111,444.9871751000173,False,5.0,['r'],True,0.3333333333333333,0.3333333333333333,0.0,0.0,2.0,0.5793801642856949,0.0799125393722283,wait_cost,0.0,4.0,444.9871751000173,,pz19,1,2023-04-20_11h51.13.410,threat_forest,2021.2.3,60.04282253858096,False,40.0,0.3541666666666666,0.3576388888888888,-0.8958333333333335,-1.018132716049383,1,0,0.0,0.6122698788759147,0.0799125393722283,0.3333333333333333,0.3333333333333333,0.3333333333333333,0.0,0.3333333333333331,0.3333333333333331,5.333333333333333,5.333333333333333,1.0,2.0,-1.0,5.0,0,1,0,1,0.0799125393722283,0.5355874068047859,0.24873353647691065,0.41193563681951356,0.5236703590257458,0.24943971410359236,0.46922625625004355,0.3927448908839604,0.23849634156850646,0.4063952561401322,0.4808743906376199,0.24963421106651756,0.3853246955312315,0.4656947958983451,0.24882315297154387,0.4049469113284996,0.3904111494225286,0.23799028382910864,0.41709903645493845,0.5449826295803384,0.24797656303603807,0.490133241142122,0.4646427221050909,0.2487498628998622,0.4962050869989575,0.590641565882216,0.24178410653441995,0.40437622467705936,0.42324205793000785,0.24410821832917967,0.5065862104187365,0.6190206257318599,0.23583409065039654,0.47307761150922933
11.0,0.0,11.0,0.0,3.0,0.0,3.0,0.0,,,,right,2.3452743999951053,453.51564950001193,pz19,449.8164363999968,451.8306839000143,453.51564950001193,,True,4.0,['r'],False,0.28125,0.375,0.25,2.0,2.0,0.9634951148421658,-0.0133382655956126,figh_cost,1.0,1.0,451.8306839000143,,pz19,1,2023-04-20_11h51.13.410,threat_forest,2021.2.3,60.04282253858096,True,40.0,0.3541666666666666,0.3576388888888888,-0.8958333333333335,-1.018132716049383,0,0,1.0,0.8524024099758164,-0.0133382655956126,0.28125,0.28125,0.375,0.25,-0.25,-0.125,3.875,3.875,0.0,2.0,-1.0,4.0,0,1,0,0,-0.0133382655956126,0.5355874068047859,0.24873353647691065,0.41193563681951356,0.5236703590257458,0.24943971410359236,0.46922625625004355,0.3927448908839604,0.23849634156850646,0.4063952561401322,0.4739883277469707,0.24932339290660105,0.44131638495324665,0.4804424204759847,0.24961750108316183,0.41554195177383013,0.42121852345964006,0.2437934789541207,0.42599409248871073,0.4255599502104075,0.244458678987323,0.46900948023975886,0.4041159500216817,0.24080624895975541,0.45826383797515036,0.3729680474769007,0.23386288303816902,0.4200746997801698,0.3403812655126447,0.22452185960065518,0.48297790106491534,0.36932701090145525,0.23292456992005162,0.46790522621261305
11.0,0.0,11.0,0.0,4.0,0.0,4.0,0.0,,,,left,1.9602824999892616,459.15761230001226,pz19,459.15761230001226,,455.8774223999935,457.8918563000043,True,1.0,['r'],True,0.3333333333333333,0.3333333333333333,0.0,0.0,2.0,0.5793801642856949,0.1605812355324073,succ_gain,0.0,3.0,457.8918563000043,,pz19,1,2023-04-20_11h51.13.410,threat_forest,2021.2.3,60.04282253858096,True,40.0,0.3541666666666666,0.3576388888888888,-0.8958333333333335,-1.018132716049383,1,0,1.0,0.6730885955038962,0.1605812355324073,1.0,0.3333333333333333,0.3333333333333333,0.0,0.3333333333333331,0.3333333333333331,1.333333333333333,1.333333333333333,1.0,2.0,-1.0,1.0,1,1,0,1,0.625,0.5355874068047859,0.24873353647691065,0.41193563681951356,0.5236703590257458,0.24943971410359236,0.46922625625004355,0.9622662770596592,0.03630988909340243,0.4476300239367692,0.4808743906376199,0.24963421106651756,0.3853246955312315,0.4656947958983451,0.24882315297154387,0.4049469113284996,0.3904111494225286,0.23799028382910864,0.41709903645493845,0.5449826295803384,0.24797656303603807,0.490133241142122,0.4646427221050909,0.2487498628998622,0.4962050869989575,0.590641565882216,0.24178410653441995,0.40437622467705936,0.9851913154835478,0.01458938737934438,0.22993695474571443,0.79708890954015,0.16173817982824465,0.341353992674434
11.0,0.0,11.0,0.0,5.0,0.0,5.0,0.0,,,,right,1.2591645999928005,466.31786790001206,pz19,466.31786790001206,,455.8774223999935,457.8918563000043,False,3.0,['r'],True,0.3333333333333333,0.3333333333333333,0.0,0.0,2.0,0.5793801642856949,0.2178819444444443,wait_cost,0.0,2.0,463.1534961000143,,pz19,1,2023-04-20_11h51.13.410,threat_forest,2021.2.3,60.04282253858096,False,40.0,0.3541666666666666,0.3576388888888888,-0.8958333333333335,-1.018132716049383,1,0,0.0,0.230448485192429,0.2178819444444443,0.3333333333333333,0.3333333333333333,0.3333333333333333,0.0,0.3333333333333331,0.3333333333333331,3.333333333333333,3.333333333333333,1.0,2.0,1.0,3.0,0,1,0,1,0.2178819444444443,0.19999668531354423,0.15999801117713938,0.41393256701360415,0.5236703590257458,0.24943971410359236,0.46922625625004355,0.3927448908839604,0.23849634156850646,0.4063952561401322,0.4808743906376199,0.24963421106651756,0.3853246955312315,0.4656947958983451,0.24882315297154387,0.4049469113284996,0.3904111494225286,0.23799028382910864,0.41709903645493845,0.5449826295803384,0.24797656303603807,0.490133241142122,0.4646427221050909,0.2487498628998622,0.4962050869989575,0.590641565882216,0.24178410653441995,0.40437622467705936,0.42324205793000785,0.24410821832917967,0.5065862104187365,0.880299949604651,0.10537194833069996,0.24114921874625272
11.0,0.0,11.0,0.0,6.0,0.0,6.0,0.0,,,,right,1.8788379000034183,473.0948287000065,pz19,473.0948287000065,,455.8774223999935,457.8918563000043,False,2.0,['r'],True,0.3333333333333333,0.3333333333333333,0.0,0.0,2.0,0.5793801642856949,0.0260416666666666,wait_cost,0.0,1.0,469.6142111000081,,pz19,1,2023-04-20_11h51.13.410,threat_forest,2021.2.3,60.04282253858096,False,40.0,0.3541666666666666,0.3576388888888888,-0.8958333333333335,-1.018132716049383,1,0,0.0,0.6306534474195615,0.0260416666666666,0.3333333333333333,0.3333333333333333,0.3333333333333333,0.0,0.3333333333333331,0.3333333333333331,2.333333333333333,2.333333333333333,1.0,2.0,-1.0,2.0,0,1,0,1,0.0260416666666666,0.5355874068047859,0.24873353647691065,0.41193563681951356,0.5236703590257458,0.24943971410359236,0.46922625625004355,0.3927448908839604,0.23849634156850646,0.4063952561401322,0.4808743906376199,0.24963421106651756,0.3853246955312315,0.4656947958983451,0.24882315297154387,0.4049469113284996,0.3904111494225286,0.23799028382910864,0.41709903645493845,0.5449826295803384,0.24797656303603807,0.490133241142122,0.4646427221050909,0.2487498628998622,0.4962050869989575,0.590641565882216,0.24178410653441995,0.40437622467705936,0.42324205793000785,0.24410821832917967,0.5065862104187365,0.4739866899751849,0.24932330770155287,0.4970579967357664
11.0,0.0,11.0,0.0,7.0,0.0,7.0,0.0,,,,left,2.9252737000060733,480.23783120000735,pz19,480.23783120000735,,455.8774223999935,457.8918563000043,True,1.0,['r'],True,0.3333333333333333,0.3333333333333333,0.0,0.0,2.0,0.5793801642856949,0.3333333333333332,unsucc_cost,0.0,0.0,477.0072456000198,,pz19,1,2023-04-20_11h51.13.410,threat_forest,2021.2.3,60.04282253858096,True,40.0,0.3541666666666666,0.3576388888888888,-0.8958333333333335,-1.018132716049383,1,0,1.0,1.0733880489578214,0.3333333333333332,1.0,0.3333333333333333,0.3333333333333333,0.0,0.3333333333333331,0.3333333333333331,1.333333333333333,1.333333333333333,1.0,2.0,-1.0,1.0,1,1,0,1,0.625,0.5355874068047859,0.24873353647691065,0.41193563681951356,0.5236703590257458,0.24943971410359236,0.46922625625004355,0.9622662770596592,0.03630988909340243,0.4476300239367692,0.4808743906376199,0.24963421106651756,0.3853246955312315,0.4656947958983451,0.24882315297154387,0.4049469113284996,0.3904111494225286,0.23799028382910864,0.41709903645493845,0.5449826295803384,0.24797656303603807,0.490133241142122,0.4646427221050909,0.2487498628998622,0.4962050869989575,0.590641565882216,0.24178410653441995,0.40437622467705936,0.9851913154835478,0.01458938737934438,0.22993695474571443,0.9629854095939502,0.035644510503122104,0.1171916299830566
12.0,0.0,12.0,0.0,0.0,0.0,0.0,0.0,487.1375839000102,490.6444264000165,,right,1.4747942000103649,492.4268650000158,pz19,487.1375839000102,490.6444264000165,492.4268650000158,,True,4.0,['r'],False,0.4,0.4,0.0,0.0,2.0,0.6126016192893442,0.0533547681755829,unsucc_cost,1.0,2.0,,,pz19,1,2023-04-20_11h51.13.410,threat_forest,2021.2.3,60.04282253858096,True,2.0,0.45,0.4020833333333333,-0.7,-0.7979166666666667,1,0,1.0,0.3885184546405049,0.0533547681755829,0.4,0.4,0.4,0.0,0.6000000000000001,0.6000000000000001,4.6,4.6,0.0,2.0,-1.0,4.0,0,1,0,1,0.0533547681755829,0.5355874068047859,0.24873353647691065,0.41193563681951356,0.5236703590257458,0.24943971410359236,0.46922625625004355,0.3927448908839604,0.23849634156850646,0.4063952561401322,0.4739883277469707,0.24932339290660105,0.44131638495324665,0.4656947958983451,0.24882315297154387,0.4049469113284996,0.44001859425932854,0.24640223096537298,0.4299927509550253,0.5986957136340788,0.24025915611025986,0.4437926976708484,0.5434112164918591,0.24811546628269698,0.49317500519825475,0.590641565882216,0.24178410653441995,0.40437622467705936,0.5352493368934432,0.24875748424857252,0.5121901774252917,0.548535696896242,0.24764428612679615,0.4940731248923052
12.0,0.0,12.0,0.0,1.0,0.0,1.0,0.0,,,,left,1.0897701999929268,499.5702693000203,pz19,499.5702693000203,,493.92497700001695,495.9394939000194,True,2.0,['r'],True,0.3333333333333333,0.5,0.3333333333333333,2.0,2.0,1.0,-0.000405596707819,figh_cost,0.0,0.0,495.9394939000194,,pz19,1,2023-04-20_11h51.13.410,threat_forest,2021.2.3,60.04282253858096,True,2.0,0.45,0.4020833333333333,-0.7,-0.7979166666666667,0,0,1.0,0.0859668483196289,-0.000405596707819,0.3333333333333333,0.3333333333333333,0.5,0.3333333333333333,0.0,0.0,2.0,2.0,1.0,2.0,-1.0,2.0,0,1,0,0,-0.000405596707819,0.5355874068047859,0.24873353647691065,0.41193563681951356,0.5236703590257458,0.24943971410359236,0.46922625625004355,0.3927448908839604,0.23849634156850646,0.4063952561401322,0.4808743906376199,0.24963421106651756,0.3853246955312315,0.4853671576766066,0.2497858799255387,0.4177877941432251,0.516409097249269,0.24973074152746405,0.4350946452255099,0.476492177973485,0.2494473823035697,0.4989650372183103,0.4646427221050909,0.2487498628998622,0.4962050869989575,0.3729680474769007,0.23386288303816902,0.4200746997801698,0.42324205793000785,0.24410821832917967,0.5065862104187365,0.4028569346460404,0.24056322485363635,0.48148480516261943
13.0,0.0,13.0,0.0,0.0,0.0,0.0,0.0,506.1918468000076,509.695633299998,,right,1.6526932999840938,513.0075287999935,pz19,506.1918468000076,509.695633299998,513.0075287999935,,True,5.0,['p'],False,0.4444444444444445,0.6666666666666666,0.3333333333333333,1.0,1.0,0.9656336071428248,0.0480533547078672,succ_gain,1.0,6.0,,,pz19,1,2023-04-20_11h51.13.410,threat_forest,2021.2.3,60.04282253858096,True,5.0,0.4444444444444444,0.4472222222222222,-1.259259259259259,-0.9796296296296296,0,0,1.0,0.502406260174514,0.0480533547078672,0.4444444444444445,0.4444444444444445,0.6666666666666666,0.3333333333333333,0.0,0.0,5.0,5.0,0.0,1.0,-1.0,5.0,0,1,0,0,0.0480533547078672,0.5355874068047859,0.24873353647691065,0.41193563681951356,0.5236703590257458,0.24943971410359236,0.46922625625004355,0.3927448908839604,0.23849634156850646,0.4063952561401322,0.4739883277469707,0.24932339290660105,0.44131638495324665,0.4853671576766066,0.2497858799255387,0.4177877941432251,0.6403547609459099,0.23030054107981648,0.405312306702317,0.476492177973485,0.2494473823035697,0.4989650372183103,0.5949778266797883,0.24097921243918413,0.4590899670512244,0.3729680474769007,0.23386288303816902,0.4200746997801698,0.6086652228802021,0.23819186933639602,0.4994549718254502,0.5341317263258232,0.24883502525801912,0.4961899551696111
13.0,0.0,13.0,0.0,1.0,0.0,1.0,0.0,,,,left,2.121296400000574,517.7860330000112,pz19,506.1918468000076,509.695633299998,517.7860330000112,,False,6.0,['p'],False,0.4444444444444445,0.6666666666666666,0.3333333333333333,1.0,1.0,0.9656336071428248,-0.125995838529335,wait_cost,1.0,5.0,516.7034205000091,,pz19,1,2023-04-20_11h51.13.410,threat_forest,2021.2.3,60.04282253858096,False,5.0,0.4444444444444444,0.4472222222222222,-1.259259259259259,-0.9796296296296296,0,0,0.0,0.7520274112224485,-0.125995838529335,0.4444444444444445,0.4444444444444445,0.6666666666666666,0.3333333333333333,0.0,0.0,6.0,6.0,0.0,1.0,1.0,6.0,0,1,0,0,-0.125995838529335,0.19999668531354423,0.15999801117713938,0.41393256701360415,0.5236703590257458,0.24943971410359236,0.46922625625004355,0.3927448908839604,0.23849634156850646,0.4063952561401322,0.4739883277469707,0.24932339290660105,0.44131638495324665,0.4853671576766066,0.2497858799255387,0.4177877941432251,0.6403547609459099,0.23030054107981648,0.405312306702317,0.476492177973485,0.2494473823035697,0.4989650372183103,0.5949778266797883,0.24097921243918413,0.4590899670512244,0.3729680474769007,0.23386288303816902,0.4200746997801698,0.6086652228802021,0.23819186933639602,0.4994549718254502,0.1457933322020493,0.12453763648747218,0.27522092086121563
13.0,0.0,13.0,0.0,2.0,0.0,2.0,0.0,,,,right,1.1931486000248697,525.1981196000124,pz19,525.1981196000124,,519.934035400016,521.9484839000215,False,5.0,['p'],True,0.1975308641975308,0.2222222222222222,0.1111111111111111,1.0,1.0,0.7461067557824965,-0.1048953757063683,wait_cost,0.0,4.0,521.9484839000215,,pz19,1,2023-04-20_11h51.13.410,threat_forest,2021.2.3,60.04282253858096,False,5.0,0.4444444444444444,0.4472222222222222,-1.259259259259259,-0.9796296296296296,0,0,0.0,0.1765956953126206,-0.1048953757063683,0.1975308641975308,0.1975308641975308,0.2222222222222222,0.1111111111111111,-0.6666666666666667,-0.5185185185185184,4.481481481481482,4.481481481481482,1.0,1.0,-1.0,5.0,0,1,0,0,-0.1048953757063683,0.5355874068047859,0.24873353647691065,0.41193563681951356,0.5236703590257458,0.24943971410359236,0.46922625625004355,0.3927448908839604,0.23849634156850646,0.4063952561401322,0.4808743906376199,0.24963421106651756,0.3853246955312315,0.4722434340578881,0.2492295730471012,0.41036775525743296,0.31293921117848195,0.21500826128547143,0.38187251487650964,0.34453738885331003,0.2258313765354531,0.3571585272804014,0.31327394540739556,0.21513338053627967,0.3356419808009793,0.3729680474769007,0.23386288303816902,0.4200746997801698,0.22660325314503685,0.17525421880912317,0.4235934222518364,0.17696186066701833,0.14564636053628513,0.31274684489457594
13.0,0.0,13.0,0.0,3.0,0.0,3.0,0.0,,,,right,1.0401000999845564,531.0569745000103,pz19,526.4115171000012,528.4258853000065,531.0569745000103,,True,4.0,['p'],False,0.4444444444444445,0.6666666666666666,0.3333333333333333,1.0,1.0,0.9656336071428248,0.094905172916655,succ_gain,1.0,5.0,528.4258853000065,,pz19,1,2023-04-20_11h51.13.410,threat_forest,2021.2.3,60.04282253858096,True,5.0,0.4444444444444444,0.4472222222222222,-1.259259259259259,-0.9796296296296296,0,0,1.0,0.0393169585066991,0.094905172916655,0.4444444444444445,0.4444444444444445,0.6666666666666666,0.3333333333333333,0.0,0.0,4.0,4.0,0.0,1.0,-1.0,4.0,0,1,0,0,0.094905172916655,0.5355874068047859,0.24873353647691065,0.41193563681951356,0.5236703590257458,0.24943971410359236,0.46922625625004355,0.3927448908839604,0.23849634156850646,0.4063952561401322,0.4739883277469707,0.24932339290660105,0.44131638495324665,0.4853671576766066,0.2497858799255387,0.4177877941432251,0.6403547609459099,0.23030054107981648,0.405312306702317,0.476492177973485,0.2494473823035697,0.4989650372183103,0.5949778266797883,0.24097921243918413,0.4590899670512244,0.3729680474769007,0.23386288303816902,0.4200746997801698,0.6086652228802021,0.23819186933639602,0.4994549718254502,0.6568902427600304,0.22538545172669872,0.45450259818317534
13.0,0.0,13.0,0.0,4.0,0.0,4.0,0.0,,,,left,1.3213370999728795,537.2345338000159,pz19,526.4115171000012,528.4258853000065,537.2345338000159,,False,5.0,['p'],False,0.4444444444444445,0.6666666666666666,0.3333333333333333,1.0,1.0,0.9656336071428248,-0.324069840302122,wait_cost,1.0,4.0,534.1371138000104,,pz19,1,2023-04-20_11h51.13.410,threat_forest,2021.2.3,60.04282253858096,False,5.0,0.4444444444444444,0.4472222222222222,-1.259259259259259,-0.9796296296296296,0,0,0.0,0.2786441784309468,-0.324069840302122,0.0,0.4444444444444445,0.6666666666666666,0.3333333333333333,0.0,0.0,5.0,5.0,0.0,1.0,1.0,5.0,0,0,0,0,-0.84,0.19999668531354423,0.15999801117713938,0.41393256701360415,0.10255096364787301,0.09203426350276564,-0.04827100902961218,0.3927448908839604,0.23849634156850646,0.4063952561401322,0.4739883277469707,0.24932339290660105,0.44131638495324665,0.4853671576766066,0.2497858799255387,0.4177877941432251,0.6403547609459099,0.23030054107981648,0.405312306702317,0.476492177973485,0.2494473823035697,0.4989650372183103,0.5949778266797883,0.24097921243918413,0.4590899670512244,0.3729680474769007,0.23386288303816902,0.4200746997801698,0.07155607073862483,0.06643579947907376,0.2924297413172957,0.019159271730429268,0.018792194037188844,0.08723251232040838
13.0,0.0,13.0,0.0,5.0,0.0,5.0,0.0,,,,left,1.531119099992793,542.4462208000186,pz19,526.4115171000012,528.4258853000065,542.4462208000186,,False,4.0,['p'],False,0.4444444444444445,0.6666666666666666,0.3333333333333333,1.0,1.0,0.9656336071428248,-0.3635116598079561,wait_cost,1.0,3.0,540.5977580000181,,pz19,1,2023-04-20_11h51.13.410,threat_forest,2021.2.3,60.04282253858096,False,5.0,0.4444444444444444,0.4472222222222222,-1.259259259259259,-0.9796296296296296,0,0,0.0,0.4259989059377954,-0.3635116598079561,0.0,0.4444444444444445,0.6666666666666666,0.3333333333333333,0.0,0.0,4.0,4.0,0.0,1.0,-1.0,4.0,0,0,0,0,-0.84,0.5355874068047859,0.24873353647691065,0.41193563681951356,0.10255096364787301,0.09203426350276564,-0.04827100902961218,0.3927448908839604,0.23849634156850646,0.4063952561401322,0.4739883277469707,0.24932339290660105,0.44131638495324665,0.4853671576766066,0.2497858799255387,0.4177877941432251,0.6403547609459099,0.23030054107981648,0.405312306702317,0.476492177973485,0.2494473823035697,0.4989650372183103,0.5949778266797883,0.24097921243918413,0.4590899670512244,0.3729680474769007,0.23386288303816902,0.4200746997801698,0.07155607073862483,0.06643579947907376,0.2924297413172957,0.01252705557879872,0.012370128457324412,0.07581571874586718
13.0,0.0,13.0,0.0,6.0,0.0,6.0,0.0,,,,left,0.9634694999840576,548.1908574000117,pz19,526.4115171000012,528.4258853000065,548.1908574000117,,False,3.0,['p'],False,0.4444444444444445,0.6666666666666666,0.3333333333333333,1.0,1.0,0.9656336071428248,-0.4842249657064471,wait_cost,1.0,2.0,546.00938090001,,pz19,1,2023-04-20_11h51.13.410,threat_forest,2021.2.3,60.04282253858096,False,5.0,0.4444444444444444,0.4472222222222222,-1.259259259259259,-0.9796296296296296,0,0,0.0,-0.0372144470682435,-0.4842249657064471,0.0,0.4444444444444445,0.6666666666666666,0.3333333333333333,0.0,0.0,3.0,3.0,0.0,1.0,-1.0,3.0,0,0,0,0,-0.84,0.5355874068047859,0.24873353647691065,0.41193563681951356,0.10255096364787301,0.09203426350276564,-0.04827100902961218,0.3927448908839604,0.23849634156850646,0.4063952561401322,0.4739883277469707,0.24932339290660105,0.44131638495324665,0.4853671576766066,0.2497858799255387,0.4177877941432251,0.6403547609459099,0.23030054107981648,0.405312306702317,0.476492177973485,0.2494473823035697,0.4989650372183103,0.5949778266797883,0.24097921243918413,0.4590899670512244,0.3729680474769007,0.23386288303816902,0.4200746997801698,0.07155607073862483,0.06643579947907376,0.2924297413172957,0.003373938024669783,0.0033625545668754717,0.05980255126325586
13.0,0.0,13.0,0.0,7.0,0.0,7.0,0.0,,,,left,0.7778699000191409,554.7015114999958,pz19,526.4115171000012,528.4258853000065,554.7015114999958,,False,2.0,['p'],False,0.4444444444444445,0.6666666666666666,0.3333333333333333,1.0,1.0,0.9656336071428248,-0.5555555555555556,wait_cost,1.0,1.0,551.1877619000152,,pz19,1,2023-04-20_11h51.13.410,threat_forest,2021.2.3,60.04282253858096,False,5.0,0.4444444444444444,0.4472222222222222,-1.259259259259259,-0.9796296296296296,0,0,0.0,-0.2511959924129577,-0.5555555555555556,0.0,0.4444444444444445,0.6666666666666666,0.3333333333333333,0.0,0.0,2.0,2.0,0.0,1.0,-1.0,2.0,0,0,0,0,-0.84,0.5355874068047859,0.24873353647691065,0.41193563681951356,0.10255096364787301,0.09203426350276564,-0.04827100902961218,0.3927448908839604,0.23849634156850646,0.4063952561401322,0.4739883277469707,0.24932339290660105,0.44131638495324665,0.4853671576766066,0.2497858799255387,0.4177877941432251,0.6403547609459099,0.23030054107981648,0.405312306702317,0.476492177973485,0.2494473823035697,0.4989650372183103,0.5949778266797883,0.24097921243918413,0.4590899670512244,0.3729680474769007,0.23386288303816902,0.4200746997801698,0.07155607073862483,0.06643579947907376,0.2924297413172957,0.001548517404960437,0.0015461194988069722,0.056573393299077374
14.0,0.0,14.0,0.0,0.0,0.0,0.0,0.0,561.1563490999979,564.6585426999955,,left,1.57086900001741,566.8911156000104,pz19,566.8911156000104,,561.1563490999979,564.6585426999955,True,5.0,['r'],True,0.4444444444444445,0.6666666666666666,0.3333333333333333,2.0,2.0,0.9656336071428248,-0.0307726625514404,succ_gain,0.0,6.0,,,pz19,1,2023-04-20_11h51.13.410,threat_forest,2021.2.3,60.04282253858096,True,47.0,0.6333333333333333,0.5388888888888889,-0.0777777777777778,-0.6685185185185185,1,0,1.0,0.4516289694296266,-0.0307726625514404,0.4444444444444445,0.4444444444444445,0.6666666666666666,0.3333333333333333,0.6666666666666665,0.4444444444444444,5.444444444444445,5.444444444444445,1.0,2.0,-1.0,5.0,0,1,0,1,-0.0307726625514404,0.5355874068047859,0.24873353647691065,0.41193563681951356,0.5236703590257458,0.24943971410359236,0.46922625625004355,0.3927448908839604,0.23849634156850646,0.4063952561401322,0.4808743906376199,0.24963421106651756,0.3853246955312315,0.4853671576766066,0.2497858799255387,0.4177877941432251,0.6403547609459099,0.23030054107981648,0.405312306702317,0.6118124823362402,0.23749796879380794,0.4272126569782986,0.5949778266797883,0.24097921243918413,0.4590899670512244,0.590641565882216,0.24178410653441995,0.40437622467705936,0.6086652228802021,0.23819186933639602,0.4994549718254502,0.32609511426180776,0.2197570907163863,0.44449680876563885
14.0,0.0,14.0,0.0,1.0,0.0,1.0,0.0,,,,right,0.9943990999890956,572.9378563000064,pz19,568.488832300005,570.5031092000136,572.9378563000064,,True,6.0,['r'],False,0.6,0.6,0.0,0.0,2.0,0.6126016192893442,-0.0046270987654321,succ_gain,1.0,6.0,570.5031092000136,,pz19,1,2023-04-20_11h51.13.410,threat_forest,2021.2.3,60.04282253858096,True,47.0,0.6333333333333333,0.5388888888888889,-0.0777777777777778,-0.6685185185185185,1,1,1.0,-0.005616643865394,-0.0046270987654321,0.6,0.6,0.6,0.0,1.4,1.4,7.4,7.0,0.0,2.0,1.0,6.0,0,1,1,1,-0.0046270987654321,0.19999668531354423,0.15999801117713938,0.41393256701360415,0.5236703590257458,0.24943971410359236,0.46922625625004355,0.3927448908839604,0.23849634156850646,0.4063952561401322,0.4739883277469707,0.24932339290660105,0.44131638495324665,0.4656947958983451,0.24882315297154387,0.4049469113284996,0.59204035276225,0.2415285734634006,0.42252247714282626,0.7424762815088403,0.19120525290564563,0.14923980500219525,0.7542352168458529,0.18536445451534211,0.19345603825044033,0.590641565882216,0.24178410653441995,0.40437622467705936,0.8165823203509828,0.14977563444118772,0.3928829512555275,0.391794915745156,0.23829165974140215,0.47744654213727444
14.0,0.0,14.0,0.0,2.0,0.0,2.0,0.0,,,,left,1.8513014999916777,576.8141967999982,pz19,568.488832300005,570.5031092000136,576.8141967999982,,False,6.0,['r'],False,0.6,0.6,0.0,0.0,2.0,0.6126016192893442,0.0736506172839506,wait_cost,1.0,5.0,575.9646235000109,,pz19,1,2023-04-20_11h51.13.410,threat_forest,2021.2.3,60.04282253858096,False,47.0,0.6333333333333333,0.5388888888888889,-0.0777777777777778,-0.6685185185185185,1,1,0.0,0.6158889052496221,0.0736506172839506,0.6,0.6,0.6,0.0,1.4,1.4,7.4,7.0,0.0,2.0,-1.0,6.0,0,1,1,1,0.0736506172839506,0.5355874068047859,0.24873353647691065,0.41193563681951356,0.5236703590257458,0.24943971410359236,0.46922625625004355,0.3927448908839604,0.23849634156850646,0.4063952561401322,0.4739883277469707,0.24932339290660105,0.44131638495324665,0.4656947958983451,0.24882315297154387,0.4049469113284996,0.59204035276225,0.2415285734634006,0.42252247714282626,0.7424762815088403,0.19120525290564563,0.14923980500219525,0.7542352168458529,0.18536445451534211,0.19345603825044033,0.590641565882216,0.24178410653441995,0.40437622467705936,0.8165823203509828,0.14977563444118772,0.3928829512555275,0.6027329393238607,0.23944594317787993,0.47949856349347136
14.0,0.0,14.0,0.0,3.0,0.0,3.0,0.0,,,,left,0.9002852999838069,582.0095118000172,pz19,568.488832300005,570.5031092000136,582.0095118000172,,False,5.0,['r'],False,0.6,0.6,0.0,0.0,2.0,0.6126016192893442,0.0901728395061728,wait_cost,1.0,4.0,580.710238700005,,pz19,1,2023-04-20_11h51.13.410,threat_forest,2021.2.3,60.04282253858096,False,47.0,0.6333333333333333,0.5388888888888889,-0.0777777777777778,-0.6685185185185185,1,1,0.0,-0.1050435659096971,0.0901728395061728,0.6,0.6,0.6,0.0,1.4,1.4,6.4,6.4,0.0,2.0,-1.0,5.0,0,1,1,1,0.0901728395061728,0.5355874068047859,0.24873353647691065,0.41193563681951356,0.5236703590257458,0.24943971410359236,0.46922625625004355,0.3927448908839604,0.23849634156850646,0.4063952561401322,0.4739883277469707,0.24932339290660105,0.44131638495324665,0.4656947958983451,0.24882315297154387,0.4049469113284996,0.59204035276225,0.2415285734634006,0.42252247714282626,0.7424762815088403,0.19120525290564563,0.14923980500219525,0.7542352168458529,0.18536445451534211,0.19345603825044033,0.590641565882216,0.24178410653441995,0.40437622467705936,0.8165823203509828,0.14977563444118772,0.3928829512555275,0.6451248557805489,0.22893877623467487,0.46081950228613505
14.0,0.0,14.0,0.0,4.0,0.0,4.0,0.0,,,,left,2.184735399991041,586.989545599994,pz19,586.989545599994,,582.9418293000199,584.9563348999945,True,4.0,['r'],True,0.4444444444444445,0.6666666666666666,0.3333333333333333,2.0,2.0,0.9656336071428248,0.0582098765432098,succ_gain,0.0,6.0,584.9563348999945,,pz19,1,2023-04-20_11h51.13.410,threat_forest,2021.2.3,60.04282253858096,True,47.0,0.6333333333333333,0.5388888888888889,-0.0777777777777778,-0.6685185185185185,1,0,1.0,0.7814947228122804,0.0582098765432098,0.4444444444444445,0.4444444444444445,0.6666666666666666,0.3333333333333333,0.6666666666666665,0.4444444444444444,4.444444444444445,4.444444444444445,1.0,2.0,-1.0,4.0,0,1,0,1,0.0582098765432098,0.5355874068047859,0.24873353647691065,0.41193563681951356,0.5236703590257458,0.24943971410359236,0.46922625625004355,0.3927448908839604,0.23849634156850646,0.4063952561401322,0.4808743906376199,0.24963421106651756,0.3853246955312315,0.4853671576766066,0.2497858799255387,0.4177877941432251,0.6403547609459099,0.23030054107981648,0.405312306702317,0.6118124823362402,0.23749796879380794,0.4272126569782986,0.5949778266797883,0.24097921243918413,0.4590899670512244,0.590641565882216,0.24178410653441995,0.40437622467705936,0.6086652228802021,0.23819186933639602,0.4994549718254502,0.5616566854926535,0.24619845313406005,0.4915028028337632
14.0,0.0,14.0,0.0,5.0,0.0,5.0,0.0,,,,left,1.2552244999969844,593.2655288999958,pz19,589.2028086000064,591.2172362999991,593.2655288999958,,False,6.0,['r'],False,0.6,0.6,0.0,0.0,2.0,0.6126016192893442,0.0,wait_cost,1.0,5.0,591.2172362999991,,pz19,1,2023-04-20_11h51.13.410,threat_forest,2021.2.3,60.04282253858096,False,47.0,0.6333333333333333,0.5388888888888889,-0.0777777777777778,-0.6685185185185185,1,1,0.0,0.2273144410455785,0.0,0.0,0.6,0.6,0.0,1.4,1.4,7.4,7.0,0.0,2.0,1.0,6.0,0,0,1,1,-0.84,0.19999668531354423,0.15999801117713938,0.41393256701360415,0.10255096364787301,0.09203426350276564,-0.04827100902961218,0.3927448908839604,0.23849634156850646,0.4063952561401322,0.4739883277469707,0.24932339290660105,0.44131638495324665,0.4656947958983451,0.24882315297154387,0.4049469113284996,0.59204035276225,0.2415285734634006,0.42252247714282626,0.7424762815088403,0.19120525290564563,0.14923980500219525,0.7542352168458529,0.18536445451534211,0.19345603825044033,0.590641565882216,0.24178410653441995,0.40437622467705936,0.07155607073862483,0.06643579947907376,0.2924297413172957,0.40392517745565965,0.24076962847307348,0.4818517381200686
14.0,0.0,14.0,0.0,6.0,0.0,6.0,0.0,,,,left,1.308937399997376,600.3591145999962,pz19,589.2028086000064,591.2172362999991,600.3591145999962,,False,5.0,['r'],False,0.6,0.6,0.0,0.0,2.0,0.6126016192893442,0.0,wait_cost,1.0,4.0,596.5620679999993,,pz19,1,2023-04-20_11h51.13.410,threat_forest,2021.2.3,60.04282253858096,False,47.0,0.6333333333333333,0.5388888888888889,-0.0777777777777778,-0.6685185185185185,1,1,0.0,0.2692156630167434,0.0,0.0,0.6,0.6,0.0,1.4,1.4,6.4,6.4,0.0,2.0,-1.0,5.0,0,0,1,1,-0.84,0.5355874068047859,0.24873353647691065,0.41193563681951356,0.10255096364787301,0.09203426350276564,-0.04827100902961218,0.3927448908839604,0.23849634156850646,0.4063952561401322,0.4739883277469707,0.24932339290660105,0.44131638495324665,0.4656947958983451,0.24882315297154387,0.4049469113284996,0.59204035276225,0.2415285734634006,0.42252247714282626,0.7424762815088403,0.19120525290564563,0.14923980500219525,0.7542352168458529,0.18536445451534211,0.19345603825044033,0.590641565882216,0.24178410653441995,0.40437622467705936,0.07155607073862483,0.06643579947907376,0.2924297413172957,0.40392517745565965,0.24076962847307348,0.4818517381200686
14.0,0.0,14.0,0.0,7.0,0.0,7.0,0.0,,,,left,0.457809499988798,604.7713975000079,pz19,589.2028086000064,591.2172362999991,604.7713975000079,,False,4.0,['r'],False,0.6,0.6,0.0,0.0,2.0,0.6126016192893442,0.0,wait_cost,1.0,3.0,603.7053597000195,,pz19,1,2023-04-20_11h51.13.410,threat_forest,2021.2.3,60.04282253858096,False,47.0,0.6333333333333333,0.5388888888888889,-0.0777777777777778,-0.6685185185185185,1,1,0.0,-0.7813021202836131,0.0,0.0,0.6,0.6,0.0,1.4,1.4,5.4,5.4,0.0,2.0,-1.0,4.0,0,0,1,1,-0.84,0.5355874068047859,0.24873353647691065,0.41193563681951356,0.10255096364787301,0.09203426350276564,-0.04827100902961218,0.3927448908839604,0.23849634156850646,0.4063952561401322,0.4739883277469707,0.24932339290660105,0.44131638495324665,0.4656947958983451,0.24882315297154387,0.4049469113284996,0.59204035276225,0.2415285734634006,0.42252247714282626,0.7424762815088403,0.19120525290564563,0.14923980500219525,0.7542352168458529,0.18536445451534211,0.19345603825044033,0.590641565882216,0.24178410653441995,0.40437622467705936,0.07155607073862483,0.06643579947907376,0.2924297413172957,0.40392517745565965,0.24076962847307348,0.4818517381200686
15.0,0.0,15.0,0.0,0.0,0.0,0.0,0.0,610.3802174000011,613.8792638000159,,left,2.016714500001399,616.296295600012,pz19,610.3802174000011,613.8792638000159,616.296295600012,,False,4.0,['p'],False,0.2962962962962963,0.3333333333333333,0.1111111111111111,1.0,1.0,0.8325252476189534,0.0071317107376875,wait_cost,1.0,3.0,,,pz19,1,2023-04-20_11h51.13.410,threat_forest,2021.2.3,60.04282253858096,False,4.0,0.4666666666666667,0.55,-0.9911111111111112,-0.5344444444444445,0,0,0.0,0.7014697021023073,0.0071317107376875,0.2962962962962963,0.2962962962962963,0.3333333333333333,0.1111111111111111,-0.3333333333333335,-0.2222222222222223,3.7777777777777777,3.7777777777777777,0.0,1.0,-1.0,4.0,0,1,0,0,0.0071317107376875,0.5355874068047859,0.24873353647691065,0.41193563681951356,0.5236703590257458,0.24943971410359236,0.46922625625004355,0.3927448908839604,0.23849634156850646,0.4063952561401322,0.4739883277469707,0.24932339290660105,0.44131638495324665,0.4722434340578881,0.2492295730471012,0.41036775525743296,0.3904111494225286,0.23799028382910864,0.41709903645493845,0.40887460338153986,0.24169616209112835,0.45242145584899807,0.42138716684352184,0.24382002246311174,0.47265858724850907,0.3729680474769007,0.23386288303816902,0.4200746997801698,0.36357687308869263,0.2313887304437413,0.4912548459224716,0.42284869466490843,0.24404767608509143,0.4876792701576216
