miniblock.thisRepN,miniblock.thisTrialN,miniblock.thisN,miniblock.thisIndex,day.thisRepN,day.thisTrialN,day.thisN,day.thisIndex,forest.started,fixation_forest.started,fixation_forest.stopped,key_resp.keys,key_resp.rt,key_resp.started,Subject_ID,weather_left.started,weather_left.stopped,weather_right.started,weather_right.stopped,foraging T/F,in_LP,p/r heuristic,good_weather.T/F,p_succ_correct,p_succ_uncorrected,r_threat,n_oponents,gain_if_succ,weather_entropy,OP_value_difference,action_outcome,forest_side_L=0_R=1,out_LP,fixation_day.started,fixation_day.stopped,participant,session,date,expName,psychopyVersion,frameRate,foraging T/F NaNs,fora_NR,forest_mean_p,mvt_cutoff_p,forest_mean_ev,mvt_cutoff_ev,mvt_policy_eg,mvt_policy_p,fora_response,logRT,optimal policy,$\mathit{p}$ success cor + cap,$\mathit{p}$ success cor,$\mathit{p}$ success,risk threat encounter,expected gain naive,expected gain correct,expected state no bounds,expected state with bounds,weather type,gain magnitude,win stay lose shift,continuous energy state,binary energy state,$\mathit{p}$ success based MVT,expected gain based MVT,weather type fit,weather type_uncertain,weather type_uncertain_fit,risk threat encounter fit,risk threat encounter_uncertain,risk threat encounter_uncertain_fit,win stay lose shift fit,win stay lose shift_uncertain,win stay lose shift_uncertain_fit,$\mathit{p}$ success fit,$\mathit{p}$ success_uncertain,$\mathit{p}$ success_uncertain_fit,expected gain naive fit,expected gain naive_uncertain,expected gain naive_uncertain_fit,expected gain based MVT fit,expected gain based MVT_uncertain,expected gain based MVT_uncertain_fit,$\mathit{p}$ success cor fit,$\mathit{p}$ success cor_uncertain,$\mathit{p}$ success cor_uncertain_fit,binary energy state fit,binary energy state_uncertain,binary energy state_uncertain_fit,$\mathit{p}$ success cor + cap fit,$\mathit{p}$ success cor + cap_uncertain,$\mathit{p}$ success cor + cap_uncertain_fit,optimal policy fit,optimal policy_uncertain,optimal policy_uncertain_fit
0.0,0.0,0.0,0.0,0.0,0.0,0.0,0.0,33.633866600022884,37.14146760001313,None,right,1.246233400015626,38.309800600021845,kp4,33.633866600022884,37.14146760001313,38.309800600021845,None,True,4.0,['p'],False,0.25,0.5,0.5,1.0,1.0,0.9463946303571862,0.0069096320109571,succ_gain,1.0,5.0,,,kp4,1,2023-03-24_11h15.46.911,threat_forest,2021.2.3,60.052413743836034,True,71.0,0.35,0.35,-1.7350000000000003,-1.7350000000000003,0,0,1,0.2201257222578586,0.0069096320109571,0.25,0.25,0.5,0.5,-2.0,-1.75,2.25,2.25,0.0,1.0,,4.0,0,0,0,0.5168576005668521,0.24971582130312847,-0.25950068436405616,0.44190409811230136,0.24662486618385496,-0.27581147155958563,,,,0.5313665896356238,0.24901613705463038,-0.30890904815748,0.3596837542094694,0.23031135116725146,-0.33656589015336946,0.39062408980828767,0.23803691026973448,-0.2098138707612449,0.4074301463730912,0.24143082219949272,-0.25915570766056395,0.4361379565624501,0.24592163940798054,-0.23618217318265106,0.3535912191341746,0.22856446888538268,-0.16229295307136393,0.446331534596621,0.24711969582124627,-0.1930508974942436
0.0,0.0,0.0,0.0,1.0,0.0,1.0,0.0,,,,right,0.7629397000127938,43.5812561000057,kp4,43.5812561000057,None,39.58949300000677,41.6011131000123,False,5.0,['p'],True,0.16,0.2,0.2,2.0,1.0,0.8198746470064713,0.0027365975062501,wait_cost,0.0,4.0,41.6011131000123,None,kp4,1,2023-03-24_11h15.46.911,threat_forest,2021.2.3,60.052413743836034,False,71.0,0.35,0.35,-1.7350000000000003,-1.7350000000000003,1,0,0,-0.2705762809481251,0.0027365975062501,0.16,0.16,0.2,0.8,-2.0,-1.7200000000000004,3.28,3.28,1.0,1.0,1.0,5.0,0,0,1,0.48108154703492606,0.2496420921374082,-0.2888745291291599,0.4971975932665097,0.24999214651650015,-0.2739592621008705,0.24999480995257076,0.1874974049493488,-0.18815918544778024,0.3675819022371135,0.23246544738485864,-0.22357596571968685,0.3596837542094694,0.23031135116725146,-0.33656589015336946,0.6198815111564002,0.23562842328285796,-0.34706810830160073,0.32503584675646574,0.21938754507977307,-0.32833571440680975,0.4361379565624501,0.24592163940798054,-0.23618217318265106,0.20719866975686166,0.16426738100784868,-0.26333212728561417,0.4241953320722719,0.2442536523203669,-0.19581289737738844
0.0,0.0,0.0,0.0,2.0,0.0,2.0,0.0,,,,right,0.8064813999808393,48.02178130001994,kp4,44.36575170001015,46.36379200001829,48.02178130001994,None,True,4.0,['p'],False,0.25,0.5,0.5,1.0,1.0,0.9463946303571862,0.0165916410937499,unsucc_cost,1.0,2.0,46.36379200001829,None,kp4,1,2023-03-24_11h15.46.911,threat_forest,2021.2.3,60.052413743836034,True,71.0,0.35,0.35,-1.7350000000000003,-1.7350000000000003,0,0,1,-0.215074444322821,0.0165916410937499,0.25,0.25,0.5,0.5,-2.0,-1.75,2.25,2.25,0.0,1.0,-1.0,4.0,0,0,0,0.5168576005668521,0.24971582130312847,-0.25950068436405616,0.44190409811230136,0.24662486618385496,-0.27581147155958563,0.5544151674317433,0.24703898955337536,-0.29611636332496616,0.5313665896356238,0.24901613705463038,-0.30890904815748,0.3596837542094694,0.23031135116725146,-0.33656589015336946,0.39062408980828767,0.23803691026973448,-0.2098138707612449,0.4074301463730912,0.24143082219949272,-0.25915570766056395,0.4361379565624501,0.24592163940798054,-0.23618217318265106,0.3535912191341746,0.22856446888538268,-0.16229295307136393,0.49836790007913007,0.2499973362498483,-0.190277721677096
0.0,0.0,0.0,0.0,3.0,0.0,3.0,0.0,,,,right,0.662465000001248,54.29017410002416,kp4,54.29017410002416,None,48.84521990001667,50.85923120001098,False,2.0,['p'],True,0.16,0.2,0.2,2.0,1.0,0.8198746470064713,-0.00750475,wait_cost,0.0,1.0,50.85923120001098,None,kp4,1,2023-03-24_11h15.46.911,threat_forest,2021.2.3,60.052413743836034,False,71.0,0.35,0.35,-1.7350000000000003,-1.7350000000000003,1,0,0,-0.4117875527041187,-0.00750475,0.16,0.16,0.2,0.8,-2.0,-1.7200000000000004,0.2799999999999996,0.2799999999999996,1.0,1.0,-1.0,2.0,0,0,1,0.48108154703492606,0.2496420921374082,-0.2888745291291599,0.4971975932665097,0.24999214651650015,-0.2739592621008705,0.5544151674317433,0.24703898955337536,-0.29611636332496616,0.3675819022371135,0.23246544738485864,-0.22357596571968685,0.3596837542094694,0.23031135116725146,-0.33656589015336946,0.6198815111564002,0.23562842328285796,-0.34706810830160073,0.32503584675646574,0.21938754507977307,-0.32833571440680975,0.4361379565624501,0.24592163940798054,-0.23618217318265106,0.20719866975686166,0.16426738100784868,-0.26333212728561417,0.37130491542059413,0.2334375752050996,-0.20623632734950428
0.0,0.0,0.0,0.0,4.0,0.0,4.0,0.0,,,,right,0.8304118999803904,57.75821470000665,kp4,54.97361920002732,56.97002360000624,57.75821470000665,None,True,1.0,['p'],False,0.25,0.5,0.5,1.0,1.0,0.9463946303571862,0.056875,figh_cost,1.0,0.0,56.97002360000624,None,kp4,1,2023-03-24_11h15.46.911,threat_forest,2021.2.3,60.052413743836034,True,71.0,0.35,0.35,-1.7350000000000003,-1.7350000000000003,0,0,1,-0.185833436253647,0.056875,1.0,0.25,0.5,0.5,-2.0,-1.75,-0.75,0.0,0.0,1.0,-1.0,1.0,1,0,0,0.5168576005668521,0.24971582130312847,-0.25950068436405616,0.44190409811230136,0.24662486618385496,-0.27581147155958563,0.5544151674317433,0.24703898955337536,-0.29611636332496616,0.5313665896356238,0.24901613705463038,-0.30890904815748,0.3596837542094694,0.23031135116725146,-0.33656589015336946,0.39062408980828767,0.23803691026973448,-0.2098138707612449,0.4074301463730912,0.24143082219949272,-0.25915570766056395,0.9761904662908956,0.023242639813659337,-0.5671055265261972,0.9961343124687373,0.0038507439911734374,-0.5154176426555156,0.703275373152148,0.20867912266985492,-0.2300959941648236
1.0,0.0,1.0,0.0,0.0,0.0,0.0,0.0,62.089939800003776,65.58391600000323,None,right,1.0316142000083346,68.46964840000146,kp4,62.089939800003776,65.58391600000323,68.46964840000146,None,True,4.0,['p'],False,0.4444444444444445,0.6666666666666666,0.3333333333333333,1.0,2.0,0.9656336071428248,0.064046602155505,unsucc_cost,1.0,2.0,,,kp4,1,2023-03-24_11h15.46.911,threat_forest,2021.2.3,60.052413743836034,True,1.0,0.4833333333333333,0.4166666666666666,-0.7877777777777778,-1.2613888888888891,1,1,1,0.0311247599635983,0.064046602155505,0.4444444444444445,0.4444444444444445,0.6666666666666666,0.6666666666666667,-0.3333333333333335,-0.5555555555555556,3.4444444444444446,3.4444444444444446,0.0,2.0,-1.0,4.0,0,1,1,0.5168576005668521,0.24971582130312847,-0.25950068436405616,0.4725332223401924,0.24924557612498674,-0.2743699213285421,0.5544151674317433,0.24703898955337536,-0.29611636332496616,0.6217243125395326,0.23518319173677824,-0.23758828227292217,0.5915612873451306,0.24161653065970243,-0.2792690003091758,0.6198815111564002,0.23562842328285796,-0.34706810830160073,0.5974391722029792,0.24050560772039817,-0.26205937500357557,0.4361379565624501,0.24592163940798054,-0.23618217318265106,0.7295732957501339,0.19729610187842156,-0.2114293927718524,0.7345312132726519,0.19499511000085784,-0.24328324738729773
1.0,0.0,1.0,0.0,1.0,0.0,1.0,0.0,,,,right,2.392077600001357,72.77486150001641,kp4,62.089939800003776,65.58391600000323,72.77486150001641,None,True,2.0,['p'],False,0.4444444444444445,0.6666666666666666,0.3333333333333333,1.0,2.0,0.9656336071428248,0.0635968883060148,figh_cost,1.0,0.0,71.53993330002413,None,kp4,1,2023-03-24_11h15.46.911,threat_forest,2021.2.3,60.052413743836034,True,1.0,0.4833333333333333,0.4166666666666666,-0.7877777777777778,-1.2613888888888891,1,1,1,0.8721622770343114,0.0635968883060148,0.4444444444444445,0.4444444444444445,0.6666666666666666,0.6666666666666667,-0.3333333333333335,-0.5555555555555556,1.4444444444444444,1.4444444444444444,0.0,2.0,-1.0,2.0,0,1,1,0.5168576005668521,0.24971582130312847,-0.25950068436405616,0.4725332223401924,0.24924557612498674,-0.2743699213285421,0.5544151674317433,0.24703898955337536,-0.29611636332496616,0.6217243125395326,0.23518319173677824,-0.23758828227292217,0.5915612873451306,0.24161653065970243,-0.2792690003091758,0.6198815111564002,0.23562842328285796,-0.34706810830160073,0.5974391722029792,0.24050560772039817,-0.26205937500357557,0.4361379565624501,0.24592163940798054,-0.23618217318265106,0.7295732957501339,0.19729610187842156,-0.2114293927718524,0.732634173227219,0.19588134144688824,-0.24242918807186017
2.0,0.0,2.0,0.0,0.0,0.0,0.0,0.0,80.93320769999991,84.43098480001208,None,right,0.8591696000075899,88.1984511000046,kp4,88.1984511000046,None,80.93320769999991,84.43098480001208,False,5.0,['p'],True,0.1875,0.25,0.25,2.0,1.0,0.895754137500101,-0.0556173947611532,wait_cost,0.0,4.0,,,kp4,1,2023-03-24_11h15.46.911,threat_forest,2021.2.3,60.052413743836034,False,57.0,0.4583333333333333,0.4708333333333333,-1.34375,-1.065763888888889,0,0,0,-0.1517889375951172,-0.0556173947611532,0.1875,0.1875,0.25,0.75,-2.0,-1.6875,3.3125,3.3125,1.0,1.0,-1.0,5.0,0,0,0,0.48108154703492606,0.2496420921374082,-0.2888745291291599,0.48794039555141094,0.2498545659405435,-0.2740349398048181,0.5544151674317433,0.24703898955337536,-0.29611636332496616,0.3938322000375557,0.23872839825113443,-0.2558668800706373,0.3596837542094694,0.23031135116725146,-0.33656589015336946,0.39062408980828767,0.23803691026973448,-0.2098138707612449,0.3493475891697506,0.22730385111103377,-0.30349140012116116,0.4361379565624501,0.24592163940798054,-0.23618217318265106,0.2467149620567622,0.1858466895540926,-0.2294214854882765,0.1729186496401594,0.14301779024678318,-0.2933736772928063
2.0,0.0,2.0,0.0,1.0,0.0,1.0,0.0,,,,right,0.7454263999825343,93.2089352000039,kp4,89.07394150001346,91.08825380000053,93.2089352000039,None,True,4.0,['p'],False,0.4444444444444445,0.6666666666666666,0.3333333333333333,1.0,1.0,0.9656336071428248,0.0696956423465989,succ_gain,1.0,5.0,91.08825380000052,None,kp4,1,2023-03-24_11h15.46.911,threat_forest,2021.2.3,60.052413743836034,True,57.0,0.4583333333333333,0.4708333333333333,-1.34375,-1.065763888888889,1,0,1,-0.2937988753619339,0.0696956423465989,0.4444444444444445,0.4444444444444445,0.6666666666666666,0.6666666666666667,-1.0,-1.0,3.0,3.0,0.0,1.0,-1.0,4.0,0,0,1,0.5168576005668521,0.24971582130312847,-0.25950068436405616,0.4725332223401924,0.24924557612498674,-0.2743699213285421,0.5544151674317433,0.24703898955337536,-0.29611636332496616,0.6217243125395326,0.23518319173677824,-0.23758828227292217,0.4978898249764897,0.2499955471613702,-0.23680248433573903,0.6198815111564002,0.23562842328285796,-0.34706810830160073,0.5974391722029792,0.24050560772039817,-0.26205937500357557,0.4361379565624501,0.24592163940798054,-0.23618217318265106,0.7295732957501339,0.19729610187842156,-0.2114293927718524,0.757617870254748,0.18363303292540784,-0.25423285633253767
2.0,0.0,2.0,0.0,2.0,0.0,2.0,0.0,,,,right,1.2252747000020463,96.79485000000568,kp4,96.79485000000568,None,93.98586700001032,96.00035480002407,False,5.0,['p'],True,0.1875,0.25,0.25,2.0,1.0,0.895754137500101,-0.1297984377601274,wait_cost,0.0,4.0,96.00035480002408,None,kp4,1,2023-03-24_11h15.46.911,threat_forest,2021.2.3,60.052413743836034,False,57.0,0.4583333333333333,0.4708333333333333,-1.34375,-1.065763888888889,0,0,0,0.2031650637571905,-0.1297984377601274,0.1875,0.1875,0.25,0.75,-2.0,-1.6875,3.3125,3.3125,1.0,1.0,1.0,5.0,0,0,0,0.48108154703492606,0.2496420921374082,-0.2888745291291599,0.48794039555141094,0.2498545659405435,-0.2740349398048181,0.24999480995257076,0.1874974049493488,-0.18815918544778024,0.3938322000375557,0.23872839825113443,-0.2558668800706373,0.3596837542094694,0.23031135116725146,-0.33656589015336946,0.39062408980828767,0.23803691026973448,-0.2098138707612449,0.3493475891697506,0.22730385111103377,-0.30349140012116116,0.4361379565624501,0.24592163940798054,-0.23618217318265106,0.2467149620567622,0.1858466895540926,-0.2294214854882765,0.040457723197771335,0.038820895831423854,-0.39378799763057404
2.0,0.0,2.0,0.0,3.0,0.0,3.0,0.0,,,,right,0.8781033999985084,103.75450360000832,kp4,98.04878219999956,100.0631970000104,103.75450360000832,None,True,4.0,['p'],False,0.4444444444444445,0.6666666666666666,0.3333333333333333,1.0,1.0,0.9656336071428248,0.0942586728156912,succ_gain,1.0,5.0,100.0631970000104,None,kp4,1,2023-03-24_11h15.46.911,threat_forest,2021.2.3,60.052413743836034,True,57.0,0.4583333333333333,0.4708333333333333,-1.34375,-1.065763888888889,1,0,1,-0.1299909246290262,0.0942586728156912,0.4444444444444445,0.4444444444444445,0.6666666666666666,0.6666666666666667,-1.0,-1.0,3.0,3.0,0.0,1.0,-1.0,4.0,0,0,1,0.5168576005668521,0.24971582130312847,-0.25950068436405616,0.4725332223401924,0.24924557612498674,-0.2743699213285421,0.5544151674317433,0.24703898955337536,-0.29611636332496616,0.6217243125395326,0.23518319173677824,-0.23758828227292217,0.4978898249764897,0.2499955471613702,-0.23680248433573903,0.6198815111564002,0.23562842328285796,-0.34706810830160073,0.5974391722029792,0.24050560772039817,-0.26205937500357557,0.4361379565624501,0.24592163940798054,-0.23618217318265106,0.7295732957501339,0.19729610187842156,-0.2114293927718524,0.8415531354240905,0.13334145568197292,-0.3026987398499783
2.0,0.0,2.0,0.0,4.0,0.0,4.0,0.0,,,,right,0.951067999994848,108.55414310001652,kp4,108.55414310001652,None,104.65929880001931,106.67370910002501,False,5.0,['p'],True,0.1875,0.25,0.25,2.0,1.0,0.895754137500101,-0.4657660590277778,wait_cost,0.0,4.0,106.673709100025,None,kp4,1,2023-03-24_11h15.46.911,threat_forest,2021.2.3,60.052413743836034,False,57.0,0.4583333333333333,0.4708333333333333,-1.34375,-1.065763888888889,0,0,0,-0.0501697153180935,-0.4657660590277778,0.0,0.1875,0.25,0.75,-2.0,-1.6875,3.3125,3.3125,1.0,1.0,1.0,5.0,0,0,0,0.48108154703492606,0.2496420921374082,-0.2888745291291599,0.48794039555141094,0.2498545659405435,-0.2740349398048181,0.24999480995257076,0.1874974049493488,-0.18815918544778024,0.3938322000375557,0.23872839825113443,-0.2558668800706373,0.3596837542094694,0.23031135116725146,-0.33656589015336946,0.39062408980828767,0.23803691026973448,-0.2098138707612449,0.3493475891697506,0.22730385111103377,-0.30349140012116116,0.4361379565624501,0.24592163940798054,-0.23618217318265106,0.06568345004907854,0.06136913443872875,-0.4250308014346017,2.989785357831814e-05,2.989695969666957e-05,-0.43117079880505343
2.0,0.0,2.0,0.0,5.0,0.0,5.0,0.0,,,,right,0.8639479000121355,113.47881020000204,kp4,113.47881020000204,None,104.65929880001931,106.67370910002501,False,4.0,['p'],True,0.1875,0.25,0.25,2.0,1.0,0.895754137500101,-0.5196397569444444,wait_cost,0.0,3.0,111.53584120000596,None,kp4,1,2023-03-24_11h15.46.911,threat_forest,2021.2.3,60.052413743836034,False,57.0,0.4583333333333333,0.4708333333333333,-1.34375,-1.065763888888889,0,0,0,-0.1462428129081347,-0.5196397569444444,0.0,0.1875,0.25,0.75,-2.0,-1.6875,2.3125,2.3125,1.0,1.0,-1.0,4.0,0,0,0,0.48108154703492606,0.2496420921374082,-0.2888745291291599,0.48794039555141094,0.2498545659405435,-0.2740349398048181,0.5544151674317433,0.24703898955337536,-0.29611636332496616,0.3938322000375557,0.23872839825113443,-0.2558668800706373,0.3596837542094694,0.23031135116725146,-0.33656589015336946,0.39062408980828767,0.23803691026973448,-0.2098138707612449,0.3493475891697506,0.22730385111103377,-0.30349140012116116,0.4361379565624501,0.24592163940798054,-0.23618217318265106,0.06568345004907854,0.06136913443872875,-0.4250308014346017,9.346502000096008e-06,9.346414642996377e-06,-0.4311906033205883
2.0,0.0,2.0,0.0,6.0,0.0,6.0,0.0,,,,right,0.4500262000074144,118.23661310001626,kp4,118.23661310001626,None,104.65929880001931,106.67370910002501,False,3.0,['p'],True,0.1875,0.25,0.25,2.0,1.0,0.895754137500101,-0.634765625,wait_cost,0.0,2.0,116.38129240000852,None,kp4,1,2023-03-24_11h15.46.911,threat_forest,2021.2.3,60.052413743836034,False,57.0,0.4583333333333333,0.4708333333333333,-1.34375,-1.065763888888889,0,0,0,-0.7984494756739218,-0.634765625,0.0,0.1875,0.25,0.75,-2.0,-1.6875,1.3125,1.3125,1.0,1.0,-1.0,3.0,0,0,0,0.48108154703492606,0.2496420921374082,-0.2888745291291599,0.48794039555141094,0.2498545659405435,-0.2740349398048181,0.5544151674317433,0.24703898955337536,-0.29611636332496616,0.3938322000375557,0.23872839825113443,-0.2558668800706373,0.3596837542094694,0.23031135116725146,-0.33656589015336946,0.39062408980828767,0.23803691026973448,-0.2098138707612449,0.3493475891697506,0.22730385111103377,-0.30349140012116116,0.4361379565624501,0.24592163940798054,-0.23618217318265106,0.06568345004907854,0.06136913443872875,-0.4250308014346017,7.789131432882811e-07,7.789125365825969e-07,-0.43119885980371897
2.0,0.0,2.0,0.0,7.0,0.0,7.0,0.0,,,,right,0.6964286000002176,122.10966410001856,kp4,122.10966410001856,None,104.65929880001931,106.67370910002501,False,2.0,['p'],True,0.1875,0.25,0.25,2.0,1.0,0.895754137500101,-0.8125,wait_cost,0.0,1.0,120.72724730000482,None,kp4,1,2023-03-24_11h15.46.911,threat_forest,2021.2.3,60.052413743836034,False,57.0,0.4583333333333333,0.4708333333333333,-1.34375,-1.065763888888889,0,0,0,-0.3617900035795502,-0.8125,0.0,0.1875,0.25,0.75,-2.0,-1.6875,0.3125,0.3125,1.0,1.0,-1.0,2.0,0,0,0,0.48108154703492606,0.2496420921374082,-0.2888745291291599,0.48794039555141094,0.2498545659405435,-0.2740349398048181,0.5544151674317433,0.24703898955337536,-0.29611636332496616,0.3938322000375557,0.23872839825113443,-0.2558668800706373,0.3596837542094694,0.23031135116725146,-0.33656589015336946,0.39062408980828767,0.23803691026973448,-0.2098138707612449,0.3493475891697506,0.22730385111103377,-0.30349140012116116,0.4361379565624501,0.24592163940798054,-0.23618217318265106,0.06568345004907854,0.06136913443872875,-0.4250308014346017,1.680535218451388e-08,1.6805351902094033e-08,-0.4311995942447539
3.0,0.0,3.0,0.0,0.0,0.0,0.0,0.0,126.6749947000062,130.16655290001654,None,right,2.369038199976785,133.8578338000225,kp4,133.8578338000225,None,126.6749947000062,130.16655290001654,False,5.0,['r'],True,0.2,0.2,0.0,0.0,2.0,0.4554859150035951,0.0163295597102297,wait_cost,0.0,4.0,,,kp4,1,2023-03-24_11h15.46.911,threat_forest,2021.2.3,60.052413743836034,False,26.0,0.2111111111111111,0.3347222222222222,-1.3654320987654325,-1.3545910493827162,1,0,0,0.8624840499840787,0.0163295597102297,0.2,0.2,0.2,1.0,-1.2000000000000002,-1.2000000000000002,3.8,3.8,1.0,2.0,-1.0,5.0,0,0,1,0.48108154703492606,0.2496420921374082,-0.2888745291291599,0.5341821925327016,0.2488315777136573,-0.2745976456928973,0.5544151674317433,0.24703898955337536,-0.29611636332496616,0.3675819022371135,0.23246544738485864,-0.22357596571968685,0.4695128665992899,0.24907053469700727,-0.24149063080086153,0.6198815111564002,0.23562842328285796,-0.34706810830160073,0.36067252256836546,0.23058785403253737,-0.29318497685068146,0.4361379565624501,0.24592163940798054,-0.23618217318265106,0.26627080991134117,0.19537066570049957,-0.21445510494391884,0.49695374667685166,0.24999072034069122,-0.1902840974143495
3.0,0.0,3.0,0.0,1.0,0.0,1.0,0.0,,,,right,0.4625643999897875,141.5056317000126,kp4,136.2467760000145,138.26111140000285,141.5056317000126,None,True,4.0,['r'],False,0.1728395061728395,0.2222222222222222,0.2222222222222222,2.0,2.0,0.8571721972794328,0.003531029138176,unsucc_cost,1.0,2.0,138.26111140000285,None,kp4,1,2023-03-24_11h15.46.911,threat_forest,2021.2.3,60.052413743836034,True,26.0,0.2111111111111111,0.3347222222222222,-1.3654320987654325,-1.3545910493827162,0,0,1,-0.7709694885019325,0.003531029138176,0.1728395061728395,0.1728395061728395,0.2222222222222222,0.7777777777777778,-1.7777777777777777,-1.5308641975308643,2.469135802469136,2.469135802469136,0.0,2.0,-1.0,4.0,0,0,0,0.5168576005668521,0.24971582130312847,-0.25950068436405616,0.49308266854190647,0.24995215052549888,-0.27398126233415226,0.5544151674317433,0.24703898955337536,-0.29611636332496616,0.3791622387500711,0.23539823545610516,-0.23869701815010858,0.38925403013020243,0.23773533015759793,-0.2989396935326496,0.39062408980828767,0.23803691026973448,-0.2098138707612449,0.336279399336822,0.22319556491848822,-0.31638473104342935,0.4361379565624501,0.24592163940798054,-0.23618217318265106,0.22504153382053832,0.17439784187623783,-0.24741269089525375,0.42838888325038177,0.24487184795787262,-0.1952171435871799
3.0,0.0,3.0,0.0,2.0,0.0,2.0,0.0,,,,right,0.9026751999917906,145.95694709999952,kp4,136.2467760000145,138.26111140000285,145.95694709999952,None,True,2.0,['r'],False,0.1728395061728395,0.2222222222222222,0.2222222222222222,2.0,2.0,0.8571721972794328,-0.0010957171162933,succ_gain,1.0,4.0,144.00574600000982,None,kp4,1,2023-03-24_11h15.46.911,threat_forest,2021.2.3,60.052413743836034,True,26.0,0.2111111111111111,0.3347222222222222,-1.3654320987654325,-1.3545910493827162,0,0,1,-0.102392480200663,-0.0010957171162933,0.1728395061728395,0.1728395061728395,0.2222222222222222,0.7777777777777778,-1.7777777777777777,-1.5308641975308643,0.4691358024691356,0.4691358024691356,0.0,2.0,-1.0,2.0,0,0,0,0.5168576005668521,0.24971582130312847,-0.25950068436405616,0.49308266854190647,0.24995215052549888,-0.27398126233415226,0.5544151674317433,0.24703898955337536,-0.29611636332496616,0.3791622387500711,0.23539823545610516,-0.23869701815010858,0.38925403013020243,0.23773533015759793,-0.2989396935326496,0.39062408980828767,0.23803691026973448,-0.2098138707612449,0.336279399336822,0.22319556491848822,-0.31638473104342935,0.4361379565624501,0.24592163940798054,-0.23618217318265106,0.22504153382053832,0.17439784187623783,-0.24741269089525375,0.4041288273412127,0.24080871825302905,-0.1991327728393308
3.0,0.0,3.0,0.0,3.0,0.0,3.0,0.0,,,,left,1.3276743999740577,152.28984830001718,kp4,152.28984830001718,None,146.88676439999836,148.90093400000478,True,4.0,['r'],True,0.2,0.2,0.0,0.0,2.0,0.4554859150035951,0.0371940253010211,succ_gain,0.0,6.0,148.90093400000478,None,kp4,1,2023-03-24_11h15.46.911,threat_forest,2021.2.3,60.052413743836034,True,26.0,0.2111111111111111,0.3347222222222222,-1.3654320987654325,-1.3545910493827162,1,0,1,0.2834288402501036,0.0371940253010211,0.2,0.2,0.2,1.0,-1.2000000000000002,-1.2000000000000002,2.8,2.8,1.0,2.0,1.0,4.0,0,0,1,0.48108154703492606,0.2496420921374082,-0.2888745291291599,0.5341821925327016,0.2488315777136573,-0.2745976456928973,0.24999480995257076,0.1874974049493488,-0.18815918544778024,0.3675819022371135,0.23246544738485864,-0.22357596571968685,0.4695128665992899,0.24907053469700727,-0.24149063080086153,0.6198815111564002,0.23562842328285796,-0.34706810830160073,0.36067252256836546,0.23058785403253737,-0.29318497685068146,0.4361379565624501,0.24592163940798054,-0.23618217318265106,0.26627080991134117,0.19537066570049957,-0.21445510494391884,0.60781850575167,0.2383751698174771,-0.2014779781694521
3.0,0.0,3.0,0.0,4.0,0.0,4.0,0.0,,,,left,0.6942115999991074,159.2532936000207,kp4,153.64702940001737,155.66138140001567,159.2532936000207,None,False,6.0,['r'],False,0.1728395061728395,0.2222222222222222,0.2222222222222222,2.0,2.0,0.8571721972794328,-0.1516946942369896,wait_cost,1.0,5.0,155.66138140001567,None,kp4,1,2023-03-24_11h15.46.911,threat_forest,2021.2.3,60.052413743836034,False,26.0,0.2111111111111111,0.3347222222222222,-1.3654320987654325,-1.3545910493827162,0,0,0,-0.364978465813467,-0.1516946942369896,0.0,0.1728395061728395,0.2222222222222222,0.7777777777777778,-1.7777777777777777,-1.5308641975308643,4.469135802469136,4.469135802469136,0.0,2.0,1.0,6.0,0,0,0,0.5168576005668521,0.24971582130312847,-0.25950068436405616,0.49308266854190647,0.24995215052549888,-0.27398126233415226,0.24999480995257076,0.1874974049493488,-0.18815918544778024,0.3791622387500711,0.23539823545610516,-0.23869701815010858,0.38925403013020243,0.23773533015759793,-0.2989396935326496,0.39062408980828767,0.23803691026973448,-0.2098138707612449,0.336279399336822,0.22319556491848822,-0.31638473104342935,0.4361379565624501,0.24592163940798054,-0.23618217318265106,0.06568345004907854,0.06136913443872875,-0.4250308014346017,0.025610575699021542,0.024954674111386233,-0.4071508453189129
3.0,0.0,3.0,0.0,5.0,0.0,5.0,0.0,,,,right,0.7605026000237558,163.88020860002143,kp4,163.88020860002143,None,159.97465420002118,161.988846799999,False,5.0,['r'],True,0.2,0.2,0.0,0.0,2.0,0.4554859150035951,0.0,wait_cost,0.0,4.0,161.988846799999,None,kp4,1,2023-03-24_11h15.46.911,threat_forest,2021.2.3,60.052413743836034,False,26.0,0.2111111111111111,0.3347222222222222,-1.3654320987654325,-1.3545910493827162,1,0,0,-0.2737757484539778,0.0,0.0,0.2,0.2,1.0,-1.2000000000000002,-1.2000000000000002,3.8,3.8,1.0,2.0,-1.0,5.0,0,0,1,0.48108154703492606,0.2496420921374082,-0.2888745291291599,0.5341821925327016,0.2488315777136573,-0.2745976456928973,0.5544151674317433,0.24703898955337536,-0.29611636332496616,0.3675819022371135,0.23246544738485864,-0.22357596571968685,0.4695128665992899,0.24907053469700727,-0.24149063080086153,0.6198815111564002,0.23562842328285796,-0.34706810830160073,0.36067252256836546,0.23058785403253737,-0.29318497685068146,0.4361379565624501,0.24592163940798054,-0.23618217318265106,0.06568345004907854,0.06136913443872875,-0.4250308014346017,0.40983659533529443,0.24187056045926852,-0.19810947781654004
3.0,0.0,3.0,0.0,6.0,0.0,6.0,0.0,,,,right,0.5501906999852508,169.1016709000105,kp4,169.1016709000105,None,159.97465420002118,161.988846799999,False,4.0,['r'],True,0.2,0.2,0.0,0.0,2.0,0.4554859150035951,0.0,wait_cost,0.0,3.0,166.68440930001088,None,kp4,1,2023-03-24_11h15.46.911,threat_forest,2021.2.3,60.052413743836034,False,26.0,0.2111111111111111,0.3347222222222222,-1.3654320987654325,-1.3545910493827162,1,0,0,-0.5974903336057105,0.0,0.0,0.2,0.2,1.0,-1.2000000000000002,-1.2000000000000002,2.8,2.8,1.0,2.0,-1.0,4.0,0,0,1,0.48108154703492606,0.2496420921374082,-0.2888745291291599,0.5341821925327016,0.2488315777136573,-0.2745976456928973,0.5544151674317433,0.24703898955337536,-0.29611636332496616,0.3675819022371135,0.23246544738485864,-0.22357596571968685,0.4695128665992899,0.24907053469700727,-0.24149063080086153,0.6198815111564002,0.23562842328285796,-0.34706810830160073,0.36067252256836546,0.23058785403253737,-0.29318497685068146,0.4361379565624501,0.24592163940798054,-0.23618217318265106,0.06568345004907854,0.06136913443872875,-0.4250308014346017,0.40983659533529443,0.24187056045926852,-0.19810947781654004
3.0,0.0,3.0,0.0,7.0,0.0,7.0,0.0,,,,left,0.6015555000049062,172.9903578000085,kp4,169.6820277000079,171.69634490000317,172.9903578000085,None,False,3.0,['r'],False,0.1728395061728395,0.2222222222222222,0.2222222222222222,2.0,2.0,0.8571721972794328,-0.2222222222222222,wait_cost,1.0,2.0,171.69634490000317,None,kp4,1,2023-03-24_11h15.46.911,threat_forest,2021.2.3,60.052413743836034,False,26.0,0.2111111111111111,0.3347222222222222,-1.3654320987654325,-1.3545910493827162,0,0,0,-0.5082364784891168,-0.2222222222222222,0.0,0.1728395061728395,0.2222222222222222,0.7777777777777778,-1.7777777777777777,-1.5308641975308643,1.4691358024691357,1.4691358024691357,0.0,2.0,-1.0,3.0,0,0,0,0.5168576005668521,0.24971582130312847,-0.25950068436405616,0.49308266854190647,0.24995215052549888,-0.27398126233415226,0.5544151674317433,0.24703898955337536,-0.29611636332496616,0.3791622387500711,0.23539823545610516,-0.23869701815010858,0.38925403013020243,0.23773533015759793,-0.2989396935326496,0.39062408980828767,0.23803691026973448,-0.2098138707612449,0.336279399336822,0.22319556491848822,-0.31638473104342935,0.4361379565624501,0.24592163940798054,-0.23618217318265106,0.06568345004907854,0.06136913443872875,-0.4250308014346017,0.005702875646231196,0.005670352855594819,-0.4257351037360238
4.0,0.0,4.0,0.0,0.0,0.0,0.0,0.0,179.2394264000177,182.7378497000027,None,left,1.812359400006244,183.86420860001817,kp4,179.2394264000177,182.7378497000027,183.86420860001817,None,False,5.0,['p'],False,0.2448979591836734,0.2857142857142857,0.1428571428571428,1.0,1.0,0.8400769154957735,-0.0059145108757046,wait_cost,1.0,4.0,,,kp4,1,2023-03-24_11h15.46.911,threat_forest,2021.2.3,60.052413743836034,False,69.0,0.3928571428571428,0.3019841269841269,-1.2665816326530612,-1.3160068657092467,0,0,0,0.5946295323274496,-0.0059145108757046,0.2448979591836734,0.2448979591836734,0.2857142857142857,0.8571428571428572,-1.5714285714285712,-1.4081632653061225,3.591836734693877,3.591836734693877,0.0,1.0,-1.0,5.0,0,0,0,0.5168576005668521,0.24971582130312847,-0.25950068436405616,0.507779230636853,0.24993948357069862,-0.27398822993149385,0.5544151674317433,0.24703898955337536,-0.29611636332496616,0.412975079534713,0.24242666321801049,-0.27493462622454057,0.417466725334615,0.24318825857300808,-0.27130317179899155,0.39062408980828767,0.23803691026973448,-0.2098138707612449,0.4025652811705453,0.2405064755666251,-0.2620566513791568,0.4361379565624501,0.24592163940798054,-0.23618217318265106,0.3440806938531921,0.225689169970698,-0.16681131988312714,0.37935208509738777,0.23544408062965202,-0.2043026624395185
4.0,0.0,4.0,0.0,1.0,0.0,1.0,0.0,,,,left,0.5753451000200585,189.6747579000076,kp4,189.6747579000076,None,185.7005498000072,187.71497250001994,True,4.0,['p'],True,0.375,0.5,0.25,1.0,1.0,0.9850568223215076,0.0514035096049941,succ_gain,0.0,5.0,187.71497250002,None,kp4,1,2023-03-24_11h15.46.911,threat_forest,2021.2.3,60.052413743836034,True,69.0,0.3928571428571428,0.3019841269841269,-1.2665816326530612,-1.3160068657092467,1,1,1,-0.5527852442692125,0.0514035096049941,0.375,0.375,0.5,0.75,-1.25,-1.125,2.875,2.875,1.0,1.0,-1.0,4.0,0,1,1,0.48108154703492606,0.2496420921374082,-0.2888745291291599,0.48794039555141094,0.2498545659405435,-0.2740349398048181,0.5544151674317433,0.24703898955337536,-0.29611636332496616,0.5313665896356238,0.24901613705463038,-0.30890904815748,0.46244217499217144,0.24858940978068136,-0.24392906721404972,0.6198815111564002,0.23562842328285796,-0.34706810830160073,0.5299686789631176,0.24910187828120559,-0.2350810789834612,0.4361379565624501,0.24592163940798054,-0.23618217318265106,0.6040928657815094,0.23916467529339266,-0.1456353385926814,0.6780550344434852,0.2182964047093293,-0.22082784039777537
4.0,0.0,4.0,0.0,2.0,0.0,2.0,0.0,,,,left,1.141721599997254,193.4824664000189,kp4,193.4824664000189,None,185.7005498000072,187.71497250001994,True,5.0,['p'],True,0.375,0.5,0.25,1.0,1.0,0.9850568223215076,0.0667717868390274,unsucc_cost,0.0,3.0,192.29404240002623,None,kp4,1,2023-03-24_11h15.46.911,threat_forest,2021.2.3,60.052413743836034,True,69.0,0.3928571428571428,0.3019841269841269,-1.2665816326530612,-1.3160068657092467,1,1,1,0.1325372986744195,0.0667717868390274,0.375,0.375,0.5,0.75,-1.25,-1.125,3.875,3.875,1.0,1.0,1.0,5.0,0,1,1,0.48108154703492606,0.2496420921374082,-0.2888745291291599,0.48794039555141094,0.2498545659405435,-0.2740349398048181,0.24999480995257076,0.1874974049493488,-0.18815918544778024,0.5313665896356238,0.24901613705463038,-0.30890904815748,0.46244217499217144,0.24858940978068136,-0.24392906721404972,0.6198815111564002,0.23562842328285796,-0.34706810830160073,0.5299686789631176,0.24910187828120559,-0.2350810789834612,0.4361379565624501,0.24592163940798054,-0.23618217318265106,0.6040928657815094,0.23916467529339266,-0.1456353385926814,0.7458415646363902,0.1895619250971316,-0.24851919585234786
4.0,0.0,4.0,0.0,3.0,0.0,3.0,0.0,,,,left,0.7203189000138082,199.1216831000056,kp4,199.1216831000056,None,185.7005498000072,187.71497250001994,True,3.0,['p'],True,0.375,0.5,0.25,1.0,1.0,0.9850568223215076,0.0837610682139808,unsucc_cost,0.0,1.0,196.65650680000545,None,kp4,1,2023-03-24_11h15.46.911,threat_forest,2021.2.3,60.052413743836034,True,69.0,0.3928571428571428,0.3019841269841269,-1.2665816326530612,-1.3160068657092467,1,1,1,-0.3280612483448332,0.0837610682139808,0.375,0.375,0.5,0.75,-1.25,-1.125,1.875,1.875,1.0,1.0,-1.0,3.0,0,1,1,0.48108154703492606,0.2496420921374082,-0.2888745291291599,0.48794039555141094,0.2498545659405435,-0.2740349398048181,0.5544151674317433,0.24703898955337536,-0.29611636332496616,0.5313665896356238,0.24901613705463038,-0.30890904815748,0.46244217499217144,0.24858940978068136,-0.24392906721404972,0.6198815111564002,0.23562842328285796,-0.34706810830160073,0.5299686789631176,0.24910187828120559,-0.2350810789834612,0.4361379565624501,0.24592163940798054,-0.23618217318265106,0.6040928657815094,0.23916467529339266,-0.1456353385926814,0.8089575048608635,0.15454526019014947,-0.2822646796007739
4.0,0.0,4.0,0.0,4.0,0.0,4.0,0.0,,,,left,0.5193591999995988,203.95024790000755,kp4,203.95024790000755,None,185.7005498000072,187.71497250001994,True,1.0,['p'],True,0.375,0.5,0.25,1.0,1.0,0.9850568223215076,0.1284279336734693,unsucc_cost,0.0,0.0,201.8851320000249,None,kp4,1,2023-03-24_11h15.46.911,threat_forest,2021.2.3,60.052413743836034,True,69.0,0.3928571428571428,0.3019841269841269,-1.2665816326530612,-1.3160068657092467,1,1,1,-0.6551595350152324,0.1284279336734693,1.0,0.375,0.5,0.75,-1.25,-1.125,-0.125,0.0,1.0,1.0,-1.0,1.0,1,1,1,0.48108154703492606,0.2496420921374082,-0.2888745291291599,0.48794039555141094,0.2498545659405435,-0.2740349398048181,0.5544151674317433,0.24703898955337536,-0.29611636332496616,0.5313665896356238,0.24901613705463038,-0.30890904815748,0.46244217499217144,0.24858940978068136,-0.24392906721404972,0.6198815111564002,0.23562842328285796,-0.34706810830160073,0.5299686789631176,0.24910187828120559,-0.2350810789834612,0.9761904662908956,0.023242639813659337,-0.5671055265261972,0.9961343124687373,0.0038507439911734374,-0.5154176426555156,0.9173850124776324,0.07578975135904663,-0.35816119203046237
5.0,0.0,5.0,0.0,0.0,0.0,0.0,0.0,208.6098037000047,212.11520730002667,None,left,0.6750524000090081,214.0695373000053,kp4,214.0695373000053,None,208.6098037000047,212.11520730002667,True,4.0,['p'],True,0.2592592592592592,0.3333333333333333,0.2222222222222222,2.0,2.0,0.9327883776363324,0.0060894858457368,succ_gain,0.0,6.0,,,kp4,1,2023-03-24_11h15.46.911,threat_forest,2021.2.3,60.052413743836034,True,31.0,0.4166666666666666,0.4047619047619047,-0.9675925925925928,-1.117087112622827,0,0,1,-0.392964961479657,0.0060894858457368,0.2592592592592592,0.2592592592592592,0.3333333333333333,0.7777777777777778,-1.3333333333333337,-1.1851851851851856,2.8148148148148144,2.8148148148148144,1.0,2.0,-1.0,4.0,0,0,0,0.48108154703492606,0.2496420921374082,-0.2888745291291599,0.49308266854190647,0.24995215052549888,-0.27398126233415226,0.5544151674317433,0.24703898955337536,-0.29611636332496616,0.4389041163838702,0.24626729300516428,-0.29473638583573136,0.45069256698657917,0.24756877704962701,-0.24910183613838655,0.39062408980828767,0.23803691026973448,-0.2098138707612449,0.4163048822718342,0.24299512726846845,-0.2542463362165096,0.4361379565624501,0.24592163940798054,-0.23618217318265106,0.37114624947466873,0.2333967109755557,-0.15469936265363954,0.44196129723243555,0.24663150898105826,-0.19352136208947335
5.0,0.0,5.0,0.0,1.0,0.0,1.0,0.0,,,,left,0.8816824000095949,219.16385800001444,kp4,214.7806725000264,216.78760390001116,219.16385800001444,None,False,6.0,['p'],False,0.375,0.5,0.25,1.0,2.0,0.9850568223215076,-0.0708240996554554,wait_cost,1.0,5.0,216.7876039000112,None,kp4,1,2023-03-24_11h15.46.911,threat_forest,2021.2.3,60.052413743836034,False,31.0,0.4166666666666666,0.4047619047619047,-0.9675925925925928,-1.117087112622827,1,0,0,-0.1259233785156363,-0.0708240996554554,0.375,0.375,0.5,0.75,-0.75,-0.75,5.25,5.25,0.0,2.0,1.0,6.0,0,0,1,0.5168576005668521,0.24971582130312847,-0.25950068436405616,0.48794039555141094,0.2498545659405435,-0.2740349398048181,0.24999480995257076,0.1874974049493488,-0.18815918544778024,0.5313665896356238,0.24901613705463038,-0.30890904815748,0.5333587001253216,0.2488871971259489,-0.24241982194021916,0.6198815111564002,0.23562842328285796,-0.34706810830160073,0.5299686789631176,0.24910187828120559,-0.2350810789834612,0.4361379565624501,0.24592163940798054,-0.23618217318265106,0.6040928657815094,0.23916467529339266,-0.1456353385926814,0.13086843928362668,0.11374189088309442,-0.32158679778335675
5.0,0.0,5.0,0.0,2.0,0.0,2.0,0.0,,,,right,0.517598199978238,225.14886070002103,kp4,214.7806725000264,216.78760390001116,225.14886070002103,None,True,5.0,['p'],False,0.375,0.5,0.25,1.0,2.0,0.9850568223215076,0.0581486540615872,succ_gain,1.0,6.0,222.0827210000134,None,kp4,1,2023-03-24_11h15.46.911,threat_forest,2021.2.3,60.052413743836034,True,31.0,0.4166666666666666,0.4047619047619047,-0.9675925925925928,-1.117087112622827,1,0,1,-0.658556013432409,0.0581486540615872,0.375,0.375,0.5,0.75,-0.75,-0.75,4.25,4.25,0.0,2.0,-1.0,5.0,0,0,1,0.5168576005668521,0.24971582130312847,-0.25950068436405616,0.48794039555141094,0.2498545659405435,-0.2740349398048181,0.5544151674317433,0.24703898955337536,-0.29611636332496616,0.5313665896356238,0.24901613705463038,-0.30890904815748,0.5333587001253216,0.2488871971259489,-0.24241982194021916,0.6198815111564002,0.23562842328285796,-0.34706810830160073,0.5299686789631176,0.24910187828120559,-0.2350810789834612,0.4361379565624501,0.24592163940798054,-0.23618217318265106,0.6040928657815094,0.23916467529339266,-0.1456353385926814,0.7089798167231577,0.2063274362023554,-0.23236230929452556
5.0,0.0,5.0,0.0,3.0,0.0,3.0,0.0,,,,right,0.6571174999990035,229.2735969000205,kp4,229.2735969000205,None,225.69648540002527,227.71076290000929,False,6.0,['p'],True,0.2592592592592592,0.3333333333333333,0.2222222222222222,2.0,2.0,0.9327883776363324,-0.3553528504928111,wait_cost,0.0,5.0,227.71076290000929,None,kp4,1,2023-03-24_11h15.46.911,threat_forest,2021.2.3,60.052413743836034,False,31.0,0.4166666666666666,0.4047619047619047,-0.9675925925925928,-1.117087112622827,0,0,0,-0.4198924332627979,-0.3553528504928111,0.0,0.2592592592592592,0.3333333333333333,0.7777777777777778,-1.3333333333333337,-1.1851851851851856,4.814814814814815,4.814814814814815,1.0,2.0,1.0,6.0,0,0,0,0.48108154703492606,0.2496420921374082,-0.2888745291291599,0.49308266854190647,0.24995215052549888,-0.27398126233415226,0.24999480995257076,0.1874974049493488,-0.18815918544778024,0.4389041163838702,0.24626729300516428,-0.29473638583573136,0.45069256698657917,0.24756877704962701,-0.24910183613838655,0.39062408980828767,0.23803691026973448,-0.2098138707612449,0.4163048822718342,0.24299512726846845,-0.2542463362165096,0.4361379565624501,0.24592163940798054,-0.23618217318265106,0.06568345004907854,0.06136913443872875,-0.4250308014346017,0.00032396691873461515,0.0003238619641701809,-0.4308875053701298
5.0,0.0,5.0,0.0,4.0,0.0,4.0,0.0,,,,right,0.519092600006843,235.4760615999985,kp4,235.4760615999985,None,225.69648540002527,227.71076290000929,False,5.0,['p'],True,0.2592592592592592,0.3333333333333333,0.2222222222222222,2.0,2.0,0.9327883776363324,-0.4259358488289387,wait_cost,0.0,4.0,231.95677110002725,None,kp4,1,2023-03-24_11h15.46.911,threat_forest,2021.2.3,60.052413743836034,False,31.0,0.4166666666666666,0.4047619047619047,-0.9675925925925928,-1.117087112622827,0,0,0,-0.6556729916794922,-0.4259358488289387,0.0,0.2592592592592592,0.3333333333333333,0.7777777777777778,-1.3333333333333337,-1.1851851851851856,3.8148148148148144,3.8148148148148144,1.0,2.0,-1.0,5.0,0,0,0,0.48108154703492606,0.2496420921374082,-0.2888745291291599,0.49308266854190647,0.24995215052549888,-0.27398126233415226,0.5544151674317433,0.24703898955337536,-0.29611636332496616,0.4389041163838702,0.24626729300516428,-0.29473638583573136,0.45069256698657917,0.24756877704962701,-0.24910183613838655,0.39062408980828767,0.23803691026973448,-0.2098138707612449,0.4163048822718342,0.24299512726846845,-0.2542463362165096,0.4361379565624501,0.24592163940798054,-0.23618217318265106,0.06568345004907854,0.06136913443872875,-0.4250308014346017,7.062877645600237e-05,7.062378803193873e-05,-0.43113155044923873
5.0,0.0,5.0,0.0,5.0,0.0,5.0,0.0,,,,left,0.5674232000019401,239.12436590000289,kp4,236.0203245000157,238.03445730000385,239.12436590000289,None,False,4.0,['p'],False,0.375,0.5,0.25,1.0,2.0,0.9850568223215076,-0.4159432870370371,wait_cost,1.0,3.0,238.03445730000385,None,kp4,1,2023-03-24_11h15.46.911,threat_forest,2021.2.3,60.052413743836034,False,31.0,0.4166666666666666,0.4047619047619047,-0.9675925925925928,-1.117087112622827,1,0,0,-0.5666498691776203,-0.4159432870370371,0.0,0.375,0.5,0.75,-0.75,-0.75,3.25,3.25,0.0,2.0,-1.0,4.0,0,0,1,0.5168576005668521,0.24971582130312847,-0.25950068436405616,0.48794039555141094,0.2498545659405435,-0.2740349398048181,0.5544151674317433,0.24703898955337536,-0.29611636332496616,0.5313665896356238,0.24901613705463038,-0.30890904815748,0.5333587001253216,0.2488871971259489,-0.24241982194021916,0.6198815111564002,0.23562842328285796,-0.34706810830160073,0.5299686789631176,0.24910187828120559,-0.2350810789834612,0.4361379565624501,0.24592163940798054,-0.23618217318265106,0.06568345004907854,0.06136913443872875,-0.4250308014346017,8.762788080571933e-05,8.762020216022486e-05,-0.4311151710419402
5.0,0.0,5.0,0.0,6.0,0.0,6.0,0.0,,,,left,0.5108410000102594,242.716204700002,kp4,236.0203245000157,238.03445730000385,242.716204700002,None,False,3.0,['p'],False,0.375,0.5,0.25,1.0,2.0,0.9850568223215076,-0.5060763888888888,wait_cost,1.0,2.0,241.73104850001985,None,kp4,1,2023-03-24_11h15.46.911,threat_forest,2021.2.3,60.052413743836034,False,31.0,0.4166666666666666,0.4047619047619047,-0.9675925925925928,-1.117087112622827,1,0,0,-0.6716968917758113,-0.5060763888888888,0.0,0.375,0.5,0.75,-0.75,-0.75,2.25,2.25,0.0,2.0,-1.0,3.0,0,0,1,0.5168576005668521,0.24971582130312847,-0.25950068436405616,0.48794039555141094,0.2498545659405435,-0.2740349398048181,0.5544151674317433,0.24703898955337536,-0.29611636332496616,0.5313665896356238,0.24901613705463038,-0.30890904815748,0.5333587001253216,0.2488871971259489,-0.24241982194021916,0.6198815111564002,0.23562842328285796,-0.34706810830160073,0.5299686789631176,0.24910187828120559,-0.2350810789834612,0.4361379565624501,0.24592163940798054,-0.23618217318265106,0.06568345004907854,0.06136913443872875,-0.4250308014346017,1.2525286266665366e-05,1.252512938386931e-05,-0.4311875400001118
5.0,0.0,5.0,0.0,7.0,0.0,7.0,0.0,,,,right,0.6870126000139862,248.0810934000183,kp4,248.0810934000183,None,243.2466165000224,245.26109980000183,False,2.0,['p'],True,0.2592592592592592,0.3333333333333333,0.2222222222222222,2.0,2.0,0.9327883776363324,-0.7407407407407408,wait_cost,0.0,1.0,245.26109980000183,None,kp4,1,2023-03-24_11h15.46.911,threat_forest,2021.2.3,60.052413743836034,False,31.0,0.4166666666666666,0.4047619047619047,-0.9675925925925928,-1.117087112622827,0,0,0,-0.3754026462962629,-0.7407407407407408,0.0,0.2592592592592592,0.3333333333333333,0.7777777777777778,-1.3333333333333337,-1.1851851851851856,0.8148148148148144,0.8148148148148144,1.0,2.0,-1.0,2.0,0,0,0,0.48108154703492606,0.2496420921374082,-0.2888745291291599,0.49308266854190647,0.24995215052549888,-0.27398126233415226,0.5544151674317433,0.24703898955337536,-0.29611636332496616,0.4389041163838702,0.24626729300516428,-0.29473638583573136,0.45069256698657917,0.24756877704962701,-0.24910183613838655,0.39062408980828767,0.23803691026973448,-0.2098138707612449,0.4163048822718342,0.24299512726846845,-0.2542463362165096,0.4361379565624501,0.24592163940798054,-0.23618217318265106,0.06568345004907854,0.06136913443872875,-0.4250308014346017,7.908654843837518e-08,7.90865421836931e-08,-0.4311995342245064
6.0,0.0,6.0,0.0,0.0,0.0,0.0,0.0,252.2951723000151,255.79769220002345,None,right,0.6442816999915522,256.7970827000099,kp4,252.2951723000151,255.79769220002345,256.7970827000099,None,True,4.0,['p'],False,0.24,0.4,0.4,2.0,2.0,0.9801625908629508,0.0188358143999999,unsucc_cost,1.0,2.0,,,kp4,1,2023-03-24_11h15.46.911,threat_forest,2021.2.3,60.052413743836034,True,65.0,0.3,0.3583333333333333,-1.5000000000000002,-1.2337962962962965,0,0,1,-0.4396192261719182,0.0188358143999999,0.24,0.24,0.4,0.6,-1.6,-1.4400000000000002,2.56,2.56,0.0,2.0,-1.0,4.0,0,0,0,0.5168576005668521,0.24971582130312847,-0.25950068436405616,0.4602436359692529,0.2484194315190547,-0.27482435122513815,0.5544151674317433,0.24703898955337536,-0.29611636332496616,0.47574057221913546,0.24941148016374506,-0.3109473829214332,0.413523439885988,0.24252180455084763,-0.2746808928444153,0.39062408980828767,0.23803691026973448,-0.2098138707612449,0.39791296959406486,0.23957823822289773,-0.26496980559630945,0.4361379565624501,0.24592163940798054,-0.23618217318265106,0.33506656992067224,0.22279696364226753,-0.17135625572281,0.5104758700789274,0.24989025614608937,-0.19038091454000214
6.0,0.0,6.0,0.0,1.0,0.0,1.0,0.0,,,,right,1.709051100013312,262.1761308000132,kp4,262.1761308000132,None,257.4669451000227,259.48135970000294,False,2.0,['p'],True,0.16,0.2,0.2,2.0,2.0,0.8198746470064713,-0.00563328,wait_cost,0.0,1.0,259.48135970000294,None,kp4,1,2023-03-24_11h15.46.911,threat_forest,2021.2.3,60.052413743836034,False,65.0,0.3,0.3583333333333333,-1.5000000000000002,-1.2337962962962965,0,0,0,0.5359383042208549,-0.00563328,0.16,0.16,0.2,0.8,-1.8000000000000005,-1.5600000000000005,0.4399999999999997,0.4399999999999997,1.0,2.0,-1.0,2.0,0,0,0,0.48108154703492606,0.2496420921374082,-0.2888745291291599,0.4971975932665097,0.24999214651650015,-0.2739592621008705,0.5544151674317433,0.24703898955337536,-0.29611636332496616,0.3675819022371135,0.23246544738485864,-0.22357596571968685,0.3862559497837565,0.23706229104040472,-0.3023507891445685,0.39062408980828767,0.23803691026973448,-0.2098138707612449,0.32503584675646574,0.21938754507977307,-0.32833571440680975,0.4361379565624501,0.24592163940798054,-0.23618217318265106,0.20719866975686166,0.16426738100784868,-0.26333212728561417,0.38078228829655447,0.23578713721619413,-0.2039720595538154
6.0,0.0,6.0,0.0,2.0,0.0,2.0,0.0,,,,right,0.5731191999802832,269.6960841000255,kp4,263.9110365000088,265.92540570002166,269.6960841000255,None,True,1.0,['p'],False,0.24,0.4,0.4,2.0,2.0,0.9801625908629508,0.0577919999999999,succ_gain,1.0,3.0,265.92540570002166,None,kp4,1,2023-03-24_11h15.46.911,threat_forest,2021.2.3,60.052413743836034,True,65.0,0.3,0.3583333333333333,-1.5000000000000002,-1.2337962962962965,0,0,1,-0.5566615560133971,0.0577919999999999,1.0,0.24,0.4,0.6,-1.6,-1.4400000000000002,-0.4400000000000001,0.0,0.0,2.0,-1.0,1.0,1,0,0,0.5168576005668521,0.24971582130312847,-0.25950068436405616,0.4602436359692529,0.2484194315190547,-0.27482435122513815,0.5544151674317433,0.24703898955337536,-0.29611636332496616,0.47574057221913546,0.24941148016374506,-0.3109473829214332,0.413523439885988,0.24252180455084763,-0.2746808928444153,0.39062408980828767,0.23803691026973448,-0.2098138707612449,0.39791296959406486,0.23957823822289773,-0.26496980559630945,0.9761904662908956,0.023242639813659337,-0.5671055265261972,0.9961343124687373,0.0038507439911734374,-0.5154176426555156,0.7073889589040818,0.20698981972468108,-0.2317239717359019
6.0,0.0,6.0,0.0,3.0,0.0,3.0,0.0,,,,right,1.0595906000235118,274.39653320002253,kp4,274.39653320002253,None,270.2882532000076,272.3027294000203,False,3.0,['p'],True,0.16,0.2,0.2,2.0,2.0,0.8198746470064713,-0.0216000000000001,wait_cost,0.0,2.0,272.3027294000203,None,kp4,1,2023-03-24_11h15.46.911,threat_forest,2021.2.3,60.052413743836034,False,65.0,0.3,0.3583333333333333,-1.5000000000000002,-1.2337962962962965,0,0,0,0.0578826071264389,-0.0216000000000001,0.16,0.16,0.2,0.8,-1.8000000000000005,-1.5600000000000005,1.4399999999999995,1.4399999999999995,1.0,2.0,1.0,3.0,0,0,0,0.48108154703492606,0.2496420921374082,-0.2888745291291599,0.4971975932665097,0.24999214651650015,-0.2739592621008705,0.24999480995257076,0.1874974049493488,-0.18815918544778024,0.3675819022371135,0.23246544738485864,-0.22357596571968685,0.3862559497837565,0.23706229104040472,-0.3023507891445685,0.39062408980828767,0.23803691026973448,-0.2098138707612449,0.32503584675646574,0.21938754507977307,-0.32833571440680975,0.4361379565624501,0.24592163940798054,-0.23618217318265106,0.20719866975686166,0.16426738100784868,-0.26333212728561417,0.3034646544558833,0.21137385795185465,-0.22749908363931834
6.0,0.0,6.0,0.0,4.0,0.0,4.0,0.0,,,,right,1.2067310999846086,279.53599260002375,kp4,279.53599260002375,None,270.2882532000076,272.3027294000203,False,2.0,['p'],True,0.16,0.2,0.2,2.0,2.0,0.8198746470064713,-0.04,wait_cost,0.0,1.0,277.49786230002064,None,kp4,1,2023-03-24_11h15.46.911,threat_forest,2021.2.3,60.052413743836034,False,65.0,0.3,0.3583333333333333,-1.5000000000000002,-1.2337962962962965,0,0,0,0.1879151335212593,-0.04,0.16,0.16,0.2,0.8,-1.8000000000000005,-1.5600000000000005,0.4399999999999997,0.4399999999999997,1.0,2.0,-1.0,2.0,0,0,0,0.48108154703492606,0.2496420921374082,-0.2888745291291599,0.4971975932665097,0.24999214651650015,-0.2739592621008705,0.5544151674317433,0.24703898955337536,-0.29611636332496616,0.3675819022371135,0.23246544738485864,-0.22357596571968685,0.3862559497837565,0.23706229104040472,-0.3023507891445685,0.39062408980828767,0.23803691026973448,-0.2098138707612449,0.32503584675646574,0.21938754507977307,-0.32833571440680975,0.4361379565624501,0.24592163940798054,-0.23618217318265106,0.20719866975686166,0.16426738100784868,-0.26333212728561417,0.22653212798156097,0.17521532297370662,-0.26234498508976434
6.0,0.0,6.0,0.0,5.0,0.0,5.0,0.0,,,,left,0.746120299998438,283.6373281000124,kp4,283.6373281000124,None,270.2882532000076,272.3027294000203,True,1.0,['p'],True,0.16,0.2,0.2,2.0,2.0,0.8198746470064713,0.1599999999999999,unsucc_cost,0.0,0.0,282.77629890001845,None,kp4,1,2023-03-24_11h15.46.911,threat_forest,2021.2.3,60.052413743836034,True,65.0,0.3,0.3583333333333333,-1.5000000000000002,-1.2337962962962965,0,0,1,-0.2928684317278552,0.1599999999999999,1.0,0.16,0.2,0.8,-1.8000000000000005,-1.5600000000000005,-0.5600000000000003,0.0,1.0,2.0,-1.0,1.0,1,0,0,0.48108154703492606,0.2496420921374082,-0.2888745291291599,0.4971975932665097,0.24999214651650015,-0.2739592621008705,0.5544151674317433,0.24703898955337536,-0.29611636332496616,0.3675819022371135,0.23246544738485864,-0.22357596571968685,0.3862559497837565,0.23706229104040472,-0.3023507891445685,0.39062408980828767,0.23803691026973448,-0.2098138707612449,0.32503584675646574,0.21938754507977307,-0.32833571440680975,0.9761904662908956,0.023242639813659337,-0.5671055265261972,0.9961343124687373,0.0038507439911734374,-0.5154176426555156,0.9564277510495492,0.04167370807185065,-0.3910387486843262
7.0,0.0,7.0,0.0,0.0,0.0,0.0,0.0,289.5036937000113,293.0076722000085,None,right,1.0414773000229616,293.7804391000245,kp4,293.7804391000245,None,289.5036937000113,293.0076722000085,False,5.0,['p'],True,0.16,0.2,0.2,2.0,2.0,0.8198746470064713,-0.013191945967,wait_cost,0.0,4.0,,,kp4,1,2023-03-24_11h15.46.911,threat_forest,2021.2.3,60.052413743836034,False,8.0,0.35,0.325,-1.5300000000000002,-1.515,0,0,0,0.0406401860161337,-0.013191945967,0.16,0.16,0.2,0.8,-1.8000000000000005,-1.5600000000000005,3.4399999999999995,3.4399999999999995,1.0,2.0,-1.0,5.0,0,0,0,0.48108154703492606,0.2496420921374082,-0.2888745291291599,0.4971975932665097,0.24999214651650015,-0.2739592621008705,0.5544151674317433,0.24703898955337536,-0.29611636332496616,0.3675819022371135,0.23246544738485864,-0.22357596571968685,0.3862559497837565,0.23706229104040472,-0.3023507891445685,0.39062408980828767,0.23803691026973448,-0.2098138707612449,0.32503584675646574,0.21938754507977307,-0.32833571440680975,0.4361379565624501,0.24592163940798054,-0.23618217318265106,0.20719866975686166,0.16426738100784868,-0.26333212728561417,0.3431304593710801,0.22539194722287167,-0.21398988152267795
7.0,0.0,7.0,0.0,1.0,0.0,1.0,0.0,,,,right,0.6330422000028193,297.57073000000673,kp4,294.849391100026,296.8631886000221,297.57073000000673,None,True,4.0,['p'],False,0.25,0.5,0.5,1.0,2.0,0.9463946303571862,0.039918694078125,succ_gain,1.0,6.0,296.8631886000221,None,kp4,1,2023-03-24_11h15.46.911,threat_forest,2021.2.3,60.052413743836034,True,8.0,0.35,0.325,-1.5300000000000002,-1.515,1,0,1,-0.4572181923889641,0.039918694078125,0.25,0.25,0.5,0.5,-1.5,-1.5,2.5,2.5,0.0,2.0,-1.0,4.0,0,0,1,0.5168576005668521,0.24971582130312847,-0.25950068436405616,0.44190409811230136,0.24662486618385496,-0.27581147155958563,0.5544151674317433,0.24703898955337536,-0.29611636332496616,0.5313665896356238,0.24901613705463038,-0.30890904815748,0.4273701856151406,0.24472491006242086,-0.2635151175556605,0.6198815111564002,0.23562842328285796,-0.34706810830160073,0.4074301463730912,0.24143082219949272,-0.25915570766056395,0.4361379565624501,0.24592163940798054,-0.23618217318265106,0.3535912191341746,0.22856446888538268,-0.16229295307136393,0.6217447970791261,0.2351782043841624,-0.20455888679855144
7.0,0.0,7.0,0.0,2.0,0.0,2.0,0.0,,,,right,0.5216103999991901,303.85581820001244,kp4,303.85581820001244,None,298.2288171000255,300.2434480000229,False,6.0,['p'],True,0.16,0.2,0.2,2.0,2.0,0.8198746470064713,0.0024176801249999,wait_cost,0.0,5.0,300.2434480000229,None,kp4,1,2023-03-24_11h15.46.911,threat_forest,2021.2.3,60.052413743836034,False,8.0,0.35,0.325,-1.5300000000000002,-1.515,0,0,0,-0.650834329919712,0.0024176801249999,0.16,0.16,0.2,0.8,-1.8000000000000005,-1.5600000000000005,4.44,4.44,1.0,2.0,1.0,6.0,0,0,0,0.48108154703492606,0.2496420921374082,-0.2888745291291599,0.4971975932665097,0.24999214651650015,-0.2739592621008705,0.24999480995257076,0.1874974049493488,-0.18815918544778024,0.3675819022371135,0.23246544738485864,-0.22357596571968685,0.3862559497837565,0.23706229104040472,-0.3023507891445685,0.39062408980828767,0.23803691026973448,-0.2098138707612449,0.32503584675646574,0.21938754507977307,-0.32833571440680975,0.4361379565624501,0.24592163940798054,-0.23618217318265106,0.20719866975686166,0.16426738100784868,-0.26333212728561417,0.4225148993788455,0.24399605918172956,-0.19606113932437805
7.0,0.0,7.0,0.0,3.0,0.0,3.0,0.0,,,,right,0.3966284999914933,309.74125469999854,kp4,304.40101070000674,306.4043758000189,309.74125469999854,None,True,5.0,['p'],False,0.25,0.5,0.5,1.0,2.0,0.9463946303571862,0.05981875,figh_cost,1.0,2.0,306.4043758000189,None,kp4,1,2023-03-24_11h15.46.911,threat_forest,2021.2.3,60.052413743836034,True,8.0,0.35,0.325,-1.5300000000000002,-1.515,1,0,1,-0.9247552046828098,0.05981875,0.25,0.25,0.5,0.5,-1.5,-1.5,3.5,3.5,0.0,2.0,-1.0,5.0,0,0,1,0.5168576005668521,0.24971582130312847,-0.25950068436405616,0.44190409811230136,0.24662486618385496,-0.27581147155958563,0.5544151674317433,0.24703898955337536,-0.29611636332496616,0.5313665896356238,0.24901613705463038,-0.30890904815748,0.4273701856151406,0.24472491006242086,-0.2635151175556605,0.6198815111564002,0.23562842328285796,-0.34706810830160073,0.4074301463730912,0.24143082219949272,-0.25915570766056395,0.4361379565624501,0.24592163940798054,-0.23618217318265106,0.3535912191341746,0.22856446888538268,-0.16229295307136393,0.7163609411634454,0.20318794313886812,-0.23538783192592505
7.0,0.0,7.0,0.0,4.0,0.0,4.0,0.0,,,,right,0.3836901000177022,315.72890510002617,kp4,304.40101070000674,306.4043758000189,315.72890510002617,None,True,2.0,['p'],False,0.25,0.5,0.5,1.0,2.0,0.9463946303571862,0.045,succ_gain,1.0,4.0,312.18207960002474,None,kp4,1,2023-03-24_11h15.46.911,threat_forest,2021.2.3,60.052413743836034,True,8.0,0.35,0.325,-1.5300000000000002,-1.515,1,0,1,-0.9579200834233051,0.045,0.25,0.25,0.5,0.5,-1.5,-1.5,0.5,0.5,0.0,2.0,-1.0,2.0,0,0,1,0.5168576005668521,0.24971582130312847,-0.25950068436405616,0.44190409811230136,0.24662486618385496,-0.27581147155958563,0.5544151674317433,0.24703898955337536,-0.29611636332496616,0.5313665896356238,0.24901613705463038,-0.30890904815748,0.4273701856151406,0.24472491006242086,-0.2635151175556605,0.6198815111564002,0.23562842328285796,-0.34706810830160073,0.4074301463730912,0.24143082219949272,-0.25915570766056395,0.4361379565624501,0.24592163940798054,-0.23618217318265106,0.3535912191341746,0.22856446888538268,-0.16229295307136393,0.6471728322230099,0.2283401574554578,-0.21114869773904352
7.0,0.0,7.0,0.0,5.0,0.0,5.0,0.0,,,,left,0.6941211000084877,320.4106869000243,kp4,304.40101070000674,306.4043758000189,320.4106869000243,None,False,4.0,['p'],False,0.25,0.5,0.5,1.0,2.0,0.9463946303571862,-0.590625,wait_cost,1.0,3.0,318.15973050001776,None,kp4,1,2023-03-24_11h15.46.911,threat_forest,2021.2.3,60.052413743836034,False,8.0,0.35,0.325,-1.5300000000000002,-1.515,1,0,0,-0.365108838008471,-0.590625,0.0,0.25,0.5,0.5,-1.5,-1.5,2.5,2.5,0.0,2.0,1.0,4.0,0,0,1,0.5168576005668521,0.24971582130312847,-0.25950068436405616,0.44190409811230136,0.24662486618385496,-0.27581147155958563,0.24999480995257076,0.1874974049493488,-0.18815918544778024,0.5313665896356238,0.24901613705463038,-0.30890904815748,0.4273701856151406,0.24472491006242086,-0.2635151175556605,0.6198815111564002,0.23562842328285796,-0.34706810830160073,0.4074301463730912,0.24143082219949272,-0.25915570766056395,0.4361379565624501,0.24592163940798054,-0.23618217318265106,0.06568345004907854,0.06136913443872875,-0.4250308014346017,2.019541150679828e-06,2.0195370721333705e-06,-0.4311976642165546
7.0,0.0,7.0,0.0,6.0,0.0,6.0,0.0,,,,right,0.426200499990955,323.8355885000201,kp4,323.8355885000201,None,321.1239201000135,323.1384155000269,False,3.0,['p'],True,0.16,0.2,0.2,2.0,2.0,0.8198746470064713,-0.7088000000000001,wait_cost,0.0,2.0,323.1384155000269,None,kp4,1,2023-03-24_11h15.46.911,threat_forest,2021.2.3,60.052413743836034,False,8.0,0.35,0.325,-1.5300000000000002,-1.515,0,0,0,-0.8528453861813892,-0.7088000000000001,0.0,0.16,0.2,0.8,-1.8000000000000005,-1.5600000000000005,1.4399999999999995,1.4399999999999995,1.0,2.0,-1.0,3.0,0,0,0,0.48108154703492606,0.2496420921374082,-0.2888745291291599,0.4971975932665097,0.24999214651650015,-0.2739592621008705,0.5544151674317433,0.24703898955337536,-0.29611636332496616,0.3675819022371135,0.23246544738485864,-0.22357596571968685,0.3862559497837565,0.23706229104040472,-0.3023507891445685,0.39062408980828767,0.23803691026973448,-0.2098138707612449,0.32503584675646574,0.21938754507977307,-0.32833571440680975,0.4361379565624501,0.24592163940798054,-0.23618217318265106,0.06568345004907854,0.06136913443872875,-0.4250308014346017,1.57582451261856e-07,1.5758242642962715e-07,-0.43119945857819364
7.0,0.0,7.0,0.0,7.0,0.0,7.0,0.0,,,,left,1.178486899996642,328.65439820001484,kp4,324.2899217000231,326.30211540000164,328.65439820001484,None,False,2.0,['p'],False,0.25,0.5,0.5,1.0,2.0,0.9463946303571862,-0.75,wait_cost,1.0,1.0,326.30211540000164,None,kp4,1,2023-03-24_11h15.46.911,threat_forest,2021.2.3,60.052413743836034,False,8.0,0.35,0.325,-1.5300000000000002,-1.515,1,0,0,0.1642313275042166,-0.75,0.0,0.25,0.5,0.5,-1.5,-1.5,0.5,0.5,0.0,2.0,-1.0,2.0,0,0,1,0.5168576005668521,0.24971582130312847,-0.25950068436405616,0.44190409811230136,0.24662486618385496,-0.27581147155958563,0.5544151674317433,0.24703898955337536,-0.29611636332496616,0.5313665896356238,0.24901613705463038,-0.30890904815748,0.4273701856151406,0.24472491006242086,-0.2635151175556605,0.6198815111564002,0.23562842328285796,-0.34706810830160073,0.4074301463730912,0.24143082219949272,-0.25915570766056395,0.4361379565624501,0.24592163940798054,-0.23618217318265106,0.06568345004907854,0.06136913443872875,-0.4250308014346017,6.476023720085153e-08,6.476023300696326e-08,-0.4311995480307394
8.0,0.0,8.0,0.0,0.0,0.0,0.0,0.0,335.5784502000024,339.0798771000118,None,right,0.7799960999982432,341.48139070000616,kp4,335.5784502000024,339.0798771000118,341.48139070000616,None,True,5.0,['p'],False,0.32,0.4,0.2,1.0,1.0,0.9455672104350704,0.029786704162101,unsucc_cost,1.0,3.0,,,kp4,1,2023-03-24_11h15.46.911,threat_forest,2021.2.3,60.052413743836034,True,48.0,0.3111111111111111,0.3305555555555555,-1.3792592592592592,-1.4546296296296295,1,0,1,-0.248466359313252,0.029786704162101,0.32,0.32,0.4,0.8,-1.4,-1.24,3.76,3.76,0.0,1.0,-1.0,5.0,0,0,1,0.5168576005668521,0.24971582130312847,-0.25950068436405616,0.4971975932665097,0.24999214651650015,-0.2739592621008705,0.5544151674317433,0.24703898955337536,-0.29611636332496616,0.47574057221913546,0.24941148016374506,-0.3109473829214332,0.44133167967209147,0.24655802818990186,-0.2542245116442896,0.6198815111564002,0.23562842328285796,-0.34706810830160073,0.4756160399886055,0.24940542249416267,-0.23412844428281732,0.4361379565624501,0.24592163940798054,-0.23618217318265106,0.49279529024695484,0.24994809215737443,-0.12868981942360197,0.5691226880058335,0.24522205400284822,-0.19487965078394698
8.0,0.0,8.0,0.0,1.0,0.0,1.0,0.0,,,,right,1.01740080001764,345.114069800009,kp4,345.114069800009,None,342.2876630000246,344.30205720002414,False,3.0,['p'],True,0.1975308641975308,0.2222222222222222,0.1111111111111111,1.0,1.0,0.7461067557824965,0.0102042008928614,wait_cost,0.0,2.0,344.30205720002414,None,kp4,1,2023-03-24_11h15.46.911,threat_forest,2021.2.3,60.052413743836034,False,48.0,0.3111111111111111,0.3305555555555555,-1.3792592592592592,-1.4546296296296295,0,0,0,0.0172511397416223,0.0102042008928614,0.1975308641975308,0.1975308641975308,0.2222222222222222,0.8888888888888888,-1.6666666666666667,-1.5185185185185184,1.4814814814814816,1.4814814814814816,1.0,1.0,-1.0,3.0,0,0,0,0.48108154703492606,0.2496420921374082,-0.2888745291291599,0.5136555142230126,0.2498135269313051,-0.2740575137617146,0.5544151674317433,0.24703898955337536,-0.29611636332496616,0.3791622387500711,0.23539823545610516,-0.23869701815010858,0.4043662545728812,0.240854186735581,-0.28313271037878973,0.39062408980828767,0.23803691026973448,-0.2098138707612449,0.3584227069281551,0.22995587008644897,-0.2951683776588492,0.4361379565624501,0.24592163940798054,-0.23618217318265106,0.26233071539924,0.19351331115736295,-0.21737383074405237,0.4639639994882088,0.24870140666711416,-0.1915266061950656
8.0,0.0,8.0,0.0,2.0,0.0,2.0,0.0,,,,right,0.900250100006815,350.67244150000624,kp4,350.67244150000624,None,342.2876630000246,344.30205720002414,False,2.0,['p'],True,0.1975308641975308,0.2222222222222222,0.1111111111111111,1.0,1.0,0.7461067557824965,0.0037858795279334,wait_cost,0.0,1.0,348.16589780000504,None,kp4,1,2023-03-24_11h15.46.911,threat_forest,2021.2.3,60.052413743836034,False,48.0,0.3111111111111111,0.3305555555555555,-1.3792592592592592,-1.4546296296296295,0,0,0,-0.1050826653653329,0.0037858795279334,0.1975308641975308,0.1975308641975308,0.2222222222222222,0.8888888888888888,-1.6666666666666667,-1.5185185185185184,0.4814814814814816,0.4814814814814816,1.0,1.0,-1.0,2.0,0,0,0,0.48108154703492606,0.2496420921374082,-0.2888745291291599,0.5136555142230126,0.2498135269313051,-0.2740575137617146,0.5544151674317433,0.24703898955337536,-0.29611636332496616,0.3791622387500711,0.23539823545610516,-0.23869701815010858,0.4043662545728812,0.240854186735581,-0.28313271037878973,0.39062408980828767,0.23803691026973448,-0.2098138707612449,0.3584227069281551,0.22995587008644897,-0.2951683776588492,0.4361379565624501,0.24592163940798054,-0.23618217318265106,0.26233071539924,0.19351331115736295,-0.21737383074405237,0.42973636939383375,0.24506302221404017,-0.19503290937264928
8.0,0.0,8.0,0.0,3.0,0.0,3.0,0.0,,,,right,0.478139300015755,356.86516590000247,kp4,351.5955768999993,353.6100674000045,356.86516590000247,None,True,1.0,['p'],False,0.32,0.4,0.2,1.0,1.0,0.9455672104350704,0.0339764324116506,unsucc_cost,1.0,0.0,353.6100674000045,None,kp4,1,2023-03-24_11h15.46.911,threat_forest,2021.2.3,60.052413743836034,True,48.0,0.3111111111111111,0.3305555555555555,-1.3792592592592592,-1.4546296296296295,1,0,1,-0.7378531663189043,0.0339764324116506,1.0,0.32,0.4,0.8,-1.4,-1.24,-0.24,0.0,0.0,1.0,-1.0,1.0,1,0,1,0.5168576005668521,0.24971582130312847,-0.25950068436405616,0.4971975932665097,0.24999214651650015,-0.2739592621008705,0.5544151674317433,0.24703898955337536,-0.29611636332496616,0.47574057221913546,0.24941148016374506,-0.3109473829214332,0.44133167967209147,0.24655802818990186,-0.2542245116442896,0.6198815111564002,0.23562842328285796,-0.34706810830160073,0.4756160399886055,0.24940542249416267,-0.23412844428281732,0.9761904662908956,0.023242639813659337,-0.5671055265261972,0.9961343124687373,0.0038507439911734374,-0.5154176426555156,0.5911456276745424,0.24169247455581372,-0.19828109881405143
9.0,0.0,9.0,0.0,0.0,0.0,0.0,0.0,362.8488616000104,366.35164100001566,None,left,0.3546432000002824,367.70656750001945,kp4,367.70656750001945,None,362.8488616000104,366.35164100001566,True,5.0,['p'],True,0.4444444444444445,0.6666666666666666,0.3333333333333333,1.0,2.0,0.9656336071428248,0.0253010211857948,unsucc_cost,0.0,3.0,,,kp4,1,2023-03-24_11h15.46.911,threat_forest,2021.2.3,60.052413743836034,True,25.0,0.4444444444444444,0.3777777777777777,-0.8333333333333334,-1.1062962962962963,1,1,1,-1.0366430653504222,0.0253010211857948,0.4444444444444445,0.4444444444444445,0.6666666666666666,0.6666666666666667,-0.3333333333333335,-0.5555555555555556,4.444444444444445,4.444444444444445,1.0,2.0,-1.0,5.0,0,1,1,0.48108154703492606,0.2496420921374082,-0.2888745291291599,0.4725332223401924,0.24924557612498674,-0.2743699213285421,0.5544151674317433,0.24703898955337536,-0.29611636332496616,0.6217243125395326,0.23518319173677824,-0.23758828227292217,0.5915612873451306,0.24161653065970243,-0.2792690003091758,0.6198815111564002,0.23562842328285796,-0.34706810830160073,0.5974391722029792,0.24050560772039817,-0.26205937500357557,0.4361379565624501,0.24592163940798054,-0.23618217318265106,0.7295732957501339,0.19729610187842156,-0.2114293927718524,0.5452394550535538,0.24795339170645747,-0.19224746658441086
9.0,0.0,9.0,0.0,1.0,0.0,1.0,0.0,,,,left,0.9595749999862164,371.45160820000456,kp4,368.0801117000228,370.0946721000073,371.45160820000456,None,False,3.0,['p'],False,0.2222222222222222,0.2222222222222222,0.0,0.0,2.0,0.4821593609696809,0.0363511659807955,wait_cost,1.0,2.0,370.0946721000073,None,kp4,1,2023-03-24_11h15.46.911,threat_forest,2021.2.3,60.052413743836034,False,25.0,0.4444444444444444,0.3777777777777777,-0.8333333333333334,-1.1062962962962963,0,0,0,-0.0412648008922187,0.0363511659807955,0.2222222222222222,0.2222222222222222,0.2222222222222222,1.0,-1.1111111111111112,-1.1111111111111112,1.8888888888888888,1.8888888888888888,0.0,2.0,-1.0,3.0,0,0,0,0.5168576005668521,0.24971582130312847,-0.25950068436405616,0.5341821925327016,0.2488315777136573,-0.2745976456928973,0.5544151674317433,0.24703898955337536,-0.29611636332496616,0.3791622387500711,0.23539823545610516,-0.23869701815010858,0.48211144374024617,0.2496799995549416,-0.23840174213241627,0.39062408980828767,0.23803691026973448,-0.2098138707612449,0.3811866977244912,0.23588339920238854,-0.27656558543325815,0.4361379565624501,0.24592163940798054,-0.23618217318265106,0.30337981806373615,0.21134050405535051,-0.1893594228069212,0.6034735342695529,0.23929322770576766,-0.20059324778088658
9.0,0.0,9.0,0.0,2.0,0.0,2.0,0.0,,,,right,0.6348834999953397,376.5433194000216,kp4,368.0801117000228,370.0946721000073,376.5433194000216,None,True,2.0,['p'],False,0.2222222222222222,0.2222222222222222,0.0,0.0,2.0,0.4821593609696809,-0.0432098765432099,unsucc_cost,1.0,0.0,374.45738790000905,None,kp4,1,2023-03-24_11h15.46.911,threat_forest,2021.2.3,60.052413743836034,True,25.0,0.4444444444444444,0.3777777777777777,-0.8333333333333334,-1.1062962962962963,0,0,1,-0.4543137614953974,-0.0432098765432099,0.2222222222222222,0.2222222222222222,0.2222222222222222,1.0,-1.1111111111111112,-1.1111111111111112,0.8888888888888888,0.8888888888888888,0.0,2.0,-1.0,2.0,0,0,0,0.5168576005668521,0.24971582130312847,-0.25950068436405616,0.5341821925327016,0.2488315777136573,-0.2745976456928973,0.5544151674317433,0.24703898955337536,-0.29611636332496616,0.3791622387500711,0.23539823545610516,-0.23869701815010858,0.48211144374024617,0.2496799995549416,-0.23840174213241627,0.39062408980828767,0.23803691026973448,-0.2098138707612449,0.3811866977244912,0.23588339920238854,-0.27656558543325815,0.4361379565624501,0.24592163940798054,-0.23618217318265106,0.30337981806373615,0.21134050405535051,-0.1893594228069212,0.2146233059082866,0.16856014246928464,-0.26875856805522924
10.0,0.0,10.0,0.0,0.0,0.0,0.0,0.0,382.7103781000187,386.213084100018,None,left,0.8696314999833703,389.6699267000077,kp4,382.7103781000187,386.213084100018,389.6699267000077,None,False,5.0,['r'],False,0.2222222222222222,0.6666666666666666,0.6666666666666666,2.0,2.0,0.77250688571426,-0.023281607963558,wait_cost,1.0,4.0,,,kp4,1,2023-03-24_11h15.46.911,threat_forest,2021.2.3,60.052413743836034,False,34.0,0.4583333333333333,0.4513888888888888,-1.3888888888888888,-1.1111111111111112,0,0,0,-0.139685720299259,-0.023281607963558,0.2222222222222222,0.2222222222222222,0.6666666666666666,0.3333333333333333,-1.3333333333333337,-1.777777777777778,3.2222222222222223,3.2222222222222223,0.0,2.0,-1.0,5.0,0,0,0,0.5168576005668521,0.24971582130312847,-0.25950068436405616,0.41171067192583993,0.24220499454821331,-0.27824267040289996,0.5544151674317433,0.24703898955337536,-0.29611636332496616,0.6217243125395326,0.23518319173677824,-0.23758828227292217,0.45069256698657917,0.24756877704962701,-0.24910183613838655,0.39062408980828767,0.23803691026973448,-0.2098138707612449,0.3811866977244912,0.23588339920238854,-0.27656558543325815,0.4361379565624501,0.24592163940798054,-0.23618217318265106,0.30337981806373615,0.21134050405535051,-0.1893594228069212,0.295847866979665,0.20832190658324742,-0.23044024252991807
10.0,0.0,10.0,0.0,1.0,0.0,1.0,0.0,,,,left,0.8716886000183877,393.79239320001216,kp4,382.7103781000187,386.213084100018,393.79239320001216,None,False,4.0,['r'],False,0.2222222222222222,0.6666666666666666,0.6666666666666666,2.0,2.0,0.77250688571426,0.0213204889540228,wait_cost,1.0,3.0,392.5738283000246,None,kp4,1,2023-03-24_11h15.46.911,threat_forest,2021.2.3,60.052413743836034,False,34.0,0.4583333333333333,0.4513888888888888,-1.3888888888888888,-1.1111111111111112,0,0,0,-0.1373230289227996,0.0213204889540228,0.2222222222222222,0.2222222222222222,0.6666666666666666,0.3333333333333333,-1.3333333333333337,-1.777777777777778,2.2222222222222223,2.2222222222222223,0.0,2.0,-1.0,4.0,0,0,0,0.5168576005668521,0.24971582130312847,-0.25950068436405616,0.41171067192583993,0.24220499454821331,-0.27824267040289996,0.5544151674317433,0.24703898955337536,-0.29611636332496616,0.6217243125395326,0.23518319173677824,-0.23758828227292217,0.45069256698657917,0.24756877704962701,-0.24910183613838655,0.39062408980828767,0.23803691026973448,-0.2098138707612449,0.3811866977244912,0.23588339920238854,-0.27656558543325815,0.4361379565624501,0.24592163940798054,-0.23618217318265106,0.30337981806373615,0.21134050405535051,-0.1893594228069212,0.5238665008701172,0.2494303901362167,-0.19082408641270432
10.0,0.0,10.0,0.0,2.0,0.0,2.0,0.0,,,,left,0.6680676999967545,400.4196112000209,kp4,382.7103781000187,386.213084100018,400.4196112000209,None,False,3.0,['r'],False,0.2222222222222222,0.6666666666666666,0.6666666666666666,2.0,2.0,0.77250688571426,0.0126119601146929,wait_cost,1.0,2.0,396.7034257000196,None,kp4,1,2023-03-24_11h15.46.911,threat_forest,2021.2.3,60.052413743836034,False,34.0,0.4583333333333333,0.4513888888888888,-1.3888888888888888,-1.1111111111111112,0,0,0,-0.4033657632802513,0.0126119601146929,0.2222222222222222,0.2222222222222222,0.6666666666666666,0.3333333333333333,-1.3333333333333337,-1.777777777777778,1.222222222222222,1.222222222222222,0.0,2.0,-1.0,3.0,0,0,0,0.5168576005668521,0.24971582130312847,-0.25950068436405616,0.41171067192583993,0.24220499454821331,-0.27824267040289996,0.5544151674317433,0.24703898955337536,-0.29611636332496616,0.6217243125395326,0.23518319173677824,-0.23758828227292217,0.45069256698657917,0.24756877704962701,-0.24910183613838655,0.39062408980828767,0.23803691026973448,-0.2098138707612449,0.3811866977244912,0.23588339920238854,-0.27656558543325815,0.4361379565624501,0.24592163940798054,-0.23618217318265106,0.30337981806373615,0.21134050405535051,-0.1893594228069212,0.476910059283582,0.24946685463771232,-0.190788945651987
10.0,0.0,10.0,0.0,3.0,0.0,3.0,0.0,,,,left,0.3587861999985762,406.30004710002686,kp4,406.30004710002686,None,401.1162286000035,403.130711100006,True,2.0,['r'],True,0.25,0.25,0.0,0.0,2.0,0.5118595071429148,0.0251146690672153,succ_gain,0.0,4.0,403.130711100006,None,kp4,1,2023-03-24_11h15.46.911,threat_forest,2021.2.3,60.052413743836034,True,34.0,0.4583333333333333,0.4513888888888888,-1.3888888888888888,-1.1111111111111112,1,0,1,-1.02502861107959,0.0251146690672153,0.25,0.25,0.25,1.0,-1.0,-1.0,1.0,1.0,1.0,2.0,-1.0,2.0,0,0,1,0.48108154703492606,0.2496420921374082,-0.2888745291291599,0.5341821925327016,0.2488315777136573,-0.2745976456928973,0.5544151674317433,0.24703898955337536,-0.29611636332496616,0.3938322000375557,0.23872839825113443,-0.2558668800706373,0.4978898249764897,0.2499955471613702,-0.23680248433573903,0.6198815111564002,0.23562842328285796,-0.34706810830160073,0.4074301463730912,0.24143082219949272,-0.25915570766056395,0.4361379565624501,0.24592163940798054,-0.23618217318265106,0.3535912191341746,0.22856446888538268,-0.16229295307136393,0.5442419549004316,0.24804264942658816,-0.19216144911381242
10.0,0.0,10.0,0.0,4.0,0.0,4.0,0.0,,,,left,1.0262101000116672,411.4478076000232,kp4,406.6777093000128,408.6921472000249,411.4478076000232,None,False,4.0,['r'],False,0.2222222222222222,0.6666666666666666,0.6666666666666666,2.0,2.0,0.77250688571426,0.0688657407407408,wait_cost,1.0,3.0,408.6921472000249,None,kp4,1,2023-03-24_11h15.46.911,threat_forest,2021.2.3,60.052413743836034,False,34.0,0.4583333333333333,0.4513888888888888,-1.3888888888888888,-1.1111111111111112,0,0,0,0.0258725016246989,0.0688657407407408,0.2222222222222222,0.2222222222222222,0.6666666666666666,0.3333333333333333,-1.3333333333333337,-1.777777777777778,2.2222222222222223,2.2222222222222223,0.0,2.0,1.0,4.0,0,0,0,0.5168576005668521,0.24971582130312847,-0.25950068436405616,0.41171067192583993,0.24220499454821331,-0.27824267040289996,0.24999480995257076,0.1874974049493488,-0.18815918544778024,0.6217243125395326,0.23518319173677824,-0.23758828227292217,0.45069256698657917,0.24756877704962701,-0.24910183613838655,0.39062408980828767,0.23803691026973448,-0.2098138707612449,0.3811866977244912,0.23588339920238854,-0.27656558543325815,0.4361379565624501,0.24592163940798054,-0.23618217318265106,0.30337981806373615,0.21134050405535051,-0.1893594228069212,0.7543133789754239,0.18532470527410239,-0.25260259537244406
10.0,0.0,10.0,0.0,5.0,0.0,5.0,0.0,,,,left,0.4097071999858599,415.9095743000216,kp4,415.9095743000216,None,412.5056489000272,414.5200471999997,True,3.0,['r'],True,0.25,0.25,0.0,0.0,2.0,0.5118595071429148,0.1840277777777776,succ_gain,0.0,5.0,414.5200471999997,None,kp4,1,2023-03-24_11h15.46.911,threat_forest,2021.2.3,60.052413743836034,True,34.0,0.4583333333333333,0.4513888888888888,-1.3888888888888888,-1.1111111111111112,1,0,1,-0.8923125207837292,0.1840277777777776,0.25,0.25,0.25,1.0,-1.0,-1.0,2.0,2.0,1.0,2.0,-1.0,3.0,0,0,1,0.48108154703492606,0.2496420921374082,-0.2888745291291599,0.5341821925327016,0.2488315777136573,-0.2745976456928973,0.5544151674317433,0.24703898955337536,-0.29611636332496616,0.3938322000375557,0.23872839825113443,-0.2558668800706373,0.4978898249764897,0.2499955471613702,-0.23680248433573903,0.6198815111564002,0.23562842328285796,-0.34706810830160073,0.4074301463730912,0.24143082219949272,-0.25915570766056395,0.4361379565624501,0.24592163940798054,-0.23618217318265106,0.3535912191341746,0.22856446888538268,-0.16229295307136393,0.9735938736305015,0.025708842859656543,-0.4064240545378396
10.0,0.0,10.0,0.0,6.0,0.0,6.0,0.0,,,,left,0.6600346000050195,421.7737880000204,kp4,416.3520228000125,418.3664700000081,421.7737880000204,None,False,5.0,['r'],False,0.2222222222222222,0.6666666666666666,0.6666666666666666,2.0,2.0,0.77250688571426,0.0,wait_cost,1.0,4.0,418.3664700000081,None,kp4,1,2023-03-24_11h15.46.911,threat_forest,2021.2.3,60.052413743836034,False,34.0,0.4583333333333333,0.4513888888888888,-1.3888888888888888,-1.1111111111111112,0,0,0,-0.4154630210857393,0.0,0.0,0.2222222222222222,0.6666666666666666,0.3333333333333333,-1.3333333333333337,-1.777777777777778,3.2222222222222223,3.2222222222222223,0.0,2.0,1.0,5.0,0,0,0,0.5168576005668521,0.24971582130312847,-0.25950068436405616,0.41171067192583993,0.24220499454821331,-0.27824267040289996,0.24999480995257076,0.1874974049493488,-0.18815918544778024,0.6217243125395326,0.23518319173677824,-0.23758828227292217,0.45069256698657917,0.24756877704962701,-0.24910183613838655,0.39062408980828767,0.23803691026973448,-0.2098138707612449,0.3811866977244912,0.23588339920238854,-0.27656558543325815,0.4361379565624501,0.24592163940798054,-0.23618217318265106,0.06568345004907854,0.06136913443872875,-0.4250308014346017,0.40983659533529443,0.24187056045926852,-0.19810947781654004
10.0,0.0,10.0,0.0,7.0,0.0,7.0,0.0,,,,right,0.7021267999953125,425.3177817000251,kp4,425.3177817000251,None,422.4631207000057,424.4774751000223,False,4.0,['r'],True,0.25,0.25,0.0,0.0,2.0,0.5118595071429148,0.0,wait_cost,0.0,3.0,424.4774751000223,None,kp4,1,2023-03-24_11h15.46.911,threat_forest,2021.2.3,60.052413743836034,False,34.0,0.4583333333333333,0.4513888888888888,-1.3888888888888888,-1.1111111111111112,1,0,0,-0.3536412644934282,0.0,0.0,0.25,0.25,1.0,-1.0,-1.0,3.0,3.0,1.0,2.0,-1.0,4.0,0,0,1,0.48108154703492606,0.2496420921374082,-0.2888745291291599,0.5341821925327016,0.2488315777136573,-0.2745976456928973,0.5544151674317433,0.24703898955337536,-0.29611636332496616,0.3938322000375557,0.23872839825113443,-0.2558668800706373,0.4978898249764897,0.2499955471613702,-0.23680248433573903,0.6198815111564002,0.23562842328285796,-0.34706810830160073,0.4074301463730912,0.24143082219949272,-0.25915570766056395,0.4361379565624501,0.24592163940798054,-0.23618217318265106,0.06568345004907854,0.06136913443872875,-0.4250308014346017,0.40983659533529443,0.24187056045926852,-0.19810947781654004
11.0,0.0,11.0,0.0,0.0,0.0,0.0,0.0,431.5988467000134,435.1013119000127,None,right,0.6680440999916755,435.8606072000112,kp4,431.5988467000134,435.10131190001266,435.8606072000112,None,True,5.0,['r'],False,0.5,0.5,0.0,0.0,1.0,0.6309297535714574,0.07495910506875,unsucc_cost,1.0,3.0,,,kp4,1,2023-03-24_11h15.46.911,threat_forest,2021.2.3,60.052413743836034,True,24.0,0.55,0.5041666666666667,-0.91,-1.1494444444444445,1,0,1,-0.4034010896729704,0.07495910506875,0.5,0.5,0.5,1.0,-0.5,-0.5,4.5,4.5,0.0,1.0,-1.0,5.0,0,0,1,0.5168576005668521,0.24971582130312847,-0.25950068436405616,0.5341821925327016,0.2488315777136573,-0.2745976456928973,0.5544151674317433,0.24703898955337536,-0.29611636332496616,0.5313665896356238,0.24901613705463038,-0.30890904815748,0.5684935174305691,0.2453086380699883,-0.2605566683447573,0.6198815111564002,0.23562842328285796,-0.34706810830160073,0.6489977042900327,0.22779968411629997,-0.3019352916322541,0.4361379565624501,0.24592163940798054,-0.23618217318265106,0.809750086084142,0.15405488417086663,-0.2793804784806121,0.7778653503771352,0.17279084705979192,-0.2646814472505324
11.0,0.0,11.0,0.0,1.0,0.0,1.0,0.0,,,,left,0.6333085999940522,440.1048373000231,kp4,440.1048373000231,None,436.5498699000164,438.5643012000073,True,3.0,['r'],True,0.36,0.6,0.4,2.0,1.0,0.9801625908629508,0.0196917849999999,figh_cost,0.0,0.0,438.5643012000073,None,kp4,1,2023-03-24_11h15.46.911,threat_forest,2021.2.3,60.052413743836034,True,24.0,0.55,0.5041666666666667,-0.91,-1.1494444444444445,0,0,1,-0.4567974558992593,0.0196917849999999,0.36,0.36,0.6,0.6,-1.4000000000000004,-1.3200000000000005,1.6799999999999995,1.6799999999999995,1.0,1.0,-1.0,3.0,0,0,0,0.48108154703492606,0.2496420921374082,-0.2888745291291599,0.4602436359692529,0.2484194315190547,-0.27482435122513815,0.5544151674317433,0.24703898955337536,-0.29611636332496616,0.5862238626115682,0.24256544551634143,-0.27565016869078673,0.44133167967209147,0.24655802818990197,-0.25422451164428916,0.39062408980828767,0.23803691026973448,-0.2098138707612449,0.5151614592321823,0.2497701301539509,-0.23298385592476478,0.4361379565624501,0.24592163940798054,-0.23618217318265106,0.5743074725832279,0.24447839951829278,-0.1372851267027,0.5150916161572744,0.24977224312176144,-0.19049464343466244
12.0,0.0,12.0,0.0,0.0,0.0,0.0,0.0,446.31856130002416,449.82055760000367,None,right,0.5989971999952104,452.1589666000218,kp4,446.31856130002416,449.82055760000367,452.1589666000218,None,True,5.0,['r'],False,0.5,0.5,0.0,0.0,1.0,0.6309297535714574,0.0772781267414693,unsucc_cost,1.0,3.0,,,kp4,1,2023-03-24_11h15.46.911,threat_forest,2021.2.3,60.052413743836034,True,30.0,0.5833333333333333,0.5666666666666667,-1.25,-1.08,1,0,1,-0.5124983553430381,0.0772781267414693,0.5,0.5,0.5,1.0,-0.5,-0.5,4.5,4.5,0.0,1.0,-1.0,5.0,0,0,1,0.5168576005668521,0.24971582130312847,-0.25950068436405616,0.5341821925327016,0.2488315777136573,-0.2745976456928973,0.5544151674317433,0.24703898955337536,-0.29611636332496616,0.5313665896356238,0.24901613705463038,-0.30890904815748,0.5684935174305691,0.2453086380699883,-0.2605566683447573,0.6198815111564002,0.23562842328285796,-0.34706810830160073,0.6489977042900327,0.22779968411629997,-0.3019352916322541,0.4361379565624501,0.24592163940798054,-0.23618217318265106,0.809750086084142,0.15405488417086663,-0.2793804784806121,0.7863937520872614,0.16797861876538023,-0.2693189811828517
12.0,0.0,12.0,0.0,1.0,0.0,1.0,0.0,,,,right,1.3741688999871258,457.687616900017,kp4,457.687616900017,None,452.78474270002334,454.7991862000199,False,3.0,['r'],True,0.2222222222222222,0.6666666666666666,0.6666666666666666,2.0,1.0,0.77250688571426,-0.0235801665380659,wait_cost,0.0,2.0,454.7991862000199,None,kp4,1,2023-03-24_11h15.46.911,threat_forest,2021.2.3,60.052413743836034,False,30.0,0.5833333333333333,0.5666666666666667,-1.25,-1.08,0,0,0,0.3178491120002283,-0.0235801665380659,0.2222222222222222,0.2222222222222222,0.6666666666666666,0.3333333333333333,-2.0,-2.0,1.0,1.0,1.0,1.0,-1.0,3.0,0,0,0,0.48108154703492606,0.2496420921374082,-0.2888745291291599,0.41171067192583993,0.24220499454821331,-0.27824267040289996,0.5544151674317433,0.24703898955337536,-0.29611636332496616,0.6217243125395326,0.23518319173677824,-0.23758828227292217,0.3596837542094694,0.23031135116725146,-0.33656589015336946,0.39062408980828767,0.23803691026973448,-0.2098138707612449,0.3811866977244912,0.23588339920238854,-0.27656558543325815,0.4361379565624501,0.24592163940798054,-0.23618217318265106,0.30337981806373615,0.21134050405535051,-0.1893594228069212,0.29450719616031457,0.20777270757010458,-0.23096950442341632
12.0,0.0,12.0,0.0,2.0,0.0,2.0,0.0,,,,right,0.8433081000111997,462.3090270000103,kp4,462.3090270000103,None,452.78474270002334,454.7991862000199,False,2.0,['r'],True,0.2222222222222222,0.6666666666666666,0.6666666666666666,2.0,1.0,0.77250688571426,-0.0102184070644718,wait_cost,0.0,1.0,461.09335640000063,None,kp4,1,2023-03-24_11h15.46.911,threat_forest,2021.2.3,60.052413743836034,False,30.0,0.5833333333333333,0.5666666666666667,-1.25,-1.08,0,0,0,-0.1704229073116572,-0.0102184070644718,0.2222222222222222,0.2222222222222222,0.6666666666666666,0.3333333333333333,-2.0,-2.0,0.0,0.0,1.0,1.0,-1.0,2.0,0,0,0,0.48108154703492606,0.2496420921374082,-0.2888745291291599,0.41171067192583993,0.24220499454821331,-0.27824267040289996,0.5544151674317433,0.24703898955337536,-0.29611636332496616,0.6217243125395326,0.23518319173677824,-0.23758828227292217,0.3596837542094694,0.23031135116725146,-0.33656589015336946,0.39062408980828767,0.23803691026973448,-0.2098138707612449,0.3811866977244912,0.23588339920238854,-0.27656558543325815,0.4361379565624501,0.24592163940798054,-0.23618217318265106,0.30337981806373615,0.21134050405535051,-0.1893594228069212,0.35773830693773606,0.22976161068705822,-0.20977884635389474
12.0,0.0,12.0,0.0,3.0,0.0,3.0,0.0,,,,left,0.7034745000128169,468.1885233000212,kp4,468.1885233000212,None,452.78474270002334,454.7991862000199,True,1.0,['r'],True,0.2222222222222222,0.6666666666666666,0.6666666666666666,2.0,1.0,0.77250688571426,0.0481395747599451,succ_gain,0.0,2.0,465.18947340000886,None,kp4,1,2023-03-24_11h15.46.911,threat_forest,2021.2.3,60.052413743836034,True,30.0,0.5833333333333333,0.5666666666666667,-1.25,-1.08,0,0,1,-0.3517236504011792,0.0481395747599451,1.0,0.2222222222222222,0.6666666666666666,0.3333333333333333,-2.0,-2.0,-1.0,0.0,1.0,1.0,-1.0,1.0,1,0,0,0.48108154703492606,0.2496420921374082,-0.2888745291291599,0.41171067192583993,0.24220499454821331,-0.27824267040289996,0.5544151674317433,0.24703898955337536,-0.29611636332496616,0.6217243125395326,0.23518319173677824,-0.23758828227292217,0.3596837542094694,0.23031135116725146,-0.33656589015336946,0.39062408980828767,0.23803691026973448,-0.2098138707612449,0.3811866977244912,0.23588339920238854,-0.27656558543325815,0.9761904662908956,0.023242639813659337,-0.5671055265261972,0.9961343124687373,0.0038507439911734374,-0.5154176426555156,0.6624875488370696,0.22359779647292088,-0.21571890069499264
12.0,0.0,12.0,0.0,4.0,0.0,4.0,0.0,,,,left,0.5210813000157941,472.2012047000171,kp4,472.2012047000171,None,452.78474270002334,454.7991862000199,True,2.0,['r'],True,0.2222222222222222,0.6666666666666666,0.6666666666666666,2.0,1.0,0.77250688571426,-0.0320216049382716,figh_cost,0.0,0.0,470.9341056000266,None,kp4,1,2023-03-24_11h15.46.911,threat_forest,2021.2.3,60.052413743836034,True,30.0,0.5833333333333333,0.5666666666666667,-1.25,-1.08,0,0,1,-0.6518492033071216,-0.0320216049382716,0.2222222222222222,0.2222222222222222,0.6666666666666666,0.3333333333333333,-2.0,-2.0,0.0,0.0,1.0,1.0,1.0,2.0,0,0,0,0.48108154703492606,0.2496420921374082,-0.2888745291291599,0.41171067192583993,0.24220499454821331,-0.27824267040289996,0.24999480995257076,0.1874974049493488,-0.18815918544778024,0.6217243125395326,0.23518319173677824,-0.23758828227292217,0.3596837542094694,0.23031135116725146,-0.33656589015336946,0.39062408980828767,0.23803691026973448,-0.2098138707612449,0.3811866977244912,0.23588339920238854,-0.27656558543325815,0.4361379565624501,0.24592163940798054,-0.23618217318265106,0.30337981806373615,0.21134050405535051,-0.1893594228069212,0.2581143559053592,0.1914913351809208,-0.2466598275544385
13.0,0.0,13.0,0.0,0.0,0.0,0.0,0.0,477.88987530002487,481.390769700025,None,right,0.610177599999588,484.0622379000124,kp4,477.88987530002487,481.390769700025,484.0622379000124,None,True,4.0,['r'],False,0.5,0.5,0.0,0.0,1.0,0.6309297535714574,0.0773127614393294,succ_gain,1.0,5.0,,,kp4,1,2023-03-24_11h15.46.911,threat_forest,2021.2.3,60.052413743836034,True,27.0,0.5357142857142857,0.5595238095238095,-0.7806122448979592,-1.0153061224489797,1,0,1,-0.4940052166496923,0.0773127614393294,0.5,0.5,0.5,1.0,-0.5,-0.5,3.5,3.5,0.0,1.0,-1.0,4.0,0,0,1,0.5168576005668521,0.24971582130312847,-0.25950068436405616,0.5341821925327016,0.2488315777136573,-0.2745976456928973,0.5544151674317433,0.24703898955337536,-0.29611636332496616,0.5313665896356238,0.24901613705463038,-0.30890904815748,0.5684935174305691,0.2453086380699883,-0.2605566683447573,0.6198815111564002,0.23562842328285796,-0.34706810830160073,0.6489977042900327,0.22779968411629997,-0.3019352916322541,0.4361379565624501,0.24592163940798054,-0.23618217318265106,0.809750086084142,0.15405488417086663,-0.2793804784806121,0.7865192979933378,0.1679066918774049,-0.26938829696822686
13.0,0.0,13.0,0.0,1.0,0.0,1.0,0.0,,,,right,0.3868260000017471,489.70252460002666,kp4,477.88987530002487,481.390769700025,489.70252460002666,None,True,5.0,['r'],False,0.5,0.5,0.0,0.0,1.0,0.6309297535714574,0.0962918585884503,unsucc_cost,1.0,3.0,486.7191569000133,None,kp4,1,2023-03-24_11h15.46.911,threat_forest,2021.2.3,60.052413743836034,True,27.0,0.5357142857142857,0.5595238095238095,-0.7806122448979592,-1.0153061224489797,1,0,1,-0.9497802994569028,0.0962918585884503,0.5,0.5,0.5,1.0,-0.5,-0.5,4.5,4.5,0.0,1.0,1.0,5.0,0,0,1,0.5168576005668521,0.24971582130312847,-0.25950068436405616,0.5341821925327016,0.2488315777136573,-0.2745976456928973,0.24999480995257076,0.1874974049493488,-0.18815918544778024,0.5313665896356238,0.24901613705463038,-0.30890904815748,0.5684935174305691,0.2453086380699883,-0.2605566683447573,0.6198815111564002,0.23562842328285796,-0.34706810830160073,0.6489977042900327,0.22779968411629997,-0.3019352916322541,0.4361379565624501,0.24592163940798054,-0.23618217318265106,0.809750086084142,0.15405488417086663,-0.2793804784806121,0.8473173813366284,0.1293706366214671,-0.30652540953511787
13.0,0.0,13.0,0.0,2.0,0.0,2.0,0.0,,,,right,0.5210894000192638,495.178183400014,kp4,477.88987530002487,481.390769700025,495.178183400014,None,True,3.0,['r'],False,0.5,0.5,0.0,0.0,1.0,0.6309297535714574,0.1200795179904086,unsucc_cost,1.0,1.0,492.1308829000045,None,kp4,1,2023-03-24_11h15.46.911,threat_forest,2021.2.3,60.052413743836034,True,27.0,0.5357142857142857,0.5595238095238095,-0.7806122448979592,-1.0153061224489797,1,0,1,-0.651833658822001,0.1200795179904086,0.5,0.5,0.5,1.0,-0.5,-0.5,2.5,2.5,0.0,1.0,-1.0,3.0,0,0,1,0.5168576005668521,0.24971582130312847,-0.25950068436405616,0.5341821925327016,0.2488315777136573,-0.2745976456928973,0.5544151674317433,0.24703898955337536,-0.29611636332496616,0.5313665896356238,0.24901613705463038,-0.30890904815748,0.5684935174305691,0.2453086380699883,-0.2605566683447573,0.6198815111564002,0.23562842328285796,-0.34706810830160073,0.6489977042900327,0.22779968411629997,-0.3019352916322541,0.4361379565624501,0.24592163940798054,-0.23618217318265106,0.809750086084142,0.15405488417086663,-0.2793804784806121,0.9026607661486167,0.08786430740460906,-0.34652496865261173
13.0,0.0,13.0,0.0,3.0,0.0,3.0,0.0,,,,left,0.646740399999544,501.26677930000005,kp4,501.26677930000005,None,495.727690700005,497.7423001000134,True,1.0,['r'],True,0.4081632653061224,0.5714285714285714,0.2857142857142857,2.0,1.0,0.9885754083994552,0.1180805612370661,figh_cost,0.0,0.0,497.7423001000134,None,kp4,1,2023-03-24_11h15.46.911,threat_forest,2021.2.3,60.052413743836034,True,27.0,0.5357142857142857,0.5595238095238095,-0.7806122448979592,-1.0153061224489797,0,0,1,-0.4358103014748779,0.1180805612370661,1.0,0.4081632653061224,0.5714285714285714,0.7142857142857143,-1.1428571428571428,-1.0612244897959184,-0.0612244897959184,0.0,1.0,1.0,-1.0,1.0,1,0,0,0.48108154703492606,0.2496420921374082,-0.2888745291291599,0.481332802563687,0.2496515357398737,-0.27414661879229046,0.5544151674317433,0.24703898955337536,-0.29611636332496616,0.5707067182348438,0.24500055999645845,-0.2882052844487003,0.4776085045613867,0.2494986209320226,-0.23932100493442854,0.39062408980828767,0.23803691026973448,-0.2098138707612449,0.5624825982516947,0.24609592491571736,-0.2445148792743147,0.9761904662908956,0.023242639813659337,-0.5671055265261972,0.9961343124687373,0.0038507439911734374,-0.5154176426555156,0.8988034188495305,0.09095583311392588,-0.3435456720560135
14.0,0.0,14.0,0.0,0.0,0.0,0.0,0.0,507.1938993000076,510.69674390001455,None,left,0.6189587999833748,512.8253232999996,kp4,512.8253232999996,None,507.1938993000076,510.69674390001455,True,5.0,['r'],True,0.36,0.6,0.4,2.0,2.0,0.9801625908629508,-0.0333353473,succ_gain,0.0,6.0,,,kp4,1,2023-03-24_11h15.46.911,threat_forest,2021.2.3,60.052413743836034,True,67.0,0.55,0.5428571428571429,-0.4800000000000001,-0.6303061224489797,0,0,1,-0.4797165675056215,-0.0333353473,0.36,0.36,0.6,0.6,-0.8000000000000003,-0.9600000000000002,4.04,4.04,1.0,2.0,-1.0,5.0,0,0,0,0.48108154703492606,0.2496420921374082,-0.2888745291291599,0.4602436359692529,0.2484194315190547,-0.27482435122513815,0.5544151674317433,0.24703898955337536,-0.29611636332496616,0.5862238626115682,0.24256544551634143,-0.27565016869078673,0.5262803838884978,0.24930934142267322,-0.24028031099446912,0.39062408980828767,0.23803691026973448,-0.2098138707612449,0.5151614592321823,0.2497701301539509,-0.23298385592476478,0.4361379565624501,0.24592163940798054,-0.23618217318265106,0.5743074725832279,0.24447839951829278,-0.1372851267027,0.2527218332041255,0.1888535082260717,-0.24920189564894374
14.0,0.0,14.0,0.0,1.0,0.0,1.0,0.0,,,,right,0.7441425999859348,516.1464966000058,kp4,516.1464966000058,None,507.1938993000076,510.69674390001455,False,6.0,['r'],True,0.36,0.6,0.4,2.0,2.0,0.9801625908629508,-0.1255866,wait_cost,0.0,5.0,515.4758563000069,None,kp4,1,2023-03-24_11h15.46.911,threat_forest,2021.2.3,60.052413743836034,False,67.0,0.55,0.5428571428571429,-0.4800000000000001,-0.6303061224489797,0,0,0,-0.2955225958669886,-0.1255866,0.36,0.36,0.6,0.6,-0.8000000000000003,-0.9600000000000002,5.04,5.04,1.0,2.0,1.0,6.0,0,0,0,0.48108154703492606,0.2496420921374082,-0.2888745291291599,0.4602436359692529,0.2484194315190547,-0.27482435122513815,0.24999480995257076,0.1874974049493488,-0.18815918544778024,0.5862238626115682,0.24256544551634143,-0.27565016869078673,0.5262803838884978,0.24930934142267322,-0.24028031099446912,0.39062408980828767,0.23803691026973448,-0.2098138707612449,0.5151614592321823,0.2497701301539509,-0.23298385592476478,0.4361379565624501,0.24592163940798054,-0.23618217318265106,0.5743074725832279,0.24447839951829278,-0.1372851267027,0.044138066385667356,0.042189897481401784,-0.3905412980739557
14.0,0.0,14.0,0.0,2.0,0.0,2.0,0.0,,,,right,0.6500063000130467,519.5773086000117,kp4,516.9080202000041,518.9224813000183,519.5773086000117,None,True,5.0,['r'],False,0.5,0.5,0.0,0.0,2.0,0.6309297535714574,0.1117124999999999,succ_gain,1.0,6.0,518.9224813000183,None,kp4,1,2023-03-24_11h15.46.911,threat_forest,2021.2.3,60.052413743836034,True,67.0,0.55,0.5428571428571429,-0.4800000000000001,-0.6303061224489797,1,0,1,-0.4307732238116604,0.1117124999999999,0.5,0.5,0.5,1.0,0.0,0.0,5.0,5.0,0.0,2.0,-1.0,5.0,0,0,1,0.5168576005668521,0.24971582130312847,-0.25950068436405616,0.5341821925327016,0.2488315777136573,-0.2745976456928973,0.5544151674317433,0.24703898955337536,-0.29611636332496616,0.5313665896356238,0.24901613705463038,-0.30890904815748,0.636419105826303,0.2313898275655519,-0.3310999580614249,0.6198815111564002,0.23562842328285796,-0.34706810830160073,0.6489977042900327,0.22779968411629997,-0.3019352916322541,0.4361379565624501,0.24592163940798054,-0.23618217318265106,0.809750086084142,0.15405488417086663,-0.2793804784806121,0.8855987237703151,0.1013136242267043,-0.3335638913069233
14.0,0.0,14.0,0.0,3.0,0.0,3.0,0.0,,,,right,0.9828158000018448,523.4488926000195,kp4,523.4488926000195,None,520.2549636000185,522.269355700002,False,6.0,['r'],True,0.36,0.6,0.4,2.0,2.0,0.9801625908629508,-0.238868,wait_cost,0.0,5.0,522.269355700002,None,kp4,1,2023-03-24_11h15.46.911,threat_forest,2021.2.3,60.052413743836034,False,67.0,0.55,0.5428571428571429,-0.4800000000000001,-0.6303061224489797,0,0,0,-0.0173335619463852,-0.238868,0.0,0.36,0.6,0.6,-0.8000000000000003,-0.9600000000000002,5.04,5.04,1.0,2.0,1.0,6.0,0,0,0,0.48108154703492606,0.2496420921374082,-0.2888745291291599,0.4602436359692529,0.2484194315190547,-0.27482435122513815,0.24999480995257076,0.1874974049493488,-0.18815918544778024,0.5862238626115682,0.24256544551634143,-0.27565016869078673,0.5262803838884978,0.24930934142267322,-0.24028031099446912,0.39062408980828767,0.23803691026973448,-0.2098138707612449,0.5151614592321823,0.2497701301539509,-0.23298385592476478,0.4361379565624501,0.24592163940798054,-0.23618217318265106,0.06568345004907854,0.06136913443872875,-0.4250308014346017,0.003988488354924268,0.003972580315566902,-0.4273712434372268
14.0,0.0,14.0,0.0,4.0,0.0,4.0,0.0,,,,left,0.4710184000141453,529.1875913000258,kp4,524.4510202000092,526.4654848000209,529.1875913000258,None,False,5.0,['r'],False,0.5,0.5,0.0,0.0,2.0,0.6309297535714574,-0.205,wait_cost,1.0,4.0,526.4654848000209,None,kp4,1,2023-03-24_11h15.46.911,threat_forest,2021.2.3,60.052413743836034,False,67.0,0.55,0.5428571428571429,-0.4800000000000001,-0.6303061224489797,1,0,0,-0.7528581198813274,-0.205,0.0,0.5,0.5,1.0,0.0,0.0,5.0,5.0,0.0,2.0,-1.0,5.0,0,0,1,0.5168576005668521,0.24971582130312847,-0.25950068436405616,0.5341821925327016,0.2488315777136573,-0.2745976456928973,0.5544151674317433,0.24703898955337536,-0.29611636332496616,0.5313665896356238,0.24901613705463038,-0.30890904815748,0.636419105826303,0.2313898275655519,-0.3310999580614249,0.6198815111564002,0.23562842328285796,-0.34706810830160073,0.6489977042900327,0.22779968411629997,-0.3019352916322541,0.4361379565624501,0.24592163940798054,-0.23618217318265106,0.06568345004907854,0.06136913443872875,-0.4250308014346017,0.008249306473896833,0.00818125541659656,-0.4233153524035869
14.0,0.0,14.0,0.0,5.0,0.0,5.0,0.0,,,,left,0.7600927000166848,534.6941121000273,kp4,524.4510202000092,526.4654848000209,534.6941121000273,None,False,4.0,['r'],False,0.5,0.5,0.0,0.0,2.0,0.6309297535714574,-0.2675,wait_cost,1.0,3.0,531.6939172999992,None,kp4,1,2023-03-24_11h15.46.911,threat_forest,2021.2.3,60.052413743836034,False,67.0,0.55,0.5428571428571429,-0.4800000000000001,-0.6303061224489797,1,0,0,-0.2743148794337837,-0.2675,0.0,0.5,0.5,1.0,0.0,0.0,4.0,4.0,0.0,2.0,-1.0,4.0,0,0,1,0.5168576005668521,0.24971582130312847,-0.25950068436405616,0.5341821925327016,0.2488315777136573,-0.2745976456928973,0.5544151674317433,0.24703898955337536,-0.29611636332496616,0.5313665896356238,0.24901613705463038,-0.30890904815748,0.636419105826303,0.2313898275655519,-0.3310999580614249,0.6198815111564002,0.23562842328285796,-0.34706810830160073,0.6489977042900327,0.22779968411629997,-0.3019352916322541,0.4361379565624501,0.24592163940798054,-0.23618217318265106,0.06568345004907854,0.06136913443872875,-0.4250308014346017,0.0021538610052709434,0.002149221888040917,-0.429128409984843
14.0,0.0,14.0,0.0,6.0,0.0,6.0,0.0,,,,left,0.698086600023089,540.6357928000216,kp4,524.4510202000092,526.4654848000209,540.6357928000216,None,False,3.0,['r'],False,0.5,0.5,0.0,0.0,2.0,0.6309297535714574,-0.285,wait_cost,1.0,2.0,537.4884971000138,None,kp4,1,2023-03-24_11h15.46.911,threat_forest,2021.2.3,60.052413743836034,False,67.0,0.55,0.5428571428571429,-0.4800000000000001,-0.6303061224489797,1,0,0,-0.3594121151146746,-0.285,0.0,0.5,0.5,1.0,0.0,0.0,3.0,3.0,0.0,2.0,-1.0,3.0,0,0,1,0.5168576005668521,0.24971582130312847,-0.25950068436405616,0.5341821925327016,0.2488315777136573,-0.2745976456928973,0.5544151674317433,0.24703898955337536,-0.29611636332496616,0.5313665896356238,0.24901613705463038,-0.30890904815748,0.636419105826303,0.2313898275655519,-0.3310999580614249,0.6198815111564002,0.23562842328285796,-0.34706810830160073,0.6489977042900327,0.22779968411629997,-0.3019352916322541,0.4361379565624501,0.24592163940798054,-0.23618217318265106,0.06568345004907854,0.06136913443872875,-0.4250308014346017,0.00147730782443034,0.0014751253860222173,-0.4297780353165006
