miniblock.thisRepN,miniblock.thisTrialN,miniblock.thisN,miniblock.thisIndex,day.thisRepN,day.thisTrialN,day.thisN,day.thisIndex,forest.started,fixation_forest.started,fixation_forest.stopped,key_resp.keys,key_resp.rt,key_resp.started,Subject_ID,weather_left.started,weather_left.stopped,weather_right.started,weather_right.stopped,foraging T/F,in_LP,p/r heuristic,good_weather.T/F,p_succ_correct,p_succ_uncorrected,r_threat,n_oponents,gain_if_succ,weather_entropy,OP_value_difference,action_outcome,forest_side_L=0_R=1,out_LP,fixation_day.started,fixation_day.stopped,participant,session,date,expName,psychopyVersion,frameRate,foraging T/F NaNs,fora_NR,forest_mean_p,mvt_cutoff_p,forest_mean_ev,mvt_cutoff_ev,mvt_policy_eg,mvt_policy_p,fora_response,logRT,optimal policy,$\mathit{p}$ success cor + cap,$\mathit{p}$ success cor,$\mathit{p}$ success,risk threat encounter,expected gain naive,expected gain correct,expected state no bounds,expected state with bounds,weather type,gain magnitude,win stay lose shift,continuous energy state,binary energy state,$\mathit{p}$ success based MVT,expected gain based MVT,weather type fit,weather type_uncertain,weather type_uncertain_fit,risk threat encounter fit,risk threat encounter_uncertain,risk threat encounter_uncertain_fit,win stay lose shift fit,win stay lose shift_uncertain,win stay lose shift_uncertain_fit,$\mathit{p}$ success fit,$\mathit{p}$ success_uncertain,$\mathit{p}$ success_uncertain_fit,expected gain naive fit,expected gain naive_uncertain,expected gain naive_uncertain_fit,expected gain based MVT fit,expected gain based MVT_uncertain,expected gain based MVT_uncertain_fit,$\mathit{p}$ success cor fit,$\mathit{p}$ success cor_uncertain,$\mathit{p}$ success cor_uncertain_fit,binary energy state fit,binary energy state_uncertain,binary energy state_uncertain_fit,$\mathit{p}$ success cor + cap fit,$\mathit{p}$ success cor + cap_uncertain,$\mathit{p}$ success cor + cap_uncertain_fit,optimal policy fit,optimal policy_uncertain,optimal policy_uncertain_fit
0.0,0.0,0.0,0.0,0.0,0.0,0.0,0.0,23.67020583152771,27.18068599700928,None,right,1.862494945526123,28.806397914886475,pt3,28.806397914886475,None,23.67020583152771,27.180685997009277,False,5.0,['r'],True,0.3333333333333333,0.3333333333333333,0.0,0.0,1.0,0.5793801642856949,0.037608671236214,wait_cost,0.0,4.0,,,pt3,1,2023-03-30_11h44.39.847,threat_forest,2021.2.3,59.81787817376163,False,28.0,0.3666666666666667,0.3666666666666667,-1.3400000000000003,-1.3400000000000003,1,0,0,0.6219169574564176,0.037608671236214,0.3333333333333333,0.3333333333333333,0.3333333333333333,1.0,-1.0000000000000002,-1.0000000000000002,4.0,4.0,1.0,1.0,,5.0,0,0,1,0.5500026379781999,0.24749973619522103,0.07049885249337606,0.5523663317852345,0.24725776729535873,0.11244833364213291,,,,0.454827865168864,0.24795947823479766,0.12845608357785387,0.4572768646981863,0.24817473370998291,0.11488107970982153,0.5789514024322276,0.24376667605398442,0.09639016107770548,0.450999131968098,0.24759891493212008,0.12421550254497013,0.41209362341947947,0.24227246895648366,0.14069108686941442,0.5028840717560286,0.24999168213010606,0.27557140307178324,0.6204409106984135,0.23549398703013677,0.24031572813999214
0.0,0.0,0.0,0.0,1.0,0.0,1.0,0.0,,,,right,1.5069639682769775,33.65680384635925,pt3,33.65680384635925,None,23.67020583152771,27.180685997009277,False,4.0,['r'],True,0.3333333333333333,0.3333333333333333,0.0,0.0,1.0,0.5793801642856949,0.047174490166255,wait_cost,0.0,3.0,32.7197539806366,None,pt3,1,2023-03-30_11h44.39.847,threat_forest,2021.2.3,59.81787817376163,False,28.0,0.3666666666666667,0.3666666666666667,-1.3400000000000003,-1.3400000000000003,1,0,0,0.410097009787835,0.047174490166255,0.3333333333333333,0.3333333333333333,0.3333333333333333,1.0,-1.0000000000000002,-1.0000000000000002,3.0,3.0,1.0,1.0,-1.0,4.0,0,0,1,0.5500026379781999,0.24749973619522103,0.07049885249337606,0.5523663317852345,0.24725776729535873,0.11244833364213291,0.5031403613225257,0.24999013813076396,0.13918076050438977,0.454827865168864,0.24795947823479766,0.12845608357785387,0.4572768646981863,0.24817473370998291,0.11488107970982153,0.5789514024322276,0.24376667605398442,0.09639016107770548,0.450999131968098,0.24759891493212008,0.12421550254497013,0.41209362341947947,0.24227246895648366,0.14069108686941442,0.5028840717560286,0.24999168213010606,0.27557140307178324,0.6734954976189191,0.21989931230596357,0.22084948713549374
0.0,0.0,0.0,0.0,2.0,0.0,2.0,0.0,,,,right,1.69504714012146,40.000216007232666,pt3,35.1946918964386,37.208069801330566,40.000216007232666,None,True,3.0,['r'],False,0.24,0.4,0.4,2.0,1.0,0.9801625908629508,0.0019563714370369,figh_cost,1.0,0.0,37.208069801330566,None,pt3,1,2023-03-30_11h44.39.847,threat_forest,2021.2.3,59.81787817376163,True,28.0,0.3666666666666667,0.3666666666666667,-1.3400000000000003,-1.3400000000000003,0,0,1,0.5277105517267844,0.0019563714370369,0.24,0.24,0.4,0.6,-2.0,-1.6800000000000002,1.3199999999999998,1.3199999999999998,0.0,1.0,-1.0,3.0,0,0,0,0.37623846676259504,0.2346830828907267,0.17579837268806853,0.3624017080024161,0.2310667100393477,0.15268283790637627,0.5031403613225257,0.24999013813076396,0.13918076050438977,0.45932993107470166,0.24834594549361147,0.12480934820766443,0.3692529958465916,0.2329052209049086,0.16542096045535648,0.3367891383225276,0.22336221463049702,0.15267097469650026,0.3991287609070754,0.23982499312385802,0.12242055754943529,0.41209362341947947,0.24227246895648366,0.14069108686941442,0.31364575146787377,0.2152720940540265,0.2218966935140249,0.40719887344221883,0.24138795090960669,0.24767293971246068
1.0,0.0,1.0,0.0,0.0,0.0,0.0,0.0,44.92221784591675,48.43707489967346,None,right,0.9896628856658936,50.59742283821106,pt3,44.92221784591675,48.43707489967346,50.59742283821106,None,True,5.0,['p'],False,0.4444444444444445,0.6666666666666666,0.3333333333333333,1.0,1.0,0.9656336071428248,0.0487968663670544,succ_gain,1.0,6.0,,,pt3,1,2023-03-30_11h44.39.847,threat_forest,2021.2.3,59.81787817376163,True,13.0,0.4761904761904761,0.4214285714285714,-1.2040816326530612,-1.2720408163265309,1,1,1,-0.0103909133728416,0.0487968663670544,0.4444444444444445,0.4444444444444445,0.6666666666666666,0.6666666666666667,-1.0,-1.0,4.0,4.0,0.0,1.0,-1.0,5.0,0,1,1,0.37623846676259504,0.2346830828907267,0.17579837268806853,0.39275255251076774,0.23849798500704433,0.13421624491934003,0.5031403613225257,0.24999013813076396,0.13918076050438977,0.47739737117863684,0.24948912117036373,0.11402225284660306,0.4572768646981863,0.24817473370998291,0.11488107970982153,0.5789514024322276,0.24376667605398442,0.09639016107770548,0.5140703659421217,0.24980202480225477,0.12472418543805106,0.41209362341947947,0.24227246895648366,0.14069108686941442,0.7226345201318027,0.200433870445682,0.19895755780810104,0.6821109319324345,0.21683560847070024,0.21702518183394126
1.0,0.0,1.0,0.0,1.0,0.0,1.0,0.0,,,,right,1.496062994003296,56.44512581825256,pt3,44.92221784591675,48.43707489967346,56.44512581825256,None,True,6.0,['p'],False,0.4444444444444445,0.6666666666666666,0.3333333333333333,1.0,1.0,0.9656336071428248,-0.1217426439145263,succ_gain,1.0,6.0,53.62673592567444,None,pt3,1,2023-03-30_11h44.39.847,threat_forest,2021.2.3,59.81787817376163,True,13.0,0.4761904761904761,0.4214285714285714,-1.2040816326530612,-1.2720408163265309,1,1,1,0.4028369869567295,-0.1217426439145263,0.4444444444444445,0.4444444444444445,0.6666666666666666,0.6666666666666667,-1.0,-1.0,5.0,5.0,0.0,1.0,1.0,6.0,0,1,1,0.37623846676259504,0.2346830828907267,0.17579837268806853,0.39275255251076774,0.23849798500704433,0.13421624491934003,0.31323454365980463,0.21511866431803858,0.05698365040737874,0.47739737117863684,0.24948912117036373,0.11402225284660306,0.4572768646981863,0.24817473370998291,0.11488107970982153,0.5789514024322276,0.24376667605398442,0.09639016107770548,0.5140703659421217,0.24980202480225477,0.12472418543805106,0.41209362341947947,0.24227246895648366,0.14069108686941442,0.7226345201318027,0.200433870445682,0.19895755780810104,0.03281141699946428,0.03173482791395155,-0.014029102283516184
1.0,0.0,1.0,0.0,2.0,0.0,2.0,0.0,,,,left,1.145055055618286,63.234251976013184,pt3,44.92221784591675,48.43707489967346,63.234251976013184,None,False,6.0,['p'],False,0.4444444444444445,0.6666666666666666,0.3333333333333333,1.0,1.0,0.9656336071428248,0.0618863686432212,wait_cost,1.0,5.0,59.96694302558899,None,pt3,1,2023-03-30_11h44.39.847,threat_forest,2021.2.3,59.81787817376163,False,13.0,0.4761904761904761,0.4214285714285714,-1.2040816326530612,-1.2720408163265309,1,1,0,0.1354527193596481,0.0618863686432212,0.4444444444444445,0.4444444444444445,0.6666666666666666,0.6666666666666667,-1.0,-1.0,5.0,5.0,0.0,1.0,-1.0,6.0,0,1,1,0.37623846676259504,0.2346830828907267,0.17579837268806853,0.39275255251076774,0.23849798500704433,0.13421624491934003,0.5031403613225257,0.24999013813076396,0.13918076050438977,0.47739737117863684,0.24948912117036373,0.11402225284660306,0.4572768646981863,0.24817473370998291,0.11488107970982153,0.5789514024322276,0.24376667605398442,0.09639016107770548,0.5140703659421217,0.24980202480225477,0.12472418543805106,0.41209362341947947,0.24227246895648366,0.14069108686941442,0.7226345201318027,0.200433870445682,0.19895755780810104,0.7468334696646727,0.18907323825329908,0.18237046802510976
1.0,0.0,1.0,0.0,3.0,0.0,3.0,0.0,,,,right,1.5621018409729004,69.13409900665283,pt3,69.13409900665283,None,64.408695936203,66.40771794319153,False,5.0,['p'],True,0.2448979591836734,0.2857142857142857,0.1428571428571428,1.0,1.0,0.8400769154957735,-0.0054655380765092,wait_cost,0.0,4.0,66.40771794319153,None,pt3,1,2023-03-30_11h44.39.847,threat_forest,2021.2.3,59.81787817376163,False,13.0,0.4761904761904761,0.4214285714285714,-1.2040816326530612,-1.2720408163265309,0,0,0,0.44603224837849,-0.0054655380765092,0.2448979591836734,0.2448979591836734,0.2857142857142857,0.8571428571428572,-1.5714285714285712,-1.4081632653061225,3.591836734693877,3.591836734693877,1.0,1.0,-1.0,5.0,0,0,0,0.5500026379781999,0.24749973619522103,0.07049885249337606,0.4833517046091959,0.24972283426058053,0.10632268380002385,0.5031403613225257,0.24999013813076396,0.13918076050438977,0.451616575702195,0.2476590442532186,0.1312910021952649,0.40627775071393174,0.2412161399887601,0.13791301932156597,0.3367891383225276,0.22336221463049702,0.15267097469650026,0.40180569865784,0.24035787918392512,0.12254359726996492,0.41209362341947947,0.24227246895648366,0.14069108686941442,0.32269214933447665,0.21856192609237246,0.2269826057882458,0.3644641999178642,0.23163004689609537,0.23549251821695277
1.0,0.0,1.0,0.0,4.0,0.0,4.0,0.0,,,,right,1.0325849056243896,76.12161302566528,pt3,70.71807479858398,72.73148798942566,76.12161302566528,None,True,4.0,['p'],False,0.4444444444444445,0.6666666666666666,0.3333333333333333,1.0,1.0,0.9656336071428248,0.088975272648742,succ_gain,1.0,5.0,72.73148798942566,None,pt3,1,2023-03-30_11h44.39.847,threat_forest,2021.2.3,59.81787817376163,True,13.0,0.4761904761904761,0.4214285714285714,-1.2040816326530612,-1.2720408163265309,1,1,1,0.0320652755223551,0.088975272648742,0.4444444444444445,0.4444444444444445,0.6666666666666666,0.6666666666666667,-1.0,-1.0,3.0,3.0,0.0,1.0,-1.0,4.0,0,1,1,0.37623846676259504,0.2346830828907267,0.17579837268806853,0.39275255251076774,0.23849798500704433,0.13421624491934003,0.5031403613225257,0.24999013813076396,0.13918076050438977,0.47739737117863684,0.24948912117036373,0.11402225284660306,0.4572768646981863,0.24817473370998291,0.11488107970982153,0.5789514024322276,0.24376667605398442,0.09639016107770548,0.5140703659421217,0.24980202480225477,0.12472418543805106,0.41209362341947947,0.24227246895648366,0.14069108686941442,0.7226345201318027,0.200433870445682,0.19895755780810104,0.8507545125892617,0.12697127189826946,0.10485093874333741
1.0,0.0,1.0,0.0,5.0,0.0,5.0,0.0,,,,left,1.182392120361328,80.95674681663513,pt3,70.71807479858398,72.73148798942566,80.95674681663513,None,False,5.0,['p'],False,0.4444444444444445,0.6666666666666666,0.3333333333333333,1.0,1.0,0.9656336071428248,-0.2018140589569161,wait_cost,1.0,4.0,79.2057478427887,None,pt3,1,2023-03-30_11h44.39.847,threat_forest,2021.2.3,59.81787817376163,False,13.0,0.4761904761904761,0.4214285714285714,-1.2040816326530612,-1.2720408163265309,1,1,0,0.1675396070838168,-0.2018140589569161,0.0,0.4444444444444445,0.6666666666666666,0.6666666666666667,-1.0,-1.0,4.0,4.0,0.0,1.0,1.0,5.0,0,1,1,0.37623846676259504,0.2346830828907267,0.17579837268806853,0.39275255251076774,0.23849798500704433,0.13421624491934003,0.31323454365980463,0.21511866431803858,0.05698365040737874,0.47739737117863684,0.24948912117036373,0.11402225284660306,0.4572768646981863,0.24817473370998291,0.11488107970982153,0.5789514024322276,0.24376667605398442,0.09639016107770548,0.5140703659421217,0.24980202480225477,0.12472418543805106,0.41209362341947947,0.24227246895648366,0.14069108686941442,0.055905846652134134,0.0527803829622422,-0.029307191142763825,0.0048170765489140115,0.004793872322435915,-0.04765847536835541
1.0,0.0,1.0,0.0,6.0,0.0,6.0,0.0,,,,right,0.8672630786895752,85.30305480957031,pt3,85.30305480957031,None,82.16108083724976,84.16140580177307,False,4.0,['p'],True,0.2448979591836734,0.2857142857142857,0.1428571428571428,1.0,1.0,0.8400769154957735,-0.0936183997408486,wait_cost,0.0,3.0,84.16140580177307,None,pt3,1,2023-03-30_11h44.39.847,threat_forest,2021.2.3,59.81787817376163,False,13.0,0.4761904761904761,0.4214285714285714,-1.2040816326530612,-1.2720408163265309,0,0,0,-0.1424129126007603,-0.0936183997408486,0.0,0.2448979591836734,0.2857142857142857,0.8571428571428572,-1.5714285714285712,-1.4081632653061225,2.591836734693877,2.591836734693877,1.0,1.0,-1.0,4.0,0,0,0,0.5500026379781999,0.24749973619522103,0.07049885249337606,0.4833517046091959,0.24972283426058053,0.10632268380002385,0.5031403613225257,0.24999013813076396,0.13918076050438977,0.451616575702195,0.2476590442532186,0.1312910021952649,0.40627775071393174,0.2412161399887601,0.13791301932156597,0.3367891383225276,0.22336221463049702,0.15267097469650026,0.40180569865784,0.24035787918392512,0.12254359726996492,0.41209362341947947,0.24227246895648366,0.14069108686941442,0.055905846652134134,0.0527803829622422,-0.029307191142763825,0.06299084617495837,0.059022999473121104,0.020033687325008806
1.0,0.0,1.0,0.0,7.0,0.0,7.0,0.0,,,,left,1.305716037750244,91.21852087974548,pt3,86.19698691368103,88.19914388656616,91.21852087974548,None,False,3.0,['p'],False,0.4444444444444445,0.6666666666666666,0.3333333333333333,1.0,1.0,0.9656336071428248,-0.3333333333333333,wait_cost,1.0,2.0,88.19914388656616,None,pt3,1,2023-03-30_11h44.39.847,threat_forest,2021.2.3,59.81787817376163,False,13.0,0.4761904761904761,0.4214285714285714,-1.2040816326530612,-1.2720408163265309,1,1,0,0.2667515782316949,-0.3333333333333333,0.0,0.4444444444444445,0.6666666666666666,0.6666666666666667,-1.0,-1.0,2.0,2.0,0.0,1.0,-1.0,3.0,0,1,1,0.37623846676259504,0.2346830828907267,0.17579837268806853,0.39275255251076774,0.23849798500704433,0.13421624491934003,0.5031403613225257,0.24999013813076396,0.13918076050438977,0.47739737117863684,0.24948912117036373,0.11402225284660306,0.4572768646981863,0.24817473370998291,0.11488107970982153,0.5789514024322276,0.24376667605398442,0.09639016107770548,0.5140703659421217,0.24980202480225477,0.12472418543805106,0.41209362341947947,0.24227246895648366,0.14069108686941442,0.055905846652134134,0.0527803829622422,-0.029307191142763825,0.00019761568966933097,0.0001975766377085276,-0.05339585694952738
2.0,0.0,2.0,0.0,0.0,0.0,0.0,0.0,96.30847883224487,99.8087649345398,None,right,1.356114149093628,102.975075006485,pt3,96.30847883224487,99.8087649345398,102.975075006485,None,True,5.0,['r'],False,0.4,0.4,0.0,0.0,2.0,0.6126016192893442,0.0501704926254868,unsucc_cost,1.0,3.0,,,pt3,1,2023-03-30_11h44.39.847,threat_forest,2021.2.3,59.81787817376163,True,33.0,0.4142857142857142,0.4452380952380952,-0.7306122448979593,-0.9673469387755104,1,0,1,0.3046233667227168,0.0501704926254868,0.4,0.4,0.4,1.0,-0.3999999999999999,-0.3999999999999999,4.6,4.6,0.0,2.0,-1.0,5.0,0,0,1,0.37623846676259504,0.2346830828907267,0.17579837268806853,0.5523663317852345,0.24725776729535873,0.11244833364213291,0.5031403613225257,0.24999013813076396,0.13918076050438977,0.45932993107470166,0.24834594549361147,0.12480934820766443,0.511787127451697,0.24986106362643745,0.10929957138252788,0.5789514024322276,0.24376667605398442,0.09639016107770548,0.48878287072476645,0.24987417601082268,0.12474084465510199,0.41209362341947947,0.24227246895648366,0.14069108686941442,0.6408729681830139,0.23015480683530756,0.24490460720863344,0.6893094882432573,0.21416191766107603,0.21368771500040862
2.0,0.0,2.0,0.0,1.0,0.0,1.0,0.0,,,,left,1.6169500350952148,107.01427292823792,pt3,96.30847883224487,99.8087649345398,107.01427292823792,None,False,3.0,['r'],False,0.4,0.4,0.0,0.0,2.0,0.6126016192893442,0.1347766176536976,wait_cost,1.0,2.0,106.36163783073424,None,pt3,1,2023-03-30_11h44.39.847,threat_forest,2021.2.3,59.81787817376163,False,33.0,0.4142857142857142,0.4452380952380952,-0.7306122448979593,-0.9673469387755104,1,0,0,0.4805416803619749,0.1347766176536976,0.4,0.4,0.4,1.0,-0.3999999999999999,-0.3999999999999999,2.6,2.6,0.0,2.0,-1.0,3.0,0,0,1,0.37623846676259504,0.2346830828907267,0.17579837268806853,0.5523663317852345,0.24725776729535873,0.11244833364213291,0.5031403613225257,0.24999013813076396,0.13918076050438977,0.45932993107470166,0.24834594549361147,0.12480934820766443,0.511787127451697,0.24986106362643745,0.10929957138252788,0.5789514024322276,0.24376667605398442,0.09639016107770548,0.48878287072476645,0.24987417601082268,0.12474084465510199,0.41209362341947947,0.24227246895648366,0.14069108686941442,0.6408729681830139,0.23015480683530756,0.24490460720863344,0.9455409727247492,0.051493241623484176,0.010634576179757424
2.0,0.0,2.0,0.0,2.0,0.0,2.0,0.0,,,,right,0.9042861461639404,111.43811798095705,pt3,96.30847883224487,99.8087649345398,111.43811798095705,None,True,2.0,['r'],False,0.4,0.4,0.0,0.0,2.0,0.6126016192893442,0.0439031270984029,succ_gain,1.0,4.0,110.67419290542604,None,pt3,1,2023-03-30_11h44.39.847,threat_forest,2021.2.3,59.81787817376163,True,33.0,0.4142857142857142,0.4452380952380952,-0.7306122448979593,-0.9673469387755104,1,0,1,-0.100609435308887,0.0439031270984029,0.4,0.4,0.4,1.0,-0.3999999999999999,-0.3999999999999999,1.6,1.6,0.0,2.0,-1.0,2.0,0,0,1,0.37623846676259504,0.2346830828907267,0.17579837268806853,0.5523663317852345,0.24725776729535873,0.11244833364213291,0.5031403613225257,0.24999013813076396,0.13918076050438977,0.45932993107470166,0.24834594549361147,0.12480934820766443,0.511787127451697,0.24986106362643745,0.10929957138252788,0.5789514024322276,0.24376667605398442,0.09639016107770548,0.48878287072476645,0.24987417601082268,0.12474084465510199,0.41209362341947947,0.24227246895648366,0.14069108686941442,0.6408729681830139,0.23015480683530756,0.24490460720863344,0.6557668141829165,0.22573669959930479,0.22813607630125787
2.0,0.0,2.0,0.0,3.0,0.0,3.0,0.0,,,,left,1.5442070960998535,115.12489295005798,pt3,115.12489295005798,None,112.3673129081726,114.37835502624512,True,4.0,['r'],True,0.3061224489795918,0.4285714285714285,0.2857142857142857,2.0,2.0,0.9885754083994552,-0.0176567392352312,figh_cost,0.0,1.0,114.37835502624512,None,pt3,1,2023-03-30_11h44.39.847,threat_forest,2021.2.3,59.81787817376163,True,33.0,0.4142857142857142,0.4452380952380952,-0.7306122448979593,-0.9673469387755104,0,0,1,0.4345105722063648,-0.0176567392352312,0.3061224489795918,0.3061224489795918,0.4285714285714285,0.7142857142857143,-1.1428571428571432,-1.0612244897959189,2.9387755102040813,2.9387755102040813,1.0,2.0,1.0,4.0,0,0,0,0.5500026379781999,0.24749973619522103,0.07049885249337606,0.4149663599981309,0.2427692800680325,0.12360214871624198,0.31323454365980463,0.21511866431803858,0.05698365040737874,0.46126146549489705,0.24849932594439697,0.12336203824228242,0.44439930997856486,0.24690856326914024,0.11907192089124063,0.3367891383225276,0.22336221463049702,0.15267097469650026,0.43571357532328586,0.24586725560228512,0.12381567433409785,0.41209362341947947,0.24227246895648366,0.14069108686941442,0.44518503062692316,0.2469953191326286,0.2709391789432366,0.2989085832902719,0.2095622421256745,0.20794611447982653
2.0,0.0,2.0,0.0,4.0,0.0,4.0,0.0,,,,right,0.649832010269165,121.22946882247923,pt3,116.69501686096191,118.70008301734924,121.22946882247923,None,True,1.0,['r'],False,0.4,0.4,0.0,0.0,2.0,0.6126016192893442,0.2124131611828403,unsucc_cost,1.0,0.0,118.70008301734924,None,pt3,1,2023-03-30_11h44.39.847,threat_forest,2021.2.3,59.81787817376163,True,33.0,0.4142857142857142,0.4452380952380952,-0.7306122448979593,-0.9673469387755104,1,0,1,-0.4310413952350559,0.2124131611828403,1.0,0.4,0.4,1.0,-0.3999999999999999,-0.3999999999999999,0.6000000000000001,0.6000000000000001,0.0,2.0,-1.0,1.0,1,0,1,0.37623846676259504,0.2346830828907267,0.17579837268806853,0.5523663317852345,0.24725776729535873,0.11244833364213291,0.5031403613225257,0.24999013813076396,0.13918076050438977,0.45932993107470166,0.24834594549361147,0.12480934820766443,0.511787127451697,0.24986106362643745,0.10929957138252788,0.5789514024322276,0.24376667605398442,0.09639016107770548,0.48878287072476645,0.24987417601082268,0.12474084465510199,0.9473908175561647,0.049841456366426416,-0.042118785231625634,0.996624138356547,0.0033644652016173084,-0.10570167564873077,0.9913562789405078,0.008569007145737967,-0.04294611774662447
3.0,0.0,3.0,0.0,0.0,0.0,0.0,0.0,125.26094198226927,128.76130986213684,None,right,0.8738958835601807,131.75351190567017,pt3,125.26094198226927,128.76130986213684,131.75351190567017,None,True,4.0,['p'],False,0.4444444444444445,0.6666666666666666,0.3333333333333333,1.0,2.0,0.9656336071428248,0.0696585132666405,succ_gain,1.0,6.0,,,pt3,1,2023-03-30_11h44.39.847,threat_forest,2021.2.3,59.81787817376163,True,29.0,0.4761904761904761,0.4452380952380952,-0.8594104308390023,-0.7950113378684808,1,0,1,-0.1347940367840595,0.0696585132666405,0.4444444444444445,0.4444444444444445,0.6666666666666666,0.6666666666666667,-0.3333333333333335,-0.5555555555555556,3.4444444444444446,3.4444444444444446,0.0,2.0,-1.0,4.0,0,0,1,0.37623846676259504,0.2346830828907267,0.17579837268806853,0.39275255251076774,0.23849798500704433,0.13421624491934003,0.5031403613225257,0.24999013813076396,0.13918076050438977,0.47739737117863684,0.24948912117036373,0.11402225284660306,0.517850264558588,0.2496813680551884,0.10989433775506141,0.5789514024322276,0.24376667605398442,0.09639016107770548,0.5140703659421217,0.24980202480225477,0.12472418543805106,0.41209362341947947,0.24227246895648366,0.14069108686941442,0.7226345201318027,0.200433870445682,0.19895755780810104,0.7808787088474397,0.17110715091619527,0.15994408259561355
3.0,0.0,3.0,0.0,1.0,0.0,1.0,0.0,,,,right,1.2506568431854248,137.6055920124054,pt3,137.6055920124054,None,132.65363693237305,134.66796588897705,False,6.0,['p'],True,0.2448979591836734,0.2857142857142857,0.1428571428571428,1.0,2.0,0.8400769154957735,-0.0717249489552175,wait_cost,0.0,5.0,134.66796588897705,None,pt3,1,2023-03-30_11h44.39.847,threat_forest,2021.2.3,59.81787817376163,False,29.0,0.4761904761904761,0.4452380952380952,-0.8594104308390023,-0.7950113378684808,0,0,0,0.2236688878491453,-0.0717249489552175,0.2448979591836734,0.2448979591836734,0.2857142857142857,0.8571428571428572,-1.2857142857142856,-1.163265306122449,4.836734693877551,4.836734693877551,1.0,2.0,1.0,6.0,0,0,0,0.5500026379781999,0.24749973619522103,0.07049885249337606,0.4833517046091959,0.24972283426058053,0.10632268380002385,0.31323454365980463,0.21511866431803858,0.05698365040737874,0.451616575702195,0.2476590442532186,0.1312910021952649,0.431596010877453,0.24532089427212242,0.12432687583295932,0.3367891383225276,0.22336221463049702,0.15267097469650026,0.40180569865784,0.24035787918392512,0.12254359726996492,0.41209362341947947,0.24227246895648366,0.14069108686941442,0.32269214933447665,0.21856192609237246,0.2269826057882458,0.10272488979609774,0.09217248681247733,0.061412935121899936
3.0,0.0,3.0,0.0,2.0,0.0,2.0,0.0,,,,right,1.419502019882202,141.673565864563,pt3,141.673565864563,None,132.65363693237305,134.66796588897705,False,5.0,['p'],True,0.2448979591836734,0.2857142857142857,0.1428571428571428,1.0,2.0,0.8400769154957735,-0.0053927091035934,wait_cost,0.0,4.0,140.87484002113342,None,pt3,1,2023-03-30_11h44.39.847,threat_forest,2021.2.3,59.81787817376163,False,29.0,0.4761904761904761,0.4452380952380952,-0.8594104308390023,-0.7950113378684808,0,0,0,0.3503061198831712,-0.0053927091035934,0.2448979591836734,0.2448979591836734,0.2857142857142857,0.8571428571428572,-1.2857142857142856,-1.163265306122449,3.836734693877551,3.836734693877551,1.0,2.0,-1.0,5.0,0,0,0,0.5500026379781999,0.24749973619522103,0.07049885249337606,0.4833517046091959,0.24972283426058053,0.10632268380002385,0.5031403613225257,0.24999013813076396,0.13918076050438977,0.451616575702195,0.2476590442532186,0.1312910021952649,0.431596010877453,0.24532089427212242,0.12432687583295932,0.3367891383225276,0.22336221463049702,0.15267097469650026,0.40180569865784,0.24035787918392512,0.12254359726996492,0.41209362341947947,0.24227246895648366,0.14069108686941442,0.32269214933447665,0.21856192609237246,0.2269826057882458,0.36487452062327475,0.23174110482321023,0.23563114761531567
3.0,0.0,3.0,0.0,3.0,0.0,3.0,0.0,,,,right,0.9448039531707764,147.98520398139954,pt3,143.11510300636292,145.113538980484,147.98520398139954,None,True,4.0,['p'],False,0.4444444444444445,0.6666666666666666,0.3333333333333333,1.0,2.0,0.9656336071428248,0.0997659825764223,succ_gain,1.0,6.0,145.113538980484,None,pt3,1,2023-03-30_11h44.39.847,threat_forest,2021.2.3,59.81787817376163,True,29.0,0.4761904761904761,0.4452380952380952,-0.8594104308390023,-0.7950113378684808,1,0,1,-0.0567778299727079,0.0997659825764223,0.4444444444444445,0.4444444444444445,0.6666666666666666,0.6666666666666667,-0.3333333333333335,-0.5555555555555556,3.4444444444444446,3.4444444444444446,0.0,2.0,-1.0,4.0,0,0,1,0.37623846676259504,0.2346830828907267,0.17579837268806853,0.39275255251076774,0.23849798500704433,0.13421624491934003,0.5031403613225257,0.24999013813076396,0.13918076050438977,0.47739737117863684,0.24948912117036373,0.11402225284660306,0.517850264558588,0.2496813680551884,0.10989433775506141,0.5789514024322276,0.24376667605398442,0.09639016107770548,0.5140703659421217,0.24980202480225477,0.12472418543805106,0.41209362341947947,0.24227246895648366,0.14069108686941442,0.7226345201318027,0.200433870445682,0.19895755780810104,0.8811048861521213,0.10475906575097865,0.07712428424412414
3.0,0.0,3.0,0.0,4.0,0.0,4.0,0.0,,,,right,0.6448078155517578,154.34190392494202,pt3,154.34190392494202,None,148.95434379577637,150.95403480529785,False,6.0,['p'],True,0.2448979591836734,0.2857142857142857,0.1428571428571428,1.0,2.0,0.8400769154957735,-0.0730743436560456,wait_cost,0.0,5.0,150.95403480529785,None,pt3,1,2023-03-30_11h44.39.847,threat_forest,2021.2.3,59.81787817376163,False,29.0,0.4761904761904761,0.4452380952380952,-0.8594104308390023,-0.7950113378684808,0,0,0,-0.4388029669702513,-0.0730743436560456,0.0,0.2448979591836734,0.2857142857142857,0.8571428571428572,-1.2857142857142856,-1.163265306122449,4.836734693877551,4.836734693877551,1.0,2.0,1.0,6.0,0,0,0,0.5500026379781999,0.24749973619522103,0.07049885249337606,0.4833517046091959,0.24972283426058053,0.10632268380002385,0.31323454365980463,0.21511866431803858,0.05698365040737874,0.451616575702195,0.2476590442532186,0.1312910021952649,0.431596010877453,0.24532089427212242,0.12432687583295932,0.3367891383225276,0.22336221463049702,0.15267097469650026,0.40180569865784,0.24035787918392512,0.12254359726996492,0.41209362341947947,0.24227246895648366,0.14069108686941442,0.055905846652134134,0.0527803829622422,-0.029307191142763825,0.09973952719832,0.0897915539125756,0.05844090688374867
3.0,0.0,3.0,0.0,5.0,0.0,5.0,0.0,,,,left,1.762052059173584,160.21927285194397,pt3,155.01062202453613,157.0100438594818,160.21927285194397,None,False,5.0,['p'],False,0.4444444444444445,0.6666666666666666,0.3333333333333333,1.0,2.0,0.9656336071428248,-0.2018140589569161,wait_cost,1.0,4.0,157.0100438594818,None,pt3,1,2023-03-30_11h44.39.847,threat_forest,2021.2.3,59.81787817376163,False,29.0,0.4761904761904761,0.4452380952380952,-0.8594104308390023,-0.7950113378684808,1,0,0,0.5664790725789945,-0.2018140589569161,0.0,0.4444444444444445,0.6666666666666666,0.6666666666666667,-0.3333333333333335,-0.5555555555555556,4.444444444444445,4.444444444444445,0.0,2.0,-1.0,5.0,0,0,1,0.37623846676259504,0.2346830828907267,0.17579837268806853,0.39275255251076774,0.23849798500704433,0.13421624491934003,0.5031403613225257,0.24999013813076396,0.13918076050438977,0.47739737117863684,0.24948912117036373,0.11402225284660306,0.517850264558588,0.2496813680551884,0.10989433775506141,0.5789514024322276,0.24376667605398442,0.09639016107770548,0.5140703659421217,0.24980202480225477,0.12472418543805106,0.41209362341947947,0.24227246895648366,0.14069108686941442,0.055905846652134134,0.0527803829622422,-0.029307191142763825,0.0048170765489140115,0.004793872322435915,-0.04765847536835541
3.0,0.0,3.0,0.0,6.0,0.0,6.0,0.0,,,,right,1.289630889892578,164.72071981430054,pt3,164.72071981430054,None,162.00560998916626,164.01786994934082,False,4.0,['p'],True,0.2448979591836734,0.2857142857142857,0.1428571428571428,1.0,2.0,0.8400769154957735,-0.0936183997408486,wait_cost,0.0,3.0,164.01786994934082,None,pt3,1,2023-03-30_11h44.39.847,threat_forest,2021.2.3,59.81787817376163,False,29.0,0.4761904761904761,0.4452380952380952,-0.8594104308390023,-0.7950113378684808,0,0,0,0.2543560455638293,-0.0936183997408486,0.0,0.2448979591836734,0.2857142857142857,0.8571428571428572,-1.2857142857142856,-1.163265306122449,2.836734693877551,2.836734693877551,1.0,2.0,-1.0,4.0,0,0,0,0.5500026379781999,0.24749973619522103,0.07049885249337606,0.4833517046091959,0.24972283426058053,0.10632268380002385,0.5031403613225257,0.24999013813076396,0.13918076050438977,0.451616575702195,0.2476590442532186,0.1312910021952649,0.431596010877453,0.24532089427212242,0.12432687583295932,0.3367891383225276,0.22336221463049702,0.15267097469650026,0.40180569865784,0.24035787918392512,0.12254359726996492,0.41209362341947947,0.24227246895648366,0.14069108686941442,0.055905846652134134,0.0527803829622422,-0.029307191142763825,0.06299084617495837,0.059022999473121104,0.020033687325008806
3.0,0.0,3.0,0.0,7.0,0.0,7.0,0.0,,,,right,0.6552538871765137,170.34200191497803,pt3,170.34200191497803,None,162.00560998916626,164.01786994934082,False,3.0,['p'],True,0.2448979591836734,0.2857142857142857,0.1428571428571428,1.0,2.0,0.8400769154957735,-0.1428571428571428,wait_cost,0.0,2.0,168.03865480422974,None,pt3,1,2023-03-30_11h44.39.847,threat_forest,2021.2.3,59.81787817376163,False,29.0,0.4761904761904761,0.4452380952380952,-0.8594104308390023,-0.7950113378684808,0,0,0,-0.4227325044398443,-0.1428571428571428,0.0,0.2448979591836734,0.2857142857142857,0.8571428571428572,-1.2857142857142856,-1.163265306122449,1.836734693877551,1.836734693877551,1.0,2.0,-1.0,3.0,0,0,0,0.5500026379781999,0.24749973619522103,0.07049885249337606,0.4833517046091959,0.24972283426058053,0.10632268380002385,0.5031403613225257,0.24999013813076396,0.13918076050438977,0.451616575702195,0.2476590442532186,0.1312910021952649,0.431596010877453,0.24532089427212242,0.12432687583295932,0.3367891383225276,0.22336221463049702,0.15267097469650026,0.40180569865784,0.24035787918392512,0.12254359726996492,0.41209362341947947,0.24227246895648366,0.14069108686941442,0.055905846652134134,0.0527803829622422,-0.029307191142763825,0.01989735876350687,0.01950145387774317,-0.02929955912208494
4.0,0.0,4.0,0.0,0.0,0.0,0.0,0.0,175.0575728416443,178.56701493263245,None,right,0.9510340690612792,181.2289538383484,pt3,175.0575728416443,178.56701493263245,181.2289538383484,None,True,5.0,['p'],False,0.32,0.4,0.2,1.0,2.0,0.9455672104350704,0.02103847866381,succ_gain,1.0,6.0,,,pt3,1,2023-03-30_11h44.39.847,threat_forest,2021.2.3,59.81787817376163,True,12.0,0.3111111111111111,0.3936507936507936,-1.1204938271604938,-0.989952128999748,1,0,1,-0.0502053926186175,0.02103847866381,0.32,0.32,0.4,0.8,-1.0,-0.92,4.08,4.08,0.0,2.0,-1.0,5.0,0,0,1,0.37623846676259504,0.2346830828907267,0.17579837268806853,0.4557760059900018,0.2480442383538036,0.11049396632353448,0.5031403613225257,0.24999013813076396,0.13918076050438977,0.45932993107470166,0.24834594549361147,0.12480934820766443,0.4572768646981863,0.24817473370998291,0.11488107970982153,0.5789514024322276,0.24376667605398442,0.09639016107770548,0.44349581635385765,0.24680727723048299,0.12403271885279046,0.41209362341947947,0.24227246895648366,0.14069108686941442,0.47452524754548797,0.24935103698738126,0.2745809984077074,0.5221038927964392,0.24951141792324355,0.2578131554897367
4.0,0.0,4.0,0.0,1.0,0.0,1.0,0.0,,,,right,0.7952010631561279,186.31616687774653,pt3,186.31616687774653,None,182.2090167999268,184.22357082366943,False,6.0,['p'],True,0.1975308641975308,0.2222222222222222,0.1111111111111111,1.0,2.0,0.7461067557824965,-0.0857974019845032,wait_cost,0.0,5.0,184.22357082366943,None,pt3,1,2023-03-30_11h44.39.847,threat_forest,2021.2.3,59.81787817376163,False,12.0,0.3111111111111111,0.3936507936507936,-1.1204938271604938,-0.989952128999748,0,0,0,-0.2291602866737048,-0.0857974019845032,0.1975308641975308,0.1975308641975308,0.2222222222222222,0.8888888888888888,-1.4444444444444444,-1.3209876543209875,4.679012345679013,4.679012345679013,1.0,2.0,1.0,6.0,0,0,0,0.5500026379781999,0.24749973619522103,0.07049885249337606,0.49872633334163957,0.24999837777324344,0.10563796281732807,0.31323454365980463,0.21511866431803858,0.05698365040737874,0.44734116157032655,0.24722704673523757,0.13536736466252997,0.4174772804329664,0.24319000075526073,0.13137982543249305,0.3367891383225276,0.22336221463049702,0.15267097469650026,0.37618509129617816,0.23466986838266424,0.12123027475732778,0.41209362341947947,0.24227246895648366,0.14069108686941442,0.24145411463960684,0.18315402516321042,0.17224379972124548,0.07519376253156876,0.0695396606079148,0.03316123655790183
4.0,0.0,4.0,0.0,2.0,0.0,2.0,0.0,,,,left,2.308977127075196,192.53494691848755,pt3,187.13413190841675,189.14603400230408,192.53494691848755,None,False,5.0,['p'],False,0.32,0.4,0.2,1.0,2.0,0.9455672104350704,0.0588641611795491,wait_cost,1.0,4.0,189.14603400230408,None,pt3,1,2023-03-30_11h44.39.847,threat_forest,2021.2.3,59.81787817376163,False,12.0,0.3111111111111111,0.3936507936507936,-1.1204938271604938,-0.989952128999748,1,0,0,0.836804624335938,0.0588641611795491,0.32,0.32,0.4,0.8,-1.0,-0.92,4.08,4.08,0.0,2.0,-1.0,5.0,0,0,1,0.37623846676259504,0.2346830828907267,0.17579837268806853,0.4557760059900018,0.2480442383538036,0.11049396632353448,0.5031403613225257,0.24999013813076396,0.13918076050438977,0.45932993107470166,0.24834594549361147,0.12480934820766443,0.4572768646981863,0.24817473370998291,0.11488107970982153,0.5789514024322276,0.24376667605398442,0.09639016107770548,0.44349581635385765,0.24680727723048299,0.12403271885279046,0.41209362341947947,0.24227246895648366,0.14069108686941442,0.47452524754548797,0.24935103698738126,0.2745809984077074,0.7326877137687987,0.19585642786104956,0.1908376663488427
4.0,0.0,4.0,0.0,3.0,0.0,3.0,0.0,,,,left,1.917054891586304,198.4882459640503,pt3,187.13413190841675,189.14603400230408,198.4882459640503,None,False,4.0,['p'],False,0.32,0.4,0.2,1.0,2.0,0.9455672104350704,0.0698200591614121,wait_cost,1.0,3.0,196.87171602249143,None,pt3,1,2023-03-30_11h44.39.847,threat_forest,2021.2.3,59.81787817376163,False,12.0,0.3111111111111111,0.3936507936507936,-1.1204938271604938,-0.989952128999748,1,0,0,0.6507900977622206,0.0698200591614121,0.32,0.32,0.4,0.8,-1.0,-0.92,3.08,3.08,0.0,2.0,-1.0,4.0,0,0,1,0.37623846676259504,0.2346830828907267,0.17579837268806853,0.4557760059900018,0.2480442383538036,0.11049396632353448,0.5031403613225257,0.24999013813076396,0.13918076050438977,0.45932993107470166,0.24834594549361147,0.12480934820766443,0.4572768646981863,0.24817473370998291,0.11488107970982153,0.5789514024322276,0.24376667605398442,0.09639016107770548,0.44349581635385765,0.24680727723048299,0.12403271885279046,0.41209362341947947,0.24227246895648366,0.14069108686941442,0.47452524754548797,0.24935103698738126,0.2745809984077074,0.7815501451154636,0.17072951578546144,0.15947269498435196
4.0,0.0,4.0,0.0,4.0,0.0,4.0,0.0,,,,right,2.4977259635925293,205.882994890213,pt3,205.882994890213,None,200.4328498840332,202.44412684440613,False,3.0,['p'],True,0.1975308641975308,0.2222222222222222,0.1111111111111111,1.0,2.0,0.7461067557824965,0.0870477061423563,wait_cost,0.0,2.0,202.44412684440613,None,pt3,1,2023-03-30_11h44.39.847,threat_forest,2021.2.3,59.81787817376163,False,12.0,0.3111111111111111,0.3936507936507936,-1.1204938271604938,-0.989952128999748,0,0,0,0.9153807033607976,0.0870477061423563,0.1975308641975308,0.1975308641975308,0.2222222222222222,0.8888888888888888,-1.4444444444444444,-1.3209876543209875,1.6790123456790125,1.6790123456790125,1.0,2.0,-1.0,3.0,0,0,0,0.5500026379781999,0.24749973619522103,0.07049885249337606,0.49872633334163957,0.24999837777324344,0.10563796281732807,0.5031403613225257,0.24999013813076396,0.13918076050438977,0.44734116157032655,0.24722704673523757,0.13536736466252997,0.4174772804329664,0.24319000075526073,0.13137982543249305,0.3367891383225276,0.22336221463049702,0.15267097469650026,0.37618509129617816,0.23466986838266424,0.12123027475732778,0.41209362341947947,0.24227246895648366,0.14069108686941442,0.24145411463960684,0.18315402516321042,0.17224379972124548,0.8447045335193721,0.1311787845711921,0.11010301723610864
4.0,0.0,4.0,0.0,5.0,0.0,5.0,0.0,,,,right,0.7221360206604004,213.5906479358673,pt3,208.40720391273496,210.41986083984375,213.5906479358673,None,True,2.0,['p'],False,0.32,0.4,0.2,1.0,2.0,0.9455672104350704,0.0612345679012346,figh_cost,1.0,0.0,210.4198608398437,None,pt3,1,2023-03-30_11h44.39.847,threat_forest,2021.2.3,59.81787817376163,True,12.0,0.3111111111111111,0.3936507936507936,-1.1204938271604938,-0.989952128999748,1,0,1,-0.3255417635667996,0.0612345679012346,0.32,0.32,0.4,0.8,-1.0,-0.92,1.08,1.08,0.0,2.0,-1.0,2.0,0,0,1,0.37623846676259504,0.2346830828907267,0.17579837268806853,0.4557760059900018,0.2480442383538036,0.11049396632353448,0.5031403613225257,0.24999013813076396,0.13918076050438977,0.45932993107470166,0.24834594549361147,0.12480934820766443,0.4572768646981863,0.24817473370998291,0.11488107970982153,0.5789514024322276,0.24376667605398442,0.09639016107770548,0.44349581635385765,0.24680727723048299,0.12403271885279046,0.41209362341947947,0.24227246895648366,0.14069108686941442,0.47452524754548797,0.24935103698738126,0.2745809984077074,0.7438249112960936,0.1905494126314521,0.18421312051501704
5.0,0.0,5.0,0.0,0.0,0.0,0.0,0.0,219.1020150184632,222.6168298721313,None,right,1.4861059188842771,223.74379587173465,pt3,219.1020150184632,222.61682987213135,223.74379587173465,None,True,5.0,['p'],False,0.4444444444444445,0.6666666666666666,0.3333333333333333,1.0,1.0,0.9656336071428248,0.0468159241685405,unsucc_cost,1.0,3.0,,,pt3,1,2023-03-30_11h44.39.847,threat_forest,2021.2.3,59.81787817376163,True,23.0,0.4333333333333333,0.3722222222222222,-1.3600000000000003,-1.240246913580247,1,1,1,0.3961592216048684,0.0468159241685405,0.4444444444444445,0.4444444444444445,0.6666666666666666,0.6666666666666667,-1.0,-1.0,4.0,4.0,0.0,1.0,-1.0,5.0,0,1,1,0.37623846676259504,0.2346830828907267,0.17579837268806853,0.39275255251076774,0.23849798500704433,0.13421624491934003,0.5031403613225257,0.24999013813076396,0.13918076050438977,0.47739737117863684,0.24948912117036373,0.11402225284660306,0.4572768646981863,0.24817473370998291,0.11488107970982153,0.5789514024322276,0.24376667605398442,0.09639016107770548,0.5140703659421217,0.24980202480225477,0.12472418543805106,0.41209362341947947,0.24227246895648366,0.14069108686941442,0.7226345201318027,0.200433870445682,0.19895755780810104,0.6715752027664312,0.220561949795658,0.22167663238226265
5.0,0.0,5.0,0.0,1.0,0.0,1.0,0.0,,,,right,0.7124309539794922,228.39055180549624,pt3,219.1020150184632,222.61682987213135,228.39055180549624,None,True,3.0,['p'],False,0.4444444444444445,0.6666666666666666,0.3333333333333333,1.0,1.0,0.9656336071428248,0.0515660479037183,succ_gain,1.0,4.0,227.27170085906985,None,pt3,1,2023-03-30_11h44.39.847,threat_forest,2021.2.3,59.81787817376163,True,23.0,0.4333333333333333,0.3722222222222222,-1.3600000000000003,-1.240246913580247,1,1,1,-0.3390722782305382,0.0515660479037183,0.4444444444444445,0.4444444444444445,0.6666666666666666,0.6666666666666667,-1.0,-1.0,2.0,2.0,0.0,1.0,-1.0,3.0,0,1,1,0.37623846676259504,0.2346830828907267,0.17579837268806853,0.39275255251076774,0.23849798500704433,0.13421624491934003,0.5031403613225257,0.24999013813076396,0.13918076050438977,0.47739737117863684,0.24948912117036373,0.11402225284660306,0.4572768646981863,0.24817473370998291,0.11488107970982153,0.5789514024322276,0.24376667605398442,0.09639016107770548,0.5140703659421217,0.24980202480225477,0.12472418543805106,0.41209362341947947,0.24227246895648366,0.14069108686941442,0.7226345201318027,0.200433870445682,0.19895755780810104,0.6965303142881354,0.21137583556580672,0.21020995438762957
5.0,0.0,5.0,0.0,2.0,0.0,2.0,0.0,,,,right,0.8683469295501709,234.01654601097107,pt3,234.01654601097107,None,229.13821387290955,231.14340496063232,False,4.0,['p'],True,0.16,0.2,0.2,2.0,1.0,0.8198746470064713,-0.0089819439719553,wait_cost,0.0,3.0,231.14340496063232,None,pt3,1,2023-03-30_11h44.39.847,threat_forest,2021.2.3,59.81787817376163,False,23.0,0.4333333333333333,0.3722222222222222,-1.3600000000000003,-1.240246913580247,0,0,0,-0.1411639557540711,-0.0089819439719553,0.16,0.16,0.2,0.8,-2.0,-1.7200000000000004,2.28,2.28,1.0,1.0,1.0,4.0,0,0,0,0.5500026379781999,0.24749973619522103,0.07049885249337606,0.4557760059900018,0.2480442383538036,0.11049396632353448,0.31323454365980463,0.21511866431803858,0.05698365040737874,0.4458465713919433,0.24706740616999207,0.13687374555902476,0.3692529958465916,0.2329052209049086,0.16542096045535648,0.3367891383225276,0.22336221463049702,0.15267097469650026,0.3563579910196023,0.22936697325607533,0.12000587280113616,0.41209362341947947,0.24227246895648366,0.14069108686941442,0.18781478407597826,0.15254039095847194,0.12491668510092889,0.3448961205323775,0.22594278657409328,0.2283933268556989
5.0,0.0,5.0,0.0,3.0,0.0,3.0,0.0,,,,right,1.0815708637237549,237.9529869556427,pt3,237.9529869556427,None,229.13821387290955,231.14340496063232,False,3.0,['p'],True,0.16,0.2,0.2,2.0,1.0,0.8198746470064713,-0.0019314128943759,wait_cost,0.0,2.0,236.9264550209045,None,pt3,1,2023-03-30_11h44.39.847,threat_forest,2021.2.3,59.81787817376163,False,23.0,0.4333333333333333,0.3722222222222222,-1.3600000000000003,-1.240246913580247,0,0,0,0.0784144878184981,-0.0019314128943759,0.16,0.16,0.2,0.8,-2.0,-1.7200000000000004,1.2799999999999996,1.2799999999999996,1.0,1.0,-1.0,3.0,0,0,0,0.5500026379781999,0.24749973619522103,0.07049885249337606,0.4557760059900018,0.2480442383538036,0.11049396632353448,0.5031403613225257,0.24999013813076396,0.13918076050438977,0.4458465713919433,0.24706740616999207,0.13687374555902476,0.3692529958465916,0.2329052209049086,0.16542096045535648,0.3367891383225276,0.22336221463049702,0.15267097469650026,0.3563579910196023,0.22936697325607533,0.12000587280113616,0.41209362341947947,0.24227246895648366,0.14069108686941442,0.18781478407597826,0.15254039095847194,0.12491668510092889,0.38459287100389183,0.23668119457687567,0.24179767429378757
5.0,0.0,5.0,0.0,4.0,0.0,4.0,0.0,,,,right,0.9114959239959716,243.42937898635864,pt3,239.0534420013428,241.05397391319275,243.42937898635864,None,True,2.0,['p'],False,0.4444444444444445,0.6666666666666666,0.3333333333333333,1.0,1.0,0.9656336071428248,0.0838233196159121,figh_cost,1.0,0.0,241.05397391319275,None,pt3,1,2023-03-30_11h44.39.847,threat_forest,2021.2.3,59.81787817376163,True,23.0,0.4333333333333333,0.3722222222222222,-1.3600000000000003,-1.240246913580247,1,1,1,-0.0926681566277,0.0838233196159121,0.4444444444444445,0.4444444444444445,0.6666666666666666,0.6666666666666667,-1.0,-1.0,1.0,1.0,0.0,1.0,-1.0,2.0,0,1,1,0.37623846676259504,0.2346830828907267,0.17579837268806853,0.39275255251076774,0.23849798500704433,0.13421624491934003,0.5031403613225257,0.24999013813076396,0.13918076050438977,0.47739737117863684,0.24948912117036373,0.11402225284660306,0.4572768646981863,0.24817473370998291,0.11488107970982153,0.5789514024322276,0.24376667605398442,0.09639016107770548,0.5140703659421217,0.24980202480225477,0.12472418543805106,0.41209362341947947,0.24227246895648366,0.14069108686941442,0.7226345201318027,0.200433870445682,0.19895755780810104,0.8341387435322437,0.1383513000706934,0.1190561963046894
6.0,0.0,6.0,0.0,0.0,0.0,0.0,0.0,249.06300592422485,252.56688594818115,None,left,2.4373459815979004,254.34650301933289,pt3,254.34650301933289,None,249.06300592422485,252.56688594818115,True,4.0,['r'],True,0.3333333333333333,0.5,0.3333333333333333,2.0,1.0,1.0,0.0143529277549154,unsucc_cost,0.0,2.0,,,pt3,1,2023-03-30_11h44.39.847,threat_forest,2021.2.3,59.81787817376163,True,7.0,0.45,0.4416666666666666,-1.0666666666666669,-1.2133333333333334,0,0,1,0.8909097348567214,0.0143529277549154,0.3333333333333333,0.3333333333333333,0.5,0.6666666666666667,-1.5,-1.3333333333333337,2.6666666666666665,2.6666666666666665,1.0,1.0,-1.0,4.0,0,0,0,0.5500026379781999,0.24749973619522103,0.07049885249337606,0.39275255251076774,0.23849798500704433,0.13421624491934003,0.5031403613225257,0.24999013813076396,0.13918076050438977,0.46609526795551814,0.24885046914499187,0.12004862345640577,0.41256628326574984,0.24235534517803492,0.1341424147747391,0.3367891383225276,0.22336221463049702,0.15267097469650026,0.450999131968098,0.24759891493212008,0.12421550254497013,0.41209362341947947,0.24227246895648366,0.14069108686941442,0.5028840717560286,0.24999168213010606,0.27557140307178324,0.481482690951439,0.24965710926560009,0.2579950164668166
6.0,0.0,6.0,0.0,1.0,0.0,1.0,0.0,,,,right,1.0567500591278076,262.24345898628235,pt3,262.24345898628235,None,249.06300592422485,252.56688594818115,False,2.0,['r'],True,0.3333333333333333,0.5,0.3333333333333333,2.0,1.0,1.0,0.0118452194787379,wait_cost,0.0,1.0,258.84122490882874,None,pt3,1,2023-03-30_11h44.39.847,threat_forest,2021.2.3,59.81787817376163,False,7.0,0.45,0.4416666666666666,-1.0666666666666669,-1.2133333333333334,0,0,0,0.0551982164172637,0.0118452194787379,0.3333333333333333,0.3333333333333333,0.5,0.6666666666666667,-1.5,-1.3333333333333337,0.6666666666666665,0.6666666666666665,1.0,1.0,-1.0,2.0,0,0,0,0.5500026379781999,0.24749973619522103,0.07049885249337606,0.39275255251076774,0.23849798500704433,0.13421624491934003,0.5031403613225257,0.24999013813076396,0.13918076050438977,0.46609526795551814,0.24885046914499187,0.12004862345640577,0.41256628326574984,0.24235534517803492,0.1341424147747391,0.3367891383225276,0.22336221463049702,0.15267097469650026,0.450999131968098,0.24759891493212008,0.12421550254497013,0.41209362341947947,0.24227246895648366,0.14069108686941442,0.5028840717560286,0.24999168213010606,0.27557140307178324,0.46628013467922214,0.24886297068274868,0.25700372339285504
6.0,0.0,6.0,0.0,2.0,0.0,2.0,0.0,,,,right,0.7466268539428711,265.9538719654083,pt3,263.3297829627991,265.3318839073181,265.9538719654083,None,True,1.0,['r'],False,0.4,0.4,0.0,0.0,1.0,0.6126016192893442,0.0636288888888888,unsucc_cost,1.0,0.0,265.3318839073181,None,pt3,1,2023-03-30_11h44.39.847,threat_forest,2021.2.3,59.81787817376163,True,7.0,0.45,0.4416666666666666,-1.0666666666666669,-1.2133333333333334,1,0,1,-0.2921897448349818,0.0636288888888888,1.0,0.4,0.4,1.0,-0.7999999999999999,-0.7999999999999999,0.2,0.2,0.0,1.0,-1.0,1.0,1,0,1,0.37623846676259504,0.2346830828907267,0.17579837268806853,0.5523663317852345,0.24725776729535873,0.11244833364213291,0.5031403613225257,0.24999013813076396,0.13918076050438977,0.45932993107470166,0.24834594549361147,0.12480934820766443,0.47539794172077515,0.24939473872842569,0.11084303940505424,0.5789514024322276,0.24376667605398442,0.09639016107770548,0.48878287072476645,0.24987417601082268,0.12474084465510199,0.9473908175561647,0.049841456366426416,-0.042118785231625634,0.996624138356547,0.0033644652016173084,-0.10570167564873077,0.7547611289758094,0.18509676716297102,0.17740678997725928
7.0,0.0,7.0,0.0,0.0,0.0,0.0,0.0,272.1117949485779,275.6262919902801,None,left,2.049962043762207,276.2035279273987,pt3,276.2035279273987,None,272.1117949485779,275.62629199028015,True,5.0,['p'],True,0.375,0.5,0.25,1.0,1.0,0.9850568223215076,0.0395346585071088,figh_cost,0.0,2.0,,,pt3,1,2023-03-30_11h44.39.847,threat_forest,2021.2.3,59.81787817376163,True,50.0,0.35,0.4,-1.2625000000000002,-1.1645833333333333,1,0,1,0.7178212777409599,0.0395346585071088,0.375,0.375,0.5,0.75,-1.25,-1.125,3.875,3.875,1.0,1.0,-1.0,5.0,0,0,1,0.5500026379781999,0.24749973619522103,0.07049885249337606,0.4318619711432832,0.24535720902352118,0.11717118890004397,0.5031403613225257,0.24999013813076396,0.13918076050438977,0.46609526795551814,0.24885046914499187,0.12004862345640577,0.43478896366328695,0.24574752073989195,0.12291480387760556,0.5789514024322276,0.24376667605398442,0.09639016107770548,0.4745755697947913,0.24935359834874046,0.12462064685888172,0.41209362341947947,0.24227246895648366,0.14069108686941442,0.5905641629751154,0.24179813238461675,0.262904593722764,0.631406490150434,0.2327323343463439,0.23686846183503357
7.0,0.0,7.0,0.0,1.0,0.0,1.0,0.0,,,,left,0.9316158294677734,282.68840885162354,pt3,278.288614988327,280.2985198497772,282.68840885162354,None,False,2.0,['p'],False,0.2,0.2,0.0,0.0,1.0,0.4554859150035951,-0.0051644691467286,wait_cost,1.0,1.0,280.2985198497772,None,pt3,1,2023-03-30_11h44.39.847,threat_forest,2021.2.3,59.81787817376163,False,50.0,0.35,0.4,-1.2625000000000002,-1.1645833333333333,0,0,0,-0.070834749416251,-0.0051644691467286,0.2,0.2,0.2,1.0,-1.4,-1.4,0.5999999999999999,0.5999999999999999,0.0,1.0,-1.0,2.0,0,0,0,0.37623846676259504,0.2346830828907267,0.17579837268806853,0.5523663317852345,0.24725776729535873,0.11244833364213291,0.5031403613225257,0.24999013813076396,0.13918076050438977,0.4458465713919433,0.24706740616999207,0.13687374555902476,0.4214179470634546,0.24382486095627803,0.1292785299125182,0.3367891383225276,0.22336221463049702,0.15267097469650026,0.3775050123704315,0.23499497800563185,0.12130534032978128,0.41209362341947947,0.24227246895648366,0.14069108686941442,0.24532544550729715,0.18514087129394335,0.17531536234374445,0.3661617017831412,0.23208730993041518,0.23606330232024153
7.0,0.0,7.0,0.0,2.0,0.0,2.0,0.0,,,,left,0.5842649936676025,287.59035897254944,pt3,287.59035897254944,None,283.65792179107666,285.67163491249084,True,1.0,['p'],True,0.375,0.5,0.25,1.0,1.0,0.9850568223215076,0.0439410781860352,succ_gain,0.0,2.0,285.67163491249084,None,pt3,1,2023-03-30_11h44.39.847,threat_forest,2021.2.3,59.81787817376163,True,50.0,0.35,0.4,-1.2625000000000002,-1.1645833333333333,1,0,1,-0.5374006427900181,0.0439410781860352,1.0,0.375,0.5,0.75,-1.25,-1.125,-0.125,0.0,1.0,1.0,-1.0,1.0,1,0,1,0.5500026379781999,0.24749973619522103,0.07049885249337606,0.4318619711432832,0.24535720902352118,0.11717118890004397,0.5031403613225257,0.24999013813076396,0.13918076050438977,0.46609526795551814,0.24885046914499187,0.12004862345640577,0.43478896366328695,0.24574752073989195,0.12291480387760556,0.5789514024322276,0.24376667605398442,0.09639016107770548,0.4745755697947913,0.24935359834874046,0.12462064685888172,0.9473908175561647,0.049841456366426416,-0.042118785231625634,0.996624138356547,0.0033644652016173084,-0.10570167564873077,0.6559751117256261,0.2256717645221784,0.22805502030725067
7.0,0.0,7.0,0.0,3.0,0.0,3.0,0.0,,,,right,1.642836093902588,291.33000588417053,pt3,288.19791197776794,290.2102298736572,291.33000588417053,None,True,2.0,['p'],False,0.2,0.2,0.0,0.0,1.0,0.4554859150035951,-0.0210380859375,unsucc_cost,1.0,0.0,290.2102298736572,None,pt3,1,2023-03-30_11h44.39.847,threat_forest,2021.2.3,59.81787817376163,True,50.0,0.35,0.4,-1.2625000000000002,-1.1645833333333333,0,0,1,0.496424073824691,-0.0210380859375,0.2,0.2,0.2,1.0,-1.4,-1.4,0.5999999999999999,0.5999999999999999,0.0,1.0,1.0,2.0,0,0,0,0.37623846676259504,0.2346830828907267,0.17579837268806853,0.5523663317852345,0.24725776729535873,0.11244833364213291,0.31323454365980463,0.21511866431803858,0.05698365040737874,0.4458465713919433,0.24706740616999207,0.13687374555902476,0.4214179470634546,0.24382486095627803,0.1292785299125182,0.3367891383225276,0.22336221463049702,0.15267097469650026,0.3775050123704315,0.23499497800563185,0.12130534032978128,0.41209362341947947,0.24227246895648366,0.14069108686941442,0.24532544550729715,0.18514087129394335,0.17531536234374445,0.28196676567746465,0.2024615087308544,0.19908253829006495
8.0,0.0,8.0,0.0,0.0,0.0,0.0,0.0,297.5075008869171,301.0222749710083,None,left,1.182484149932861,302.0295088291168,pt3,302.0295088291168,None,297.5075008869171,301.0222749710083,True,4.0,['p'],True,0.4166666666666667,0.5,0.1666666666666666,1.0,2.0,0.9358932809493992,0.0524876732571487,unsucc_cost,0.0,2.0,,,pt3,1,2023-03-30_11h44.39.847,threat_forest,2021.2.3,59.81787817376163,True,22.0,0.4166666666666666,0.3833333333333333,-0.7129629629629629,-0.9877314814814816,1,1,1,0.1676174374318445,0.0524876732571487,0.4166666666666667,0.4166666666666667,0.5,0.8333333333333334,-0.4999999999999998,-0.4999999999999998,3.5,3.5,1.0,2.0,-1.0,4.0,0,1,1,0.5500026379781999,0.24749973619522103,0.07049885249337606,0.47183979259122305,0.24920700271869473,0.10760451648355229,0.5031403613225257,0.24999013813076396,0.13918076050438977,0.46609526795551814,0.24885046914499187,0.12004862345640577,0.5026864725936552,0.24999278286500354,0.10886359973798332,0.5789514024322276,0.24376667605398442,0.09639016107770548,0.49826590532937615,0.24999699291567332,0.12476920223241829,0.41209362341947947,0.24227246895648366,0.14069108686941442,0.6728403390244716,0.22012621720590567,0.22940091993986228,0.7012466333360271,0.2094997925709146,0.20786816106912182
8.0,0.0,8.0,0.0,1.0,0.0,1.0,0.0,,,,left,2.395336151123047,308.5469620227814,pt3,308.5469620227814,None,297.5075008869171,301.0222749710083,True,2.0,['p'],True,0.4166666666666667,0.5,0.1666666666666666,1.0,2.0,0.9358932809493992,0.0455069422842053,succ_gain,0.0,4.0,305.26101183891296,None,pt3,1,2023-03-30_11h44.39.847,threat_forest,2021.2.3,59.81787817376163,True,22.0,0.4166666666666666,0.3833333333333333,-0.7129629629629629,-0.9877314814814816,1,1,1,0.8735235763889518,0.0455069422842053,0.4166666666666667,0.4166666666666667,0.5,0.8333333333333334,-0.4999999999999998,-0.4999999999999998,1.5000000000000002,1.5000000000000002,1.0,2.0,-1.0,2.0,0,1,1,0.5500026379781999,0.24749973619522103,0.07049885249337606,0.47183979259122305,0.24920700271869473,0.10760451648355229,0.5031403613225257,0.24999013813076396,0.13918076050438977,0.46609526795551814,0.24885046914499187,0.12004862345640577,0.5026864725936552,0.24999278286500354,0.10886359973798332,0.5789514024322276,0.24376667605398442,0.09639016107770548,0.49826590532937615,0.24999699291567332,0.12476920223241829,0.41209362341947947,0.24227246895648366,0.14069108686941442,0.6728403390244716,0.22012621720590567,0.22940091993986228,0.6645164829074391,0.22293432685176628,0.224637980685101
8.0,0.0,8.0,0.0,2.0,0.0,2.0,0.0,,,,right,1.4741768836975098,315.1303298473358,pt3,310.97481989860535,312.98642683029175,315.1303298473358,None,True,4.0,['p'],False,0.2962962962962963,0.3333333333333333,0.1111111111111111,1.0,2.0,0.8325252476189534,-0.0045686299615397,unsucc_cost,1.0,2.0,312.98642683029175,None,pt3,1,2023-03-30_11h44.39.847,threat_forest,2021.2.3,59.81787817376163,True,22.0,0.4166666666666666,0.3833333333333333,-0.7129629629629629,-0.9877314814814816,1,0,1,0.3880997890759067,-0.0045686299615397,0.2962962962962963,0.2962962962962963,0.3333333333333333,0.8888888888888888,-1.0000000000000002,-0.925925925925926,3.074074074074074,3.074074074074074,0.0,2.0,1.0,4.0,0,0,1,0.37623846676259504,0.2346830828907267,0.17579837268806853,0.49872633334163957,0.24999837777324344,0.10563796281732807,0.31323454365980463,0.21511866431803858,0.05698365040737874,0.454827865168864,0.24795947823479766,0.12845608357785387,0.4572768646981863,0.24817473370998291,0.11488107970982153,0.5789514024322276,0.24376667605398442,0.09639016107770548,0.43022213169667584,0.24513104909504396,0.12364568932287118,0.41209362341947947,0.24227246895648366,0.14069108686941442,0.4246270242283019,0.24431891452331903,0.266801594138113,0.36953097372154636,0.23297783318195223,0.23717490872057634
8.0,0.0,8.0,0.0,3.0,0.0,3.0,0.0,,,,left,1.3729441165924072,320.9458658695221,pt3,320.9458658695221,None,316.62957096099854,318.64267086982727,True,2.0,['p'],True,0.4166666666666667,0.5,0.1666666666666666,1.0,2.0,0.9358932809493992,0.0592387386958288,unsucc_cost,0.0,0.0,318.64267086982727,None,pt3,1,2023-03-30_11h44.39.847,threat_forest,2021.2.3,59.81787817376163,True,22.0,0.4166666666666666,0.3833333333333333,-0.7129629629629629,-0.9877314814814816,1,1,1,0.3169574242768042,0.0592387386958288,0.4166666666666667,0.4166666666666667,0.5,0.8333333333333334,-0.4999999999999998,-0.4999999999999998,1.5000000000000002,1.5000000000000002,1.0,2.0,-1.0,2.0,0,1,1,0.5500026379781999,0.24749973619522103,0.07049885249337606,0.47183979259122305,0.24920700271869473,0.10760451648355229,0.5031403613225257,0.24999013813076396,0.13918076050438977,0.46609526795551814,0.24885046914499187,0.12004862345640577,0.5026864725936552,0.24999278286500354,0.10886359973798332,0.5789514024322276,0.24376667605398442,0.09639016107770548,0.49826590532937615,0.24999699291567332,0.12476920223241829,0.41209362341947947,0.24227246895648366,0.14069108686941442,0.6728403390244716,0.22012621720590567,0.22940091993986228,0.7344679483292019,0.1950247812062947,0.1897995533712794
9.0,0.0,9.0,0.0,0.0,0.0,0.0,0.0,326.97267293930054,330.47323989868164,None,right,1.1874399185180664,332.8347158432007,pt3,326.97267293930054,330.47323989868164,332.8347158432007,None,True,5.0,['r'],False,0.6,0.6,0.0,0.0,2.0,0.6126016192893442,0.0562706701368849,succ_gain,1.0,6.0,,,pt3,1,2023-03-30_11h44.39.847,threat_forest,2021.2.3,59.81787817376163,True,62.0,0.6125,0.5145833333333334,0.0124999999999999,-0.3502314814814815,1,1,1,0.1717996607145378,0.0562706701368849,0.6,0.6,0.6,1.0,0.3999999999999999,0.3999999999999999,5.4,5.4,0.0,2.0,-1.0,5.0,0,1,1,0.37623846676259504,0.2346830828907267,0.17579837268806853,0.5523663317852345,0.24725776729535873,0.11244833364213291,0.5031403613225257,0.24999013813076396,0.13918076050438977,0.47287309971548447,0.2492641312809539,0.1161452750921721,0.583813297488195,0.2429753311641553,0.1320903507565594,0.5789514024322276,0.24376667605398442,0.09639016107770548,0.6011837002856226,0.23976185879650927,0.12240598026814586,0.41209362341947947,0.24227246895648366,0.14069108686941442,0.9073762070640249,0.08404462591812863,0.019025731371272045,0.720155804826231,0.20153142160131443,0.19792154580134425
9.0,0.0,9.0,0.0,1.0,0.0,1.0,0.0,,,,right,0.9116837978363036,339.54079389572144,pt3,339.54079389572144,None,334.0537660121918,336.0628550052643,False,6.0,['r'],True,0.46875,0.625,0.25,2.0,2.0,0.9634951148421658,-0.056437416691035,wait_cost,0.0,5.0,336.0628550052643,None,pt3,1,2023-03-30_11h44.39.847,threat_forest,2021.2.3,59.81787817376163,False,62.0,0.6125,0.5145833333333334,0.0124999999999999,-0.3502314814814815,0,0,0,-0.092462061925409,-0.056437416691035,0.46875,0.46875,0.625,0.75,-0.25,-0.375,5.625,5.625,1.0,2.0,1.0,6.0,0,0,0,0.5500026379781999,0.24749973619522103,0.07049885249337606,0.4318619711432832,0.24535720902352118,0.11717118890004397,0.31323454365980463,0.21511866431803858,0.05698365040737874,0.474569219565489,0.24935327540649174,0.11530410413077874,0.5254215924244102,0.2493537426386072,0.11097873053789575,0.3367891383225276,0.22336221463049702,0.15267097469650026,0.5278773020980739,0.24922285602773273,0.1245904593575683,0.41209362341947947,0.24227246895648366,0.14069108686941442,0.7621515724196284,0.18127655307791637,0.16934132378575523,0.1423933299526305,0.1221174695376318,0.09879212134499084
9.0,0.0,9.0,0.0,2.0,0.0,2.0,0.0,,,,right,1.5928730964660645,344.0056059360504,pt3,340.4871518611908,342.4866979122162,344.0056059360504,None,True,5.0,['r'],False,0.6,0.6,0.0,0.0,2.0,0.6126016192893442,0.0904835319900512,succ_gain,1.0,6.0,342.4866979122162,None,pt3,1,2023-03-30_11h44.39.847,threat_forest,2021.2.3,59.81787817376163,True,62.0,0.6125,0.5145833333333334,0.0124999999999999,-0.3502314814814815,1,1,1,0.465539364519263,0.0904835319900512,0.6,0.6,0.6,1.0,0.3999999999999999,0.3999999999999999,5.4,5.4,0.0,2.0,-1.0,5.0,0,1,1,0.37623846676259504,0.2346830828907267,0.17579837268806853,0.5523663317852345,0.24725776729535873,0.11244833364213291,0.5031403613225257,0.24999013813076396,0.13918076050438977,0.47287309971548447,0.2492641312809539,0.1161452750921721,0.583813297488195,0.2429753311641553,0.1320903507565594,0.5789514024322276,0.24376667605398442,0.09639016107770548,0.6011837002856226,0.23976185879650927,0.12240598026814586,0.41209362341947947,0.24227246895648366,0.14069108686941442,0.9073762070640249,0.08404462591812863,0.019025731371272045,0.8553518058051136,0.12372509411104478,0.10079885812817631
9.0,0.0,9.0,0.0,3.0,0.0,3.0,0.0,,,,right,1.9783520698547363,351.22024393081665,pt3,351.22024393081665,None,345.6278529167176,347.64278292655945,False,6.0,['r'],True,0.46875,0.625,0.25,2.0,2.0,0.9634951148421658,-0.1287342834472656,wait_cost,0.0,5.0,347.64278292655945,None,pt3,1,2023-03-30_11h44.39.847,threat_forest,2021.2.3,59.81787817376163,False,62.0,0.6125,0.5145833333333334,0.0124999999999999,-0.3502314814814815,0,0,0,0.6822642102103766,-0.1287342834472656,0.0,0.46875,0.625,0.75,-0.25,-0.375,5.625,5.625,1.0,2.0,1.0,6.0,0,0,0,0.5500026379781999,0.24749973619522103,0.07049885249337606,0.4318619711432832,0.24535720902352118,0.11717118890004397,0.31323454365980463,0.21511866431803858,0.05698365040737874,0.474569219565489,0.24935327540649174,0.11530410413077874,0.5254215924244102,0.2493537426386072,0.11097873053789575,0.3367891383225276,0.22336221463049702,0.15267097469650026,0.5278773020980739,0.24922285602773273,0.1245904593575683,0.41209362341947947,0.24227246895648366,0.14069108686941442,0.055905846652134134,0.0527803829622422,-0.029307191142763825,0.027824033629001713,0.0270498567816139,-0.01987717406277785
9.0,0.0,9.0,0.0,4.0,0.0,4.0,0.0,,,,left,2.900887012481689,356.2541229724884,pt3,353.2186858654022,355.21785593032837,356.2541229724884,None,False,5.0,['r'],False,0.6,0.6,0.0,0.0,2.0,0.6126016192893442,-0.11344140625,wait_cost,1.0,4.0,355.2178559303284,None,pt3,1,2023-03-30_11h44.39.847,threat_forest,2021.2.3,59.81787817376163,False,62.0,0.6125,0.5145833333333334,0.0124999999999999,-0.3502314814814815,1,1,0,1.0650165565978416,-0.11344140625,0.0,0.6,0.6,1.0,0.3999999999999999,0.3999999999999999,5.4,5.4,0.0,2.0,-1.0,5.0,0,1,1,0.37623846676259504,0.2346830828907267,0.17579837268806853,0.5523663317852345,0.24725776729535873,0.11244833364213291,0.5031403613225257,0.24999013813076396,0.13918076050438977,0.47287309971548447,0.2492641312809539,0.1161452750921721,0.583813297488195,0.2429753311641553,0.1320903507565594,0.5789514024322276,0.24376667605398442,0.09639016107770548,0.6011837002856226,0.23976185879650927,0.12240598026814586,0.41209362341947947,0.24227246895648366,0.14069108686941442,0.055905846652134134,0.0527803829622422,-0.029307191142763825,0.03985826919090532,0.03826958756801065,-0.005872009648861594
9.0,0.0,9.0,0.0,5.0,0.0,5.0,0.0,,,,left,1.645050048828125,364.4292538166046,pt3,353.2186858654022,355.21785593032837,364.4292538166046,None,False,4.0,['r'],False,0.6,0.6,0.0,0.0,2.0,0.6126016192893442,-0.173125,wait_cost,1.0,3.0,361.1753129959106,None,pt3,1,2023-03-30_11h44.39.847,threat_forest,2021.2.3,59.81787817376163,False,62.0,0.6125,0.5145833333333334,0.0124999999999999,-0.3502314814814815,1,1,0,0.4977708085740386,-0.173125,0.0,0.6,0.6,1.0,0.3999999999999999,0.3999999999999999,4.4,4.4,0.0,2.0,-1.0,4.0,0,1,1,0.37623846676259504,0.2346830828907267,0.17579837268806853,0.5523663317852345,0.24725776729535873,0.11244833364213291,0.5031403613225257,0.24999013813076396,0.13918076050438977,0.47287309971548447,0.2492641312809539,0.1161452750921721,0.583813297488195,0.2429753311641553,0.1320903507565594,0.5789514024322276,0.24376667605398442,0.09639016107770548,0.6011837002856226,0.23976185879650927,0.12240598026814586,0.41209362341947947,0.24227246895648366,0.14069108686941442,0.055905846652134134,0.0527803829622422,-0.029307191142763825,0.009630803942780701,0.009538051558196425,-0.041736496359155675
9.0,0.0,9.0,0.0,6.0,0.0,6.0,0.0,,,,left,0.9650590419769288,370.500097990036,pt3,353.2186858654022,355.21785593032837,370.500097990036,None,False,3.0,['r'],False,0.6,0.6,0.0,0.0,2.0,0.6126016192893442,-0.18625,wait_cost,1.0,2.0,368.1046769618988,None,pt3,1,2023-03-30_11h44.39.847,threat_forest,2021.2.3,59.81787817376163,False,62.0,0.6125,0.5145833333333334,0.0124999999999999,-0.3502314814814815,1,1,0,-0.0355659961189975,-0.18625,0.0,0.6,0.6,1.0,0.3999999999999999,0.3999999999999999,3.4,3.4,0.0,2.0,-1.0,3.0,0,1,1,0.37623846676259504,0.2346830828907267,0.17579837268806853,0.5523663317852345,0.24725776729535873,0.11244833364213291,0.5031403613225257,0.24999013813076396,0.13918076050438977,0.47287309971548447,0.2492641312809539,0.1161452750921721,0.583813297488195,0.2429753311641553,0.1320903507565594,0.5789514024322276,0.24376667605398442,0.09639016107770548,0.6011837002856226,0.23976185879650927,0.12240598026814586,0.41209362341947947,0.24227246895648366,0.14069108686941442,0.055905846652134134,0.0527803829622422,-0.029307191142763825,0.00701768666938276,0.006968438743193128,-0.044944046579332125
9.0,0.0,9.0,0.0,7.0,0.0,7.0,0.0,,,,right,1.2160000801086426,376.1626679897308,pt3,376.1626679897308,None,371.4915390014648,373.50627994537354,False,2.0,['r'],True,0.46875,0.625,0.25,2.0,2.0,0.9634951148421658,-0.53125,wait_cost,0.0,1.0,373.5062799453736,None,pt3,1,2023-03-30_11h44.39.847,threat_forest,2021.2.3,59.81787817376163,False,62.0,0.6125,0.5145833333333334,0.0124999999999999,-0.3502314814814815,0,0,0,0.195566849422791,-0.53125,0.0,0.46875,0.625,0.75,-0.25,-0.375,1.625,1.625,1.0,2.0,-1.0,2.0,0,0,0,0.5500026379781999,0.24749973619522103,0.07049885249337606,0.4318619711432832,0.24535720902352118,0.11717118890004397,0.5031403613225257,0.24999013813076396,0.13918076050438977,0.474569219565489,0.24935327540649174,0.11530410413077874,0.5254215924244102,0.2493537426386072,0.11097873053789575,0.3367891383225276,0.22336221463049702,0.15267097469650026,0.5278773020980739,0.24922285602773273,0.1245904593575683,0.41209362341947947,0.24227246895648366,0.14069108686941442,0.055905846652134134,0.0527803829622422,-0.029307191142763825,1.6058728877637956e-06,1.605870308936065e-06,-0.053640479825958626
10.0,0.0,10.0,0.0,0.0,0.0,0.0,0.0,380.5005648136139,383.9985008239746,None,left,1.4134418964385986,387.1481659412384,pt3,387.1481659412384,None,380.5005648136139,383.9985008239746,True,5.0,['r'],True,0.3333333333333333,0.3333333333333333,0.0,0.0,2.0,0.5793801642856949,0.0388172421765338,succ_gain,0.0,6.0,,,pt3,1,2023-03-30_11h44.39.847,threat_forest,2021.2.3,59.81787817376163,True,10.0,0.3541666666666666,0.4833333333333333,-0.8958333333333335,-0.4416666666666667,0,0,1,0.3460277911436259,0.0388172421765338,0.3333333333333333,0.3333333333333333,0.3333333333333333,1.0,-0.6666666666666669,-0.6666666666666669,4.333333333333333,4.333333333333333,1.0,2.0,-1.0,5.0,0,0,0,0.5500026379781999,0.24749973619522103,0.07049885249337606,0.5523663317852345,0.24725776729535873,0.11244833364213291,0.5031403613225257,0.24999013813076396,0.13918076050438977,0.454827865168864,0.24795947823479766,0.12845608357785387,0.4875177370422329,0.24984419311145317,0.10935541034912133,0.3367891383225276,0.22336221463049702,0.15267097469650026,0.450999131968098,0.24759891493212008,0.12421550254497013,0.41209362341947947,0.24227246895648366,0.14069108686941442,0.5028840717560286,0.24999168213010606,0.27557140307178324,0.6273370570721797,0.2337852738961964,0.23818280634065025
10.0,0.0,10.0,0.0,1.0,0.0,1.0,0.0,,,,right,1.3138201236724854,392.707799911499,pt3,392.707799911499,None,380.5005648136139,383.9985008239746,False,6.0,['r'],True,0.3333333333333333,0.3333333333333333,0.0,0.0,2.0,0.5793801642856949,-0.059542589226868,wait_cost,0.0,5.0,390.6089329719544,None,pt3,1,2023-03-30_11h44.39.847,threat_forest,2021.2.3,59.81787817376163,False,10.0,0.3541666666666666,0.4833333333333333,-0.8958333333333335,-0.4416666666666667,0,0,0,0.2729390185095497,-0.059542589226868,0.3333333333333333,0.3333333333333333,0.3333333333333333,1.0,-0.6666666666666669,-0.6666666666666669,5.333333333333333,5.333333333333333,1.0,2.0,1.0,6.0,0,0,0,0.5500026379781999,0.24749973619522103,0.07049885249337606,0.5523663317852345,0.24725776729535873,0.11244833364213291,0.31323454365980463,0.21511866431803858,0.05698365040737874,0.454827865168864,0.24795947823479766,0.12845608357785387,0.4875177370422329,0.24984419311145317,0.10935541034912133,0.3367891383225276,0.22336221463049702,0.15267097469650026,0.450999131968098,0.24759891493212008,0.12421550254497013,0.41209362341947947,0.24227246895648366,0.14069108686941442,0.5028840717560286,0.24999168213010606,0.27557140307178324,0.13341881107277778,0.1156182319247042,0.09067936952704887
10.0,0.0,10.0,0.0,3.0,0.0,3.0,0.0,,,,left,1.5896480083465576,404.9228358268738,pt3,404.9228358268738,None,380.5005648136139,383.9985008239746,True,4.0,['r'],True,0.3333333333333333,0.3333333333333333,0.0,0.0,2.0,0.5793801642856949,0.0651312934027776,unsucc_cost,0.0,2.0,403.8741447925568,None,pt3,1,2023-03-30_11h44.39.847,threat_forest,2021.2.3,59.81787817376163,True,10.0,0.3541666666666666,0.4833333333333333,-0.8958333333333335,-0.4416666666666667,0,0,1,0.463512613325934,0.0651312934027776,0.3333333333333333,0.3333333333333333,0.3333333333333333,1.0,-0.6666666666666669,-0.6666666666666669,3.333333333333333,3.333333333333333,1.0,2.0,-1.0,4.0,0,0,0,0.5500026379781999,0.24749973619522103,0.07049885249337606,0.5523663317852345,0.24725776729535873,0.11244833364213291,0.5031403613225257,0.24999013813076396,0.13918076050438977,0.454827865168864,0.24795947823479766,0.12845608357785387,0.4875177370422329,0.24984419311145317,0.10935541034912133,0.3367891383225276,0.22336221463049702,0.15267097469650026,0.450999131968098,0.24759891493212008,0.12421550254497013,0.41209362341947947,0.24227246895648366,0.14069108686941442,0.5028840717560286,0.24999168213010606,0.27557140307178324,0.7614605071548298,0.18163840319833907,0.17308984540435046
10.0,0.0,10.0,0.0,4.0,0.0,4.0,0.0,,,,left,1.1191768646240234,410.7989349365234,pt3,410.7989349365234,None,380.5005648136139,383.9985008239746,True,2.0,['r'],True,0.3333333333333333,0.3333333333333333,0.0,0.0,2.0,0.5793801642856949,0.0260416666666666,succ_gain,0.0,4.0,408.5553929805756,None,pt3,1,2023-03-30_11h44.39.847,threat_forest,2021.2.3,59.81787817376163,True,10.0,0.3541666666666666,0.4833333333333333,-0.8958333333333335,-0.4416666666666667,0,0,1,0.112593472804535,0.0260416666666666,0.3333333333333333,0.3333333333333333,0.3333333333333333,1.0,-0.6666666666666669,-0.6666666666666669,1.333333333333333,1.333333333333333,1.0,2.0,-1.0,2.0,0,0,0,0.5500026379781999,0.24749973619522103,0.07049885249337606,0.5523663317852345,0.24725776729535873,0.11244833364213291,0.5031403613225257,0.24999013813076396,0.13918076050438977,0.454827865168864,0.24795947823479766,0.12845608357785387,0.4875177370422329,0.24984419311145317,0.10935541034912133,0.3367891383225276,0.22336221463049702,0.15267097469650026,0.450999131968098,0.24759891493212008,0.12421550254497013,0.41209362341947947,0.24227246895648366,0.14069108686941442,0.5028840717560286,0.24999168213010606,0.27557140307178324,0.5523421850214763,0.2472602956671775,0.25500316495500336
10.0,0.0,10.0,0.0,5.0,0.0,5.0,0.0,,,,right,0.9710102081298828,416.06703996658325,pt3,416.06703996658325,None,380.5005648136139,383.9985008239746,False,4.0,['r'],True,0.3333333333333333,0.3333333333333333,0.0,0.0,2.0,0.5793801642856949,-0.4531250000000001,wait_cost,0.0,3.0,413.9690508842468,None,pt3,1,2023-03-30_11h44.39.847,threat_forest,2021.2.3,59.81787817376163,False,10.0,0.3541666666666666,0.4833333333333333,-0.8958333333333335,-0.4416666666666667,0,0,0,-0.029418297738985,-0.4531250000000001,0.0,0.3333333333333333,0.3333333333333333,1.0,-0.6666666666666669,-0.6666666666666669,3.333333333333333,3.333333333333333,1.0,2.0,1.0,4.0,0,0,0,0.5500026379781999,0.24749973619522103,0.07049885249337606,0.5523663317852345,0.24725776729535873,0.11244833364213291,0.31323454365980463,0.21511866431803858,0.05698365040737874,0.454827865168864,0.24795947823479766,0.12845608357785387,0.4875177370422329,0.24984419311145317,0.10935541034912133,0.3367891383225276,0.22336221463049702,0.15267097469650026,0.450999131968098,0.24759891493212008,0.12421550254497013,0.41209362341947947,0.24227246895648366,0.14069108686941442,0.055905846652134134,0.0527803829622422,-0.029307191142763825,1.0734562015360683e-05,1.0734446784539028e-05,-0.05362908497016041
10.0,0.0,10.0,0.0,6.0,0.0,6.0,0.0,,,,left,1.6180779933929443,420.7334108352661,pt3,417.06184697151184,419.07486295700073,420.7334108352661,None,False,3.0,['r'],False,0.28125,0.375,0.25,2.0,2.0,0.9634951148421658,-0.57470703125,wait_cost,1.0,2.0,419.07486295700073,None,pt3,1,2023-03-30_11h44.39.847,threat_forest,2021.2.3,59.81787817376163,False,10.0,0.3541666666666666,0.4833333333333333,-0.8958333333333335,-0.4416666666666667,0,0,0,0.4812390210548564,-0.57470703125,0.0,0.28125,0.375,0.75,-1.25,-1.125,1.875,1.875,0.0,2.0,-1.0,3.0,0,0,0,0.37623846676259504,0.2346830828907267,0.17579837268806853,0.4318619711432832,0.24535720902352118,0.11717118890004397,0.5031403613225257,0.24999013813076396,0.13918076050438977,0.45764083824832263,0.24820570141569526,0.12613270232818286,0.43478896366328695,0.24574752073989195,0.12291480387760556,0.3367891383225276,0.22336221463049702,0.15267097469650026,0.42184696752536993,0.2438921035150194,0.12335962532281375,0.41209362341947947,0.24227246895648366,0.14069108686941442,0.055905846652134134,0.0527803829622422,-0.029307191142763825,5.581648304692136e-07,5.58164518921236e-07,-0.05364178763736034
10.0,0.0,10.0,0.0,7.0,0.0,7.0,0.0,,,,left,0.9494731426239014,426.2482128143311,pt3,417.06184697151184,419.07486295700073,426.2482128143311,None,False,2.0,['r'],False,0.28125,0.375,0.25,2.0,2.0,0.9634951148421658,-0.71875,wait_cost,1.0,1.0,424.3975188732147,None,pt3,1,2023-03-30_11h44.39.847,threat_forest,2021.2.3,59.81787817376163,False,10.0,0.3541666666666666,0.4833333333333333,-0.8958333333333335,-0.4416666666666667,0,0,0,-0.0518480349393247,-0.71875,0.0,0.28125,0.375,0.75,-1.25,-1.125,0.875,0.875,0.0,2.0,-1.0,2.0,0,0,0,0.37623846676259504,0.2346830828907267,0.17579837268806853,0.4318619711432832,0.24535720902352118,0.11717118890004397,0.5031403613225257,0.24999013813076396,0.13918076050438977,0.45764083824832263,0.24820570141569526,0.12613270232818286,0.43478896366328695,0.24574752073989195,0.12291480387760556,0.3367891383225276,0.22336221463049702,0.15267097469650026,0.42184696752536993,0.2438921035150194,0.12335962532281375,0.41209362341947947,0.24227246895648366,0.14069108686941442,0.055905846652134134,0.0527803829622422,-0.029307191142763825,1.6808414479320295e-08,1.6808414196797514e-08,-0.053642463391654044
11.0,0.0,11.0,0.0,0.0,0.0,0.0,0.0,430.78891491889954,434.2918739318848,None,left,1.3135721683502195,435.05013394355774,pt3,435.05013394355774,None,430.78891491889954,434.29187393188477,True,5.0,['r'],True,0.3333333333333333,0.3333333333333333,0.0,0.0,2.0,0.5793801642856949,0.042200214959848,succ_gain,0.0,6.0,,,pt3,1,2023-03-30_11h44.39.847,threat_forest,2021.2.3,59.81787817376163,True,70.0,0.4166666666666666,0.3854166666666666,-1.0833333333333337,-0.9895833333333336,1,0,1,0.2727502721820563,0.042200214959848,0.3333333333333333,0.3333333333333333,0.3333333333333333,1.0,-0.6666666666666669,-0.6666666666666669,4.333333333333333,4.333333333333333,1.0,2.0,-1.0,5.0,0,0,1,0.5500026379781999,0.24749973619522103,0.07049885249337606,0.5523663317852345,0.24725776729535873,0.11244833364213291,0.5031403613225257,0.24999013813076396,0.13918076050438977,0.454827865168864,0.24795947823479766,0.12845608357785387,0.4875177370422329,0.24984419311145317,0.10935541034912133,0.5789514024322276,0.24376667605398442,0.09639016107770548,0.450999131968098,0.24759891493212008,0.12421550254497013,0.41209362341947947,0.24227246895648366,0.14069108686941442,0.5028840717560286,0.24999168213010606,0.27557140307178324,0.6463595657820624,0.22857887750408615,0.23168385918552498
11.0,0.0,11.0,0.0,1.0,0.0,1.0,0.0,,,,left,1.1462039947509766,441.1043620109558,pt3,436.3995168209076,438.4134759902954,441.1043620109558,None,False,6.0,['r'],False,0.25,0.5,0.5,2.0,2.0,0.9463946303571862,-0.1669600372942388,wait_cost,1.0,5.0,438.4134759902954,None,pt3,1,2023-03-30_11h44.39.847,threat_forest,2021.2.3,59.81787817376163,False,70.0,0.4166666666666666,0.3854166666666666,-1.0833333333333337,-0.9895833333333336,0,0,0,0.1364556083422835,-0.1669600372942388,0.25,0.25,0.5,0.5,-1.5,-1.5,4.5,4.5,0.0,2.0,1.0,6.0,0,0,0,0.37623846676259504,0.2346830828907267,0.17579837268806853,0.3189170599924836,0.2172089688382342,0.18711909111905545,0.31323454365980463,0.21511866431803858,0.05698365040737874,0.46609526795551814,0.24885046914499187,0.12004862345640577,0.41256628326574984,0.24235534517803492,0.1341424147747391,0.3367891383225276,0.22336221463049702,0.15267097469650026,0.4046004130770853,0.24089891881493722,0.12266851959386058,0.41209362341947947,0.24227246895648366,0.14069108686941442,0.3322587040981102,0.22186285764915467,0.2320856773509638,0.011171067490968157,0.011046274742080394,-0.039853838560558096
11.0,0.0,11.0,0.0,2.0,0.0,2.0,0.0,,,,right,1.4687368869781494,445.2559549808502,pt3,445.2559549808502,None,442.2735459804535,444.28668880462646,False,5.0,['r'],True,0.3333333333333333,0.3333333333333333,0.0,0.0,2.0,0.5793801642856949,0.0926729681069958,wait_cost,0.0,4.0,444.28668880462646,None,pt3,1,2023-03-30_11h44.39.847,threat_forest,2021.2.3,59.81787817376163,False,70.0,0.4166666666666666,0.3854166666666666,-1.0833333333333337,-0.9895833333333336,1,0,0,0.3844027708556001,0.0926729681069958,0.3333333333333333,0.3333333333333333,0.3333333333333333,1.0,-0.6666666666666669,-0.6666666666666669,4.333333333333333,4.333333333333333,1.0,2.0,-1.0,5.0,0,0,1,0.5500026379781999,0.24749973619522103,0.07049885249337606,0.5523663317852345,0.24725776729535873,0.11244833364213291,0.5031403613225257,0.24999013813076396,0.13918076050438977,0.454827865168864,0.24795947823479766,0.12845608357785387,0.4875177370422329,0.24984419311145317,0.10935541034912133,0.5789514024322276,0.24376667605398442,0.09639016107770548,0.450999131968098,0.24759891493212008,0.12421550254497013,0.41209362341947947,0.24227246895648366,0.14069108686941442,0.5028840717560286,0.24999168213010606,0.27557140307178324,0.8618153349127823,0.11908966342195117,0.09501262580531337
11.0,0.0,11.0,0.0,3.0,0.0,3.0,0.0,,,,left,1.2925841808319092,449.9127638339996,pt3,446.7583808898926,448.7588210105896,449.9127638339996,None,False,4.0,['r'],False,0.25,0.5,0.5,2.0,2.0,0.9463946303571862,-0.0351924189814815,wait_cost,1.0,3.0,448.7588210105896,None,pt3,1,2023-03-30_11h44.39.847,threat_forest,2021.2.3,59.81787817376163,False,70.0,0.4166666666666666,0.3854166666666666,-1.0833333333333337,-0.9895833333333336,0,0,0,0.2566434555170192,-0.0351924189814815,0.25,0.25,0.5,0.5,-1.5,-1.5,2.5,2.5,0.0,2.0,-1.0,4.0,0,0,0,0.37623846676259504,0.2346830828907267,0.17579837268806853,0.3189170599924836,0.2172089688382342,0.18711909111905545,0.5031403613225257,0.24999013813076396,0.13918076050438977,0.46609526795551814,0.24885046914499187,0.12004862345640577,0.41256628326574984,0.24235534517803492,0.1341424147747391,0.3367891383225276,0.22336221463049702,0.15267097469650026,0.4046004130770853,0.24089891881493722,0.12266851959386058,0.41209362341947947,0.24227246895648366,0.14069108686941442,0.3322587040981102,0.22186285764915467,0.2320856773509638,0.21773315663366302,0.1703254291360038,0.15896828894548476
11.0,0.0,11.0,0.0,4.0,0.0,4.0,0.0,,,,left,1.6658971309661863,455.2009148597717,pt3,455.2009148597717,None,451.2308168411255,453.2305979728699,True,3.0,['r'],True,0.3333333333333333,0.3333333333333333,0.0,0.0,2.0,0.5793801642856949,0.2152777777777777,unsucc_cost,0.0,1.0,453.2305979728699,None,pt3,1,2023-03-30_11h44.39.847,threat_forest,2021.2.3,59.81787817376163,True,70.0,0.4166666666666666,0.3854166666666666,-1.0833333333333337,-0.9895833333333336,1,0,1,0.5103637957195452,0.2152777777777777,0.3333333333333333,0.3333333333333333,0.3333333333333333,1.0,-0.6666666666666669,-0.6666666666666669,2.333333333333333,2.333333333333333,1.0,2.0,-1.0,3.0,0,0,1,0.5500026379781999,0.24749973619522103,0.07049885249337606,0.5523663317852345,0.24725776729535873,0.11244833364213291,0.5031403613225257,0.24999013813076396,0.13918076050438977,0.454827865168864,0.24795947823479766,0.12845608357785387,0.4875177370422329,0.24984419311145317,0.10935541034912133,0.5789514024322276,0.24376667605398442,0.09639016107770548,0.450999131968098,0.24759891493212008,0.12421550254497013,0.41209362341947947,0.24227246895648366,0.14069108686941442,0.5028840717560286,0.24999168213010606,0.27557140307178324,0.9919332195454856,0.00800170750761291,-0.043654256369124185
11.0,0.0,11.0,0.0,5.0,0.0,5.0,0.0,,,,left,0.6580088138580322,460.0799729824066,pt3,460.0799729824066,None,451.2308168411255,453.2305979728699,True,1.0,['r'],True,0.3333333333333333,0.3333333333333333,0.0,0.0,2.0,0.5793801642856949,0.3333333333333332,unsucc_cost,0.0,0.0,458.8874459266663,None,pt3,1,2023-03-30_11h44.39.847,threat_forest,2021.2.3,59.81787817376163,True,70.0,0.4166666666666666,0.3854166666666666,-1.0833333333333337,-0.9895833333333336,1,0,1,-0.4185369528255094,0.3333333333333332,1.0,0.3333333333333333,0.3333333333333333,1.0,-0.6666666666666669,-0.6666666666666669,0.3333333333333331,0.3333333333333331,1.0,2.0,-1.0,1.0,1,0,1,0.5500026379781999,0.24749973619522103,0.07049885249337606,0.5523663317852345,0.24725776729535873,0.11244833364213291,0.5031403613225257,0.24999013813076396,0.13918076050438977,0.454827865168864,0.24795947823479766,0.12845608357785387,0.4875177370422329,0.24984419311145317,0.10935541034912133,0.5789514024322276,0.24376667605398442,0.09639016107770548,0.450999131968098,0.24759891493212008,0.12421550254497013,0.9473908175561647,0.049841456366426416,-0.042118785231625634,0.996624138356547,0.0033644652016173084,-0.10570167564873077,0.999539494792283,0.00046029314267070014,-0.05306791790033863
12.0,0.0,12.0,0.0,0.0,0.0,0.0,0.0,463.62438201904297,467.12969493865967,None,left,1.452080011367798,467.82138991355896,pt3,463.62438201904297,467.12969493865967,467.82138991355896,None,False,4.0,['p'],False,0.25,0.5,0.5,1.0,2.0,0.9463946303571862,0.0192737415335937,wait_cost,1.0,3.0,,,pt3,1,2023-03-30_11h44.39.847,threat_forest,2021.2.3,59.81787817376163,False,8.0,0.35,0.3833333333333333,-1.5300000000000002,-1.3066666666666669,0,0,0,0.3729970191322159,0.0192737415335937,0.25,0.25,0.5,0.5,-1.5,-1.5,2.5,2.5,0.0,2.0,-1.0,4.0,0,0,0,0.37623846676259504,0.2346830828907267,0.17579837268806853,0.3189170599924836,0.2172089688382342,0.18711909111905545,0.5031403613225257,0.24999013813076396,0.13918076050438977,0.46609526795551814,0.24885046914499187,0.12004862345640577,0.41256628326574984,0.24235534517803492,0.1341424147747391,0.3367891383225276,0.22336221463049702,0.15267097469650026,0.4046004130770853,0.24089891881493722,0.12266851959386058,0.41209362341947947,0.24227246895648366,0.14069108686941442,0.3322587040981102,0.22186285764915467,0.2320856773509638,0.5113878089911094,0.249870317806382,0.25826115660199006
12.0,0.0,12.0,0.0,1.0,0.0,1.0,0.0,,,,right,1.4879648685455322,472.0119569301605,pt3,472.0119569301605,None,469.3053770065308,471.3183000087738,False,3.0,['p'],True,0.16,0.2,0.2,2.0,2.0,0.8198746470064713,0.0157060969937498,wait_cost,0.0,2.0,471.3183000087738,None,pt3,1,2023-03-30_11h44.39.847,threat_forest,2021.2.3,59.81787817376163,False,8.0,0.35,0.3833333333333333,-1.5300000000000002,-1.3066666666666669,0,0,0,0.3974093262837506,0.0157060969937498,0.16,0.16,0.2,0.8,-1.8000000000000005,-1.5600000000000005,1.4399999999999995,1.4399999999999995,1.0,2.0,-1.0,3.0,0,0,0,0.5500026379781999,0.24749973619522103,0.07049885249337606,0.4557760059900018,0.2480442383538036,0.11049396632353448,0.5031403613225257,0.24999013813076396,0.13918076050438977,0.4458465713919433,0.24706740616999207,0.13687374555902476,0.3863691427328123,0.23708802827672404,0.15157647252363637,0.3367891383225276,0.22336221463049702,0.15267097469650026,0.3563579910196023,0.22936697325607533,0.12000587280113616,0.41209362341947947,0.24227246895648366,0.14069108686941442,0.18781478407597826,0.15254039095847194,0.12491668510092889,0.4897021220572781,0.2498939537098768,0.25829066040389215
12.0,0.0,12.0,0.0,2.0,0.0,2.0,0.0,,,,left,1.2202699184417725,476.6291859149933,pt3,476.6291859149933,None,469.3053770065308,471.3183000087738,True,2.0,['p'],True,0.16,0.2,0.2,2.0,2.0,0.8198746470064713,-0.008327462,unsucc_cost,0.0,0.0,475.5227749347687,None,pt3,1,2023-03-30_11h44.39.847,threat_forest,2021.2.3,59.81787817376163,True,8.0,0.35,0.3833333333333333,-1.5300000000000002,-1.3066666666666669,0,0,1,0.1990720788985862,-0.008327462,0.16,0.16,0.2,0.8,-1.8000000000000005,-1.5600000000000005,0.4399999999999997,0.4399999999999997,1.0,2.0,-1.0,2.0,0,0,0,0.5500026379781999,0.24749973619522103,0.07049885249337606,0.4557760059900018,0.2480442383538036,0.11049396632353448,0.5031403613225257,0.24999013813076396,0.13918076050438977,0.4458465713919433,0.24706740616999207,0.13687374555902476,0.3863691427328123,0.23708802827672404,0.15157647252363637,0.3367891383225276,0.22336221463049702,0.15267097469650026,0.3563579910196023,0.22936697325607533,0.12000587280113616,0.41209362341947947,0.24227246895648366,0.14069108686941442,0.18781478407597826,0.15254039095847194,0.12491668510092889,0.3485009156422897,0.22704802743877536,0.22977295710900403
13.0,0.0,13.0,0.0,0.0,0.0,0.0,0.0,482.7850348949432,486.2848789691925,None,left,1.892467975616455,489.1310198307037,pt3,482.7850348949432,486.2848789691925,489.1310198307037,None,False,5.0,['r'],False,0.36,0.6,0.4,2.0,1.0,0.9801625908629508,-0.019480620685,wait_cost,1.0,4.0,,,pt3,1,2023-03-30_11h44.39.847,threat_forest,2021.2.3,59.81787817376163,False,24.0,0.55,0.45,-0.91,-1.2200000000000002,0,0,0,0.6378817844512623,-0.019480620685,0.36,0.36,0.6,0.6,-1.4000000000000004,-1.3200000000000005,3.68,3.68,0.0,1.0,-1.0,5.0,0,0,0,0.37623846676259504,0.2346830828907267,0.17579837268806853,0.3624017080024161,0.2310667100393477,0.15268283790637627,0.5031403613225257,0.24999013813076396,0.13918076050438977,0.47287309971548447,0.2492641312809539,0.1161452750921721,0.4214179470634546,0.24382486095627803,0.1292785299125182,0.3367891383225276,0.22336221463049702,0.15267097469650026,0.4660694334717837,0.24884871665507424,0.12450407315364839,0.41209362341947947,0.24227246895648366,0.14069108686941442,0.5593646400100805,0.24647583951647356,0.27013608999364425,0.28969766256952695,0.20577292687127946,0.2032160559637784
13.0,0.0,13.0,0.0,1.0,0.0,1.0,0.0,,,,left,0.9594919681549072,493.62864995002747,pt3,493.62864995002747,None,491.0445959568024,493.05919098854065,True,4.0,['r'],True,0.5,0.5,0.0,0.0,1.0,0.6309297535714574,0.102124415,succ_gain,0.0,5.0,493.0591909885407,None,pt3,1,2023-03-30_11h44.39.847,threat_forest,2021.2.3,59.81787817376163,True,24.0,0.55,0.45,-0.91,-1.2200000000000002,1,1,1,-0.0413513344345489,0.102124415,0.5,0.5,0.5,1.0,-0.5,-0.5,3.5,3.5,1.0,1.0,-1.0,4.0,0,1,1,0.5500026379781999,0.24749973619522103,0.07049885249337606,0.5523663317852345,0.24725776729535873,0.11244833364213291,0.5031403613225257,0.24999013813076396,0.13918076050438977,0.46609526795551814,0.24885046914499187,0.12004862345640577,0.5026864725936552,0.2499927828650035,0.10886359973798343,0.5789514024322276,0.24376667605398442,0.09639016107770548,0.5455636931917852,0.2479239498627248,0.12429055087147155,0.41209362341947947,0.24227246895648366,0.14069108686941442,0.8069921515937054,0.1557558188598674,0.12988757238026905,0.8869828744325492,0.10024425489592184,0.07148861708538377
13.0,0.0,13.0,0.0,2.0,0.0,2.0,0.0,,,,left,0.9278249740600586,498.5519309043884,pt3,494.6116499900818,496.61406087875366,498.5519309043884,None,False,5.0,['r'],False,0.36,0.6,0.4,2.0,1.0,0.9801625908629508,-0.0404334399999999,wait_cost,1.0,4.0,496.61406087875366,None,pt3,1,2023-03-30_11h44.39.847,threat_forest,2021.2.3,59.81787817376163,False,24.0,0.55,0.45,-0.91,-1.2200000000000002,0,0,0,-0.0749121695229277,-0.0404334399999999,0.36,0.36,0.6,0.6,-1.4000000000000004,-1.3200000000000005,3.68,3.68,0.0,1.0,1.0,5.0,0,0,0,0.37623846676259504,0.2346830828907267,0.17579837268806853,0.3624017080024161,0.2310667100393477,0.15268283790637627,0.31323454365980463,0.21511866431803858,0.05698365040737874,0.47287309971548447,0.2492641312809539,0.1161452750921721,0.4214179470634546,0.24382486095627803,0.1292785299125182,0.3367891383225276,0.22336221463049702,0.15267097469650026,0.4660694334717837,0.24884871665507424,0.12450407315364839,0.41209362341947947,0.24227246895648366,0.14069108686941442,0.5593646400100805,0.24647583951647356,0.27013608999364425,0.19680651352114142,0.1580737097567942,0.14367493231102485
13.0,0.0,13.0,0.0,3.0,0.0,3.0,0.0,,,,left,0.958812952041626,502.2866859436035,pt3,494.6116499900818,496.61406087875366,502.2866859436035,None,False,4.0,['r'],False,0.36,0.6,0.4,2.0,1.0,0.9801625908629508,-0.0316195,wait_cost,1.0,3.0,501.5023009777069,None,pt3,1,2023-03-30_11h44.39.847,threat_forest,2021.2.3,59.81787817376163,False,24.0,0.55,0.45,-0.91,-1.2200000000000002,0,0,0,-0.0420592679173762,-0.0316195,0.36,0.36,0.6,0.6,-1.4000000000000004,-1.3200000000000005,2.68,2.68,0.0,1.0,-1.0,4.0,0,0,0,0.37623846676259504,0.2346830828907267,0.17579837268806853,0.3624017080024161,0.2310667100393477,0.15268283790637627,0.5031403613225257,0.24999013813076396,0.13918076050438977,0.47287309971548447,0.2492641312809539,0.1161452750921721,0.4214179470634546,0.24382486095627803,0.1292785299125182,0.3367891383225276,0.22336221463049702,0.15267097469650026,0.4660694334717837,0.24884871665507424,0.12450407315364839,0.41209362341947947,0.24227246895648366,0.14069108686941442,0.5593646400100805,0.24647583951647356,0.27013608999364425,0.23289411408836436,0.17865444571136033,0.1693650844448502
13.0,0.0,13.0,0.0,4.0,0.0,4.0,0.0,,,,left,0.7977309226989746,507.1782338619232,pt3,507.1782338619232,None,503.27578997612,505.2900478839874,True,3.0,['r'],True,0.5,0.5,0.0,0.0,1.0,0.6309297535714574,0.134975,succ_gain,0.0,4.0,505.2900478839874,None,pt3,1,2023-03-30_11h44.39.847,threat_forest,2021.2.3,59.81787817376163,True,24.0,0.55,0.45,-0.91,-1.2200000000000002,1,1,1,-0.2259839279938063,0.134975,0.5,0.5,0.5,1.0,-0.5,-0.5,2.5,2.5,1.0,1.0,-1.0,3.0,0,1,1,0.5500026379781999,0.24749973619522103,0.07049885249337606,0.5523663317852345,0.24725776729535873,0.11244833364213291,0.5031403613225257,0.24999013813076396,0.13918076050438977,0.46609526795551814,0.24885046914499187,0.12004862345640577,0.5026864725936552,0.2499927828650035,0.10886359973798343,0.5789514024322276,0.24376667605398442,0.09639016107770548,0.5455636931917852,0.2479239498627248,0.12429055087147155,0.41209362341947947,0.24227246895648366,0.14069108686941442,0.8069921515937054,0.1557558188598674,0.12988757238026905,0.9457888519693225,0.05127229945987356,0.010358782456517238
13.0,0.0,13.0,0.0,5.0,0.0,5.0,0.0,,,,right,0.9681351184844972,512.0147860050201,pt3,512.0147860050201,None,503.27578997612,505.2900478839874,False,4.0,['r'],True,0.5,0.5,0.0,0.0,1.0,0.6309297535714574,-0.2675,wait_cost,0.0,3.0,510.0124080181122,None,pt3,1,2023-03-30_11h44.39.847,threat_forest,2021.2.3,59.81787817376163,False,24.0,0.55,0.45,-0.91,-1.2200000000000002,1,1,0,-0.0323836162354117,-0.2675,0.0,0.5,0.5,1.0,-0.5,-0.5,3.5,3.5,1.0,1.0,1.0,4.0,0,1,1,0.5500026379781999,0.24749973619522103,0.07049885249337606,0.5523663317852345,0.24725776729535873,0.11244833364213291,0.31323454365980463,0.21511866431803858,0.05698365040737874,0.46609526795551814,0.24885046914499187,0.12004862345640577,0.5026864725936552,0.2499927828650035,0.10886359973798343,0.5789514024322276,0.24376667605398442,0.09639016107770548,0.5455636931917852,0.2479239498627248,0.12429055087147155,0.41209362341947947,0.24227246895648366,0.14069108686941442,0.055905846652134134,0.0527803829622422,-0.029307191142763825,0.000978919320261786,0.0009779610372262044,-0.05242173270097129
13.0,0.0,13.0,0.0,6.0,0.0,6.0,0.0,,,,right,0.8064241409301758,516.8322010040283,pt3,516.8322010040283,None,503.27578997612,505.2900478839874,False,3.0,['r'],True,0.5,0.5,0.0,0.0,1.0,0.6309297535714574,-0.285,wait_cost,0.0,2.0,515.017805814743,None,pt3,1,2023-03-30_11h44.39.847,threat_forest,2021.2.3,59.81787817376163,False,24.0,0.55,0.45,-0.91,-1.2200000000000002,1,1,0,-0.2151454454437612,-0.285,0.0,0.5,0.5,1.0,-0.5,-0.5,2.5,2.5,1.0,1.0,-1.0,3.0,0,1,1,0.5500026379781999,0.24749973619522103,0.07049885249337606,0.5523663317852345,0.24725776729535873,0.11244833364213291,0.5031403613225257,0.24999013813076396,0.13918076050438977,0.46609526795551814,0.24885046914499187,0.12004862345640577,0.5026864725936552,0.2499927828650035,0.10886359973798343,0.5789514024322276,0.24376667605398442,0.09639016107770548,0.5455636931917852,0.2479239498627248,0.12429055087147155,0.41209362341947947,0.24227246895648366,0.14069108686941442,0.055905846652134134,0.0527803829622422,-0.029307191142763825,0.0006398482688354045,0.0006394388630282731,-0.052844297092012354
13.0,0.0,13.0,0.0,7.0,0.0,7.0,0.0,,,,left,0.931171178817749,520.8971419334412,pt3,517.6752510070801,519.6901648044586,520.8971419334412,None,False,2.0,['r'],False,0.36,0.6,0.4,2.0,1.0,0.9801625908629508,-0.64,wait_cost,1.0,1.0,519.6901648044586,None,pt3,1,2023-03-30_11h44.39.847,threat_forest,2021.2.3,59.81787817376163,False,24.0,0.55,0.45,-0.91,-1.2200000000000002,0,0,0,-0.071312153066257,-0.64,0.0,0.36,0.6,0.6,-1.4000000000000004,-1.3200000000000005,0.6799999999999997,0.6799999999999997,0.0,1.0,-1.0,2.0,0,0,0,0.37623846676259504,0.2346830828907267,0.17579837268806853,0.3624017080024161,0.2310667100393477,0.15268283790637627,0.5031403613225257,0.24999013813076396,0.13918076050438977,0.47287309971548447,0.2492641312809539,0.1161452750921721,0.4214179470634546,0.24382486095627803,0.1292785299125182,0.3367891383225276,0.22336221463049702,0.15267097469650026,0.4660694334717837,0.24884871665507424,0.12450407315364839,0.41209362341947947,0.24227246895648366,0.14069108686941442,0.055905846652134134,0.0527803829622422,-0.029307191142763825,1.1407867061274122e-07,1.1407865759879821e-07,-0.05364234197289834
14.0,0.0,14.0,0.0,0.0,0.0,0.0,0.0,527.3745918273926,530.885904788971,None,left,1.766611099243164,532.9835028648376,pt3,527.3745918273926,530.885904788971,532.9835028648376,None,False,5.0,['p'],False,0.2,0.2,0.0,0.0,2.0,0.4554859150035951,0.0071816455152592,wait_cost,1.0,4.0,,,pt3,1,2023-03-30_11h44.39.847,threat_forest,2021.2.3,59.81787817376163,False,37.0,0.2666666666666666,0.4083333333333333,-1.1277777777777778,-1.018888888888889,0,0,0,0.569063078136716,0.0071816455152592,0.2,0.2,0.2,1.0,-1.2000000000000002,-1.2000000000000002,3.8,3.8,0.0,2.0,-1.0,5.0,0,0,0,0.37623846676259504,0.2346830828907267,0.17579837268806853,0.5523663317852345,0.24725776729535873,0.11244833364213291,0.5031403613225257,0.24999013813076396,0.13918076050438977,0.4458465713919433,0.24706740616999207,0.13687374555902476,0.4392681452580659,0.24631164181960466,0.12104764462644413,0.3367891383225276,0.22336221463049702,0.15267097469650026,0.3775050123704315,0.23499497800563185,0.12130534032978128,0.41209362341947947,0.24227246895648366,0.14069108686941442,0.24532544550729715,0.18514087129394335,0.17531536234374445,0.4381948767990184,0.2461801267461115,0.25365483105801956
14.0,0.0,14.0,0.0,1.0,0.0,1.0,0.0,,,,right,1.7709498405456543,539.496298789978,pt3,527.3745918273926,530.885904788971,539.496298789978,None,True,4.0,['p'],False,0.2,0.2,0.0,0.0,2.0,0.4554859150035951,0.0032219477467866,succ_gain,1.0,6.0,536.7926888465881,None,pt3,1,2023-03-30_11h44.39.847,threat_forest,2021.2.3,59.81787817376163,True,37.0,0.2666666666666666,0.4083333333333333,-1.1277777777777778,-1.018888888888889,0,0,1,0.5715160357263407,0.0032219477467866,0.2,0.2,0.2,1.0,-1.2000000000000002,-1.2000000000000002,2.8,2.8,0.0,2.0,-1.0,4.0,0,0,0,0.37623846676259504,0.2346830828907267,0.17579837268806853,0.5523663317852345,0.24725776729535873,0.11244833364213291,0.5031403613225257,0.24999013813076396,0.13918076050438977,0.4458465713919433,0.24706740616999207,0.13687374555902476,0.4392681452580659,0.24631164181960466,0.12104764462644413,0.3367891383225276,0.22336221463049702,0.15267097469650026,0.3775050123704315,0.23499497800563185,0.12130534032978128,0.41209362341947947,0.24227246895648366,0.14069108686941442,0.24532544550729715,0.18514087129394335,0.17531536234374445,0.4146484551277964,0.24271511378792823,0.2493295867986346
14.0,0.0,14.0,0.0,2.0,0.0,2.0,0.0,,,,left,1.0410730838775637,546.7401599884033,pt3,527.3745918273926,530.885904788971,546.7401599884033,None,False,6.0,['p'],False,0.2,0.2,0.0,0.0,2.0,0.4554859150035951,0.0054966620941929,wait_cost,1.0,5.0,543.3061590194702,None,pt3,1,2023-03-30_11h44.39.847,threat_forest,2021.2.3,59.81787817376163,False,37.0,0.2666666666666666,0.4083333333333333,-1.1277777777777778,-1.018888888888889,0,0,0,0.0402519926224959,0.0054966620941929,0.2,0.2,0.2,1.0,-1.2000000000000002,-1.2000000000000002,4.8,4.8,0.0,2.0,1.0,6.0,0,0,0,0.37623846676259504,0.2346830828907267,0.17579837268806853,0.5523663317852345,0.24725776729535873,0.11244833364213291,0.31323454365980463,0.21511866431803858,0.05698365040737874,0.4458465713919433,0.24706740616999207,0.13687374555902476,0.4392681452580659,0.24631164181960466,0.12104764462644413,0.3367891383225276,0.22336221463049702,0.15267097469650026,0.3775050123704315,0.23499497800563185,0.12130534032978128,0.41209362341947947,0.24227246895648366,0.14069108686941442,0.24532544550729715,0.18514087129394335,0.17531536234374445,0.4281346032618636,0.24483536475167023,0.2519762156626688
14.0,0.0,14.0,0.0,3.0,0.0,3.0,0.0,,,,right,0.8969230651855469,550.560017824173,pt3,550.560017824173,None,547.8106698989868,549.8204379081726,False,5.0,['p'],True,0.2777777777777778,0.3333333333333333,0.1666666666666666,1.0,2.0,0.8929352898779304,0.1096124828532236,wait_cost,0.0,4.0,549.8204379081726,None,pt3,1,2023-03-30_11h44.39.847,threat_forest,2021.2.3,59.81787817376163,False,37.0,0.2666666666666666,0.4083333333333333,-1.1277777777777778,-1.018888888888889,0,0,0,-0.1087851896256305,0.1096124828532236,0.2777777777777778,0.2777777777777778,0.3333333333333333,0.8333333333333334,-1.1666666666666663,-1.0555555555555556,3.9444444444444446,3.9444444444444446,1.0,2.0,-1.0,5.0,0,0,0,0.5500026379781999,0.24749973619522103,0.07049885249337606,0.47183979259122305,0.24920700271869473,0.10760451648355229,0.5031403613225257,0.24999013813076396,0.13918076050438977,0.454827865168864,0.24795947823479766,0.12845608357785387,0.442259818898273,0.24666607148633976,0.11987453364915612,0.3367891383225276,0.22336221463049702,0.15267097469650026,0.41992042208158525,0.24358726120040852,0.1232892393322502,0.41209362341947947,0.24227246895648366,0.14069108686941442,0.3866349886953538,0.2371483742118975,0.2557163051149718,0.9039910411324873,0.08679123868468902,0.0546957271766674
