miniblock.thisRepN,miniblock.thisTrialN,miniblock.thisN,miniblock.thisIndex,day.thisRepN,day.thisTrialN,day.thisN,day.thisIndex,forest.started,fixation_forest.started,fixation_forest.stopped,key_resp.keys,key_resp.rt,key_resp.started,Subject_ID,weather_left.started,weather_left.stopped,weather_right.started,weather_right.stopped,foraging T/F,in_LP,p/r heuristic,good_weather.T/F,p_succ_correct,p_succ_uncorrected,r_threat,n_oponents,gain_if_succ,weather_entropy,OP_value_difference,action_outcome,forest_side_L=0_R=1,out_LP,fixation_day.started,fixation_day.stopped,participant,session,date,expName,psychopyVersion,frameRate,foraging T/F NaNs,fora_NR,forest_mean_p,mvt_cutoff_p,forest_mean_ev,mvt_cutoff_ev,mvt_policy_eg,mvt_policy_p,fora_response,logRT,optimal policy,$\mathit{p}$ success cor + cap,$\mathit{p}$ success cor,$\mathit{p}$ success,risk threat encounter,expected gain naive,expected gain correct,expected state no bounds,expected state with bounds,weather type,gain magnitude,win stay lose shift,continuous energy state,binary energy state,$\mathit{p}$ success based MVT,expected gain based MVT,weather type fit,weather type_uncertain,weather type_uncertain_fit,risk threat encounter fit,risk threat encounter_uncertain,risk threat encounter_uncertain_fit,win stay lose shift fit,win stay lose shift_uncertain,win stay lose shift_uncertain_fit,$\mathit{p}$ success fit,$\mathit{p}$ success_uncertain,$\mathit{p}$ success_uncertain_fit,expected gain naive fit,expected gain naive_uncertain,expected gain naive_uncertain_fit,expected gain based MVT fit,expected gain based MVT_uncertain,expected gain based MVT_uncertain_fit,$\mathit{p}$ success cor fit,$\mathit{p}$ success cor_uncertain,$\mathit{p}$ success cor_uncertain_fit,binary energy state fit,binary energy state_uncertain,binary energy state_uncertain_fit,$\mathit{p}$ success cor + cap fit,$\mathit{p}$ success cor + cap_uncertain,$\mathit{p}$ success cor + cap_uncertain_fit,optimal policy fit,optimal policy_uncertain,optimal policy_uncertain_fit
0.0,0.0,0.0,0.0,0.0,0.0,0.0,0.0,32.89644769998267,36.40041349991225,None,right,2.403665400110185,39.388858099933714,xt17,32.89644769998267,36.40041349991225,39.388858099933714,None,True,4.0,['p'],False,0.27,0.3,0.1,1.0,1.0,0.7963326591781347,0.00800026338778,succ_gain,1.0,5.0,,,xt17,1,2022-04-21_14h26.14.214,threat_forest,2021.2.3,59.92846936451807,True,6.0,0.4833333333333333,0.4833333333333333,-1.145,-1.145,0,0,1,0.8769948223395337,0.00800026338778,0.27,0.27,0.3,0.9,-1.4,-1.29,2.71,2.71,0.0,1.0,,4.0,0,0,0,0.3872838392515488,0.23729506710612927,0.33750317263820523,0.4613171607745467,0.24850363794945773,0.32042013570151145,,,,0.33636252215649903,0.22322277584501776,0.29087414243161147,0.3260763766436443,0.21975057323859654,0.32322830200192126,0.3246772287813176,0.21926192589220153,0.32090231046972495,0.3304187907194648,0.22124221345895131,0.3310618537528683,0.3661015182829299,0.2320711965938634,0.33239359214764064,0.26909587531068574,0.19668328520146158,0.36275464441642824,0.32822307592363614,0.22049268835486313,0.35676810712466
0.0,0.0,0.0,0.0,1.0,0.0,1.0,0.0,,,,left,1.4438672000542283,45.20106059988029,xt17,45.20106059988029,None,41.81750790006481,43.81764529994689,True,5.0,['p'],True,0.4444444444444445,0.6666666666666666,0.3333333333333333,1.0,1.0,0.9656336071428248,0.0567567681136075,succ_gain,0.0,6.0,43.81764529994689,None,xt17,1,2022-04-21_14h26.14.214,threat_forest,2021.2.3,59.92846936451807,True,6.0,0.4833333333333333,0.4833333333333333,-1.145,-1.145,1,0,1,0.3673250695199877,0.0567567681136075,0.4444444444444445,0.4444444444444445,0.6666666666666666,0.6666666666666667,-1.0,-1.0,4.0,4.0,1.0,1.0,1.0,5.0,0,0,1,0.49700971563917695,0.24999105819944142,0.3157863524831333,0.3988302951277146,0.23976469081605464,0.3346070653783502,0.27999549475640384,0.20159801767252047,0.3564634264769453,0.6150602652725738,0.2367611353554049,0.3427421549975552,0.43364247253517485,0.24559667854875497,0.3613894705001534,0.5376398827493908,0.24858323922661213,0.3317495371976083,0.5755163310131088,0.2442972837503186,0.38903000032330853,0.3661015182829299,0.2320711965938634,0.33239359214764064,0.5581746453068231,0.24661571064342527,0.415605309581056,0.523957077646118,0.24942605843065788,0.3844274792009899
0.0,0.0,0.0,0.0,2.0,0.0,2.0,0.0,,,,left,2.3919657999649644,50.46799180004746,xt17,50.46799180004746,None,41.81750790006481,43.81764529994689,True,6.0,['p'],True,0.4444444444444445,0.6666666666666666,0.3333333333333333,1.0,1.0,0.9656336071428248,0.0551935944575162,succ_gain,0.0,6.0,48.66747420001775,None,xt17,1,2022-04-21_14h26.14.214,threat_forest,2021.2.3,59.92846936451807,True,6.0,0.4833333333333333,0.4833333333333333,-1.145,-1.145,1,0,1,0.8721155383126628,0.0551935944575162,0.4444444444444445,0.4444444444444445,0.6666666666666666,0.6666666666666667,-1.0,-1.0,5.0,5.0,1.0,1.0,1.0,6.0,0,0,1,0.49700971563917695,0.24999105819944142,0.3157863524831333,0.3988302951277146,0.23976469081605464,0.3346070653783502,0.27999549475640384,0.20159801767252047,0.3564634264769453,0.6150602652725738,0.2367611353554049,0.3427421549975552,0.43364247253517485,0.24559667854875497,0.3613894705001534,0.5376398827493908,0.24858323922661213,0.3317495371976083,0.5755163310131088,0.2442972837503186,0.38903000032330853,0.3661015182829299,0.2320711965938634,0.33239359214764064,0.5581746453068231,0.24661571064342527,0.415605309581056,0.5174589096652696,0.24969518647329994,0.38468475696186294
0.0,0.0,0.0,0.0,3.0,0.0,3.0,0.0,,,,left,1.805174299981445,56.37222360004671,xt17,52.88442280003801,54.88410030002706,56.37222360004671,None,False,6.0,['p'],False,0.27,0.3,0.1,1.0,1.0,0.7963326591781347,-0.3339464734825103,wait_cost,1.0,5.0,54.88410030002706,None,xt17,1,2022-04-21_14h26.14.214,threat_forest,2021.2.3,59.92846936451807,False,6.0,0.4833333333333333,0.4833333333333333,-1.145,-1.145,0,0,0,0.5906571522094095,-0.3339464734825103,0.0,0.27,0.3,0.9,-1.4,-1.29,4.71,4.71,0.0,1.0,-1.0,6.0,0,0,0,0.3872838392515488,0.23729506710612927,0.33750317263820523,0.4613171607745467,0.24850363794945773,0.32042013570151145,0.4671328566042226,0.2489197508850014,0.31980693281974437,0.33636252215649903,0.22322277584501776,0.29087414243161147,0.3260763766436443,0.21975057323859654,0.32322830200192126,0.3246772287813176,0.21926192589220153,0.32090231046972495,0.3304187907194648,0.22124221345895131,0.3310618537528683,0.3661015182829299,0.2320711965938634,0.33239359214764064,0.05178051072346333,0.04909928943268064,0.20654528196317623,0.0016390108466884429,0.001636324490132881,0.1475484557826468
0.0,0.0,0.0,0.0,4.0,0.0,4.0,0.0,,,,right,2.056655399966985,62.83474369999021,xt17,52.88442280003801,54.88410030002706,62.83474369999021,None,True,5.0,['p'],False,0.27,0.3,0.1,1.0,1.0,0.7963326591781347,-0.3689703611111111,succ_gain,1.0,6.0,60.20088010001928,None,xt17,1,2022-04-21_14h26.14.214,threat_forest,2021.2.3,59.92846936451807,True,6.0,0.4833333333333333,0.4833333333333333,-1.145,-1.145,0,0,1,0.7210810710981939,-0.3689703611111111,0.0,0.27,0.3,0.9,-1.4,-1.29,3.71,3.71,0.0,1.0,-1.0,5.0,0,0,0,0.3872838392515488,0.23729506710612927,0.33750317263820523,0.4613171607745467,0.24850363794945773,0.32042013570151145,0.4671328566042226,0.2489197508850014,0.31980693281974437,0.33636252215649903,0.22322277584501776,0.29087414243161147,0.3260763766436443,0.21975057323859654,0.32322830200192126,0.3246772287813176,0.21926192589220153,0.32090231046972495,0.3304187907194648,0.22124221345895131,0.3310618537528683,0.3661015182829299,0.2320711965938634,0.33239359214764064,0.05178051072346333,0.04909928943268064,0.20654528196317623,0.000915235863820944,0.0009143982071345202,0.14685831745376135
0.0,0.0,0.0,0.0,5.0,0.0,5.0,0.0,,,,left,1.999293399974704,69.3513853000477,xt17,52.88442280003801,54.88410030002706,69.3513853000477,None,False,6.0,['p'],False,0.27,0.3,0.1,1.0,1.0,0.7963326591781347,0.0,wait_cost,1.0,5.0,66.91760899988003,None,xt17,1,2022-04-21_14h26.14.214,threat_forest,2021.2.3,59.92846936451807,False,6.0,0.4833333333333333,0.4833333333333333,-1.145,-1.145,0,0,0,0.6927938181221442,0.0,0.0,0.27,0.3,0.9,-1.4,-1.29,4.71,4.71,0.0,1.0,1.0,6.0,0,0,0,0.3872838392515488,0.23729506710612927,0.33750317263820523,0.4613171607745467,0.24850363794945773,0.32042013570151145,0.27999549475640384,0.20159801767252047,0.3564634264769453,0.33636252215649903,0.22322277584501776,0.29087414243161147,0.3260763766436443,0.21975057323859654,0.32322830200192126,0.3246772287813176,0.21926192589220153,0.32090231046972495,0.3304187907194648,0.22124221345895131,0.3310618537528683,0.3661015182829299,0.2320711965938634,0.33239359214764064,0.05178051072346333,0.04909928943268064,0.20654528196317623,0.2995392619308845,0.20981549249278547,0.3465610509709035
0.0,0.0,0.0,0.0,6.0,0.0,6.0,0.0,,,,left,1.6118672001175582,76.65225640009157,xt17,52.88442280003801,54.88410030002706,76.65225640009157,None,False,5.0,['p'],False,0.27,0.3,0.1,1.0,1.0,0.7963326591781347,0.0,wait_cost,1.0,4.0,73.36775259999558,None,xt17,1,2022-04-21_14h26.14.214,threat_forest,2021.2.3,59.92846936451807,False,6.0,0.4833333333333333,0.4833333333333333,-1.145,-1.145,0,0,0,0.4773932586297801,0.0,0.0,0.27,0.3,0.9,-1.4,-1.29,3.71,3.71,0.0,1.0,-1.0,5.0,0,0,0,0.3872838392515488,0.23729506710612927,0.33750317263820523,0.4613171607745467,0.24850363794945773,0.32042013570151145,0.4671328566042226,0.2489197508850014,0.31980693281974437,0.33636252215649903,0.22322277584501776,0.29087414243161147,0.3260763766436443,0.21975057323859654,0.32322830200192126,0.3246772287813176,0.21926192589220153,0.32090231046972495,0.3304187907194648,0.22124221345895131,0.3310618537528683,0.3661015182829299,0.2320711965938634,0.33239359214764064,0.05178051072346333,0.04909928943268064,0.20654528196317623,0.2995392619308845,0.20981549249278547,0.3465610509709035
0.0,0.0,0.0,0.0,7.0,0.0,7.0,0.0,,,,right,2.3233151000458747,82.38524309988134,xt17,82.38524309988134,None,78.2848062000703,80.28450100007467,False,4.0,['p'],True,0.4444444444444445,0.6666666666666666,0.3333333333333333,1.0,1.0,0.9656336071428248,0.0,wait_cost,0.0,3.0,80.28450100007467,None,xt17,1,2022-04-21_14h26.14.214,threat_forest,2021.2.3,59.92846936451807,False,6.0,0.4833333333333333,0.4833333333333333,-1.145,-1.145,1,0,0,0.8429950881736175,0.0,0.0,0.4444444444444445,0.6666666666666666,0.6666666666666667,-1.0,-1.0,3.0,3.0,1.0,1.0,-1.0,4.0,0,0,1,0.49700971563917695,0.24999105819944142,0.3157863524831333,0.3988302951277146,0.23976469081605464,0.3346070653783502,0.4671328566042226,0.2489197508850014,0.31980693281974437,0.6150602652725738,0.2367611353554049,0.3427421549975552,0.43364247253517485,0.24559667854875497,0.3613894705001534,0.5376398827493908,0.24858323922661213,0.3317495371976083,0.5755163310131088,0.2442972837503186,0.38903000032330853,0.3661015182829299,0.2320711965938634,0.33239359214764064,0.05178051072346333,0.04909928943268064,0.20654528196317623,0.2995392619308845,0.20981549249278547,0.3465610509709035
1.0,0.0,1.0,0.0,0.0,0.0,0.0,0.0,88.97963030007668,92.48471889994109,None,right,0.943366400199011,94.6352462999057,xt17,88.97963030007668,92.48471889994107,94.6352462999057,None,True,5.0,['p'],False,0.4444444444444445,0.6666666666666666,0.3333333333333333,1.0,1.0,0.9656336071428248,0.0467066160950204,figh_cost,1.0,2.0,,,xt17,1,2022-04-21_14h26.14.214,threat_forest,2021.2.3,59.92846936451807,True,57.0,0.4583333333333333,0.4708333333333333,-1.34375,-1.244375,1,0,1,-0.0583005244128137,0.0467066160950204,0.4444444444444445,0.4444444444444445,0.6666666666666666,0.6666666666666667,-1.0,-1.0,4.0,4.0,0.0,1.0,-1.0,5.0,0,0,1,0.3872838392515488,0.23729506710612927,0.33750317263820523,0.3988302951277146,0.23976469081605464,0.3346070653783502,0.4671328566042226,0.2489197508850014,0.31980693281974437,0.6150602652725738,0.2367611353554049,0.3427421549975552,0.43364247253517485,0.24559667854875497,0.3613894705001534,0.5376398827493908,0.24858323922661213,0.3317495371976083,0.5755163310131088,0.2442972837503186,0.38903000032330853,0.3661015182829299,0.2320711965938634,0.33239359214764064,0.5581746453068231,0.24661571064342527,0.415605309581056,0.48213183245375013,0.2496807285885392,0.384670935688607
1.0,0.0,1.0,0.0,1.0,0.0,1.0,0.0,,,,right,0.9981099001597612,98.13541230000556,xt17,88.97963030007668,92.48471889994107,98.13541230000556,None,True,2.0,['p'],False,0.4444444444444445,0.6666666666666666,0.3333333333333333,1.0,1.0,0.9656336071428248,0.034685865190818,figh_cost,1.0,0.0,97.6014553999994,None,xt17,1,2022-04-21_14h26.14.214,threat_forest,2021.2.3,59.92846936451807,True,57.0,0.4583333333333333,0.4708333333333333,-1.34375,-1.244375,1,0,1,-0.0018918883329169,0.034685865190818,0.4444444444444445,0.4444444444444445,0.6666666666666666,0.6666666666666667,-1.0,-1.0,1.0,1.0,0.0,1.0,-1.0,2.0,0,0,1,0.3872838392515488,0.23729506710612927,0.33750317263820523,0.3988302951277146,0.23976469081605464,0.3346070653783502,0.4671328566042226,0.2489197508850014,0.31980693281974437,0.6150602652725738,0.2367611353554049,0.3427421549975552,0.43364247253517485,0.24559667854875497,0.3613894705001534,0.5376398827493908,0.24858323922661213,0.3317495371976083,0.5755163310131088,0.2442972837503186,0.38903000032330853,0.3661015182829299,0.2320711965938634,0.33239359214764064,0.5581746453068231,0.24661571064342527,0.415605309581056,0.4324819049614998,0.24544130684237206,0.380618184724632
2.0,0.0,2.0,0.0,0.0,0.0,0.0,0.0,103.32474120007828,106.83482409990393,None,left,2.2818126000929624,109.13689019996671,xt17,103.32474120007828,106.83482409990393,109.13689019996671,None,False,5.0,['p'],False,0.2040816326530612,0.2857142857142857,0.2857142857142857,2.0,2.0,0.9335459102197724,-0.0417655517413427,wait_cost,1.0,4.0,,,xt17,1,2022-04-21_14h26.14.214,threat_forest,2021.2.3,59.92846936451807,False,21.0,0.4761904761904761,0.4672619047619047,-1.012471655328798,-1.178110827664399,0,0,0,0.8249701271619768,-0.0417655517413427,0.2040816326530612,0.2040816326530612,0.2857142857142857,0.7142857142857143,-1.7142857142857144,-1.469387755102041,3.5306122448979598,3.5306122448979598,0.0,2.0,-1.0,5.0,0,0,0,0.3872838392515488,0.23729506710612927,0.33750317263820523,0.4113858709950624,0.24214753614069634,0.3307387207671028,0.4671328566042226,0.2489197508850014,0.31980693281974437,0.3264510179082336,0.21988075081491174,0.27807021326100245,0.25225674367502865,0.18862327894549957,0.2772695817940429,0.3246772287813176,0.21926192589220153,0.32090231046972495,0.2519563691896952,0.18847435721444122,0.24867251945133195,0.3661015182829299,0.2320711965938634,0.33239359214764064,0.18768472108490183,0.15245916655618444,0.3159459010791168,0.17578359515509032,0.14488372282944162,0.2844883656256363
2.0,0.0,2.0,0.0,1.0,0.0,1.0,0.0,,,,left,2.0073467998299748,116.7688833998982,xt17,116.7688833998982,None,111.43525139987467,113.43493009987287,True,4.0,['p'],True,0.4444444444444445,0.6666666666666666,0.3333333333333333,1.0,2.0,0.9656336071428248,0.1275977123343487,figh_cost,0.0,1.0,113.43493009987289,None,xt17,1,2022-04-21_14h26.14.214,threat_forest,2021.2.3,59.92846936451807,True,21.0,0.4761904761904761,0.4672619047619047,-1.012471655328798,-1.178110827664399,1,0,1,0.6968138500188671,0.1275977123343487,0.4444444444444445,0.4444444444444445,0.6666666666666666,0.6666666666666667,-0.3333333333333335,-0.5555555555555556,3.4444444444444446,3.4444444444444446,1.0,2.0,-1.0,4.0,0,0,1,0.49700971563917695,0.24999105819944142,0.3157863524831333,0.3988302951277146,0.23976469081605464,0.3346070653783502,0.4671328566042226,0.2489197508850014,0.31980693281974437,0.6150602652725738,0.2367611353554049,0.3427421549975552,0.6219801571806755,0.23512084125417773,0.34592214235298757,0.5376398827493908,0.24858323922661213,0.3317495371976083,0.5755163310131088,0.2442972837503186,0.38903000032330853,0.3661015182829299,0.2320711965938634,0.33239359214764064,0.5581746453068231,0.24661571064342527,0.415605309581056,0.7817503239394115,0.17061675496003667,0.30908831746283094
3.0,0.0,3.0,0.0,0.0,0.0,0.0,0.0,128.6266383000184,132.13520139991306,None,right,0.7374553000554442,134.45416700001806,xt17,128.6266383000184,132.13520139991306,134.45416700001806,None,True,5.0,['p'],False,0.2,0.2,0.0,0.0,2.0,0.4554859150035951,-0.008629770690918,succ_gain,1.0,6.0,,,xt17,1,2022-04-21_14h26.14.214,threat_forest,2021.2.3,59.92846936451807,True,45.0,0.35,0.413095238095238,-0.975,-0.993735827664399,0,0,1,-0.304549802699341,-0.008629770690918,0.2,0.2,0.2,1.0,-1.2000000000000002,-1.2000000000000002,3.8,3.8,0.0,2.0,-1.0,5.0,0,0,0,0.3872838392515488,0.23729506710612927,0.33750317263820523,0.488595263070095,0.24986993197555965,0.31820207476461637,0.4671328566042226,0.2489197508850014,0.31980693281974437,0.27038176708643596,0.19727546711365226,0.19146510145450413,0.3783646741358678,0.23520484750192636,0.34604617560816353,0.3246772287813176,0.21926192589220153,0.32090231046972495,0.24752554006106128,0.1862566470785412,0.24309645550600795,0.3661015182829299,0.2320711965938634,0.33239359214764064,0.18332600936598162,0.14971758365592566,0.3130440897090472,0.2702728957952569,0.19722545759370308,0.33452538216303707
3.0,0.0,3.0,0.0,1.0,0.0,1.0,0.0,,,,right,1.0729882000014186,138.01935989991762,xt17,128.6266383000184,132.13520139991306,138.01935989991762,None,True,6.0,['p'],False,0.2,0.2,0.0,0.0,2.0,0.4554859150035951,-0.0656154916381837,succ_gain,1.0,6.0,137.21865779999644,None,xt17,1,2022-04-21_14h26.14.214,threat_forest,2021.2.3,59.92846936451807,True,45.0,0.35,0.413095238095238,-0.975,-0.993735827664399,0,0,1,0.0704474663853131,-0.0656154916381837,0.2,0.2,0.2,1.0,-1.2000000000000002,-1.2000000000000002,4.8,4.8,0.0,2.0,1.0,6.0,0,0,0,0.3872838392515488,0.23729506710612927,0.33750317263820523,0.488595263070095,0.24986993197555965,0.31820207476461637,0.27999549475640384,0.20159801767252047,0.3564634264769453,0.27038176708643596,0.19727546711365226,0.19146510145450413,0.3783646741358678,0.23520484750192636,0.34604617560816353,0.3246772287813176,0.21926192589220153,0.32090231046972495,0.24752554006106128,0.1862566470785412,0.24309645550600795,0.3661015182829299,0.2320711965938634,0.33239359214764064,0.18332600936598162,0.14971758365592566,0.3130440897090472,0.12537930959871987,0.10965933832326824,0.2508149859030635
3.0,0.0,3.0,0.0,2.0,0.0,2.0,0.0,,,,right,0.7174420999363065,142.08604829991236,xt17,128.6266383000184,132.13520139991306,142.08604829991236,None,True,6.0,['p'],False,0.2,0.2,0.0,0.0,2.0,0.4554859150035951,0.0017642578125,unsucc_cost,1.0,4.0,141.11872350005433,None,xt17,1,2022-04-21_14h26.14.214,threat_forest,2021.2.3,59.92846936451807,True,45.0,0.35,0.413095238095238,-0.975,-0.993735827664399,0,0,1,-0.3320630315574181,0.0017642578125,0.2,0.2,0.2,1.0,-1.2000000000000002,-1.2000000000000002,4.8,4.8,0.0,2.0,-1.0,6.0,0,0,0,0.3872838392515488,0.23729506710612927,0.33750317263820523,0.488595263070095,0.24986993197555965,0.31820207476461637,0.4671328566042226,0.2489197508850014,0.31980693281974437,0.27038176708643596,0.19727546711365226,0.19146510145450413,0.3783646741358678,0.23520484750192636,0.34604617560816353,0.3246772287813176,0.21926192589220153,0.32090231046972495,0.24752554006106128,0.1862566470785412,0.24309645550600795,0.3661015182829299,0.2320711965938634,0.33239359214764064,0.18332600936598162,0.14971758365592566,0.3130440897090472,0.30574123086098554,0.21226353061259506,0.3489012967506199
3.0,0.0,3.0,0.0,3.0,0.0,3.0,0.0,,,,left,2.932284699985757,146.8695960000623,xt17,128.6266383000184,132.13520139991306,146.8695960000623,None,False,4.0,['p'],False,0.2,0.2,0.0,0.0,2.0,0.4554859150035951,0.00859375,wait_cost,1.0,3.0,144.83538009994663,None,xt17,1,2022-04-21_14h26.14.214,threat_forest,2021.2.3,59.92846936451807,False,45.0,0.35,0.413095238095238,-0.975,-0.993735827664399,0,0,0,1.0757818802605348,0.00859375,0.2,0.2,0.2,1.0,-1.2000000000000002,-1.2000000000000002,2.8,2.8,0.0,2.0,-1.0,4.0,0,0,0,0.3872838392515488,0.23729506710612927,0.33750317263820523,0.488595263070095,0.24986993197555965,0.31820207476461637,0.4671328566042226,0.2489197508850014,0.31980693281974437,0.27038176708643596,0.19727546711365226,0.19146510145450413,0.3783646741358678,0.23520484750192636,0.34604617560816353,0.3246772287813176,0.21926192589220153,0.32090231046972495,0.24752554006106128,0.1862566470785412,0.24309645550600795,0.3661015182829299,0.2320711965938634,0.33239359214764064,0.18332600936598162,0.14971758365592566,0.3130440897090472,0.3304064851124232,0.22123803970807726,0.35748063906795385
3.0,0.0,3.0,0.0,4.0,0.0,4.0,0.0,,,,left,1.40812460007146,154.36939870007336,xt17,154.36939870007336,None,149.8192565999925,151.81895460002124,True,3.0,['p'],True,0.375,0.5,0.25,1.0,2.0,0.9850568223215076,0.1515624999999999,unsucc_cost,0.0,1.0,151.81895460002124,None,xt17,1,2022-04-21_14h26.14.214,threat_forest,2021.2.3,59.92846936451807,True,45.0,0.35,0.413095238095238,-0.975,-0.993735827664399,1,0,1,0.3422587481893896,0.1515624999999999,0.375,0.375,0.5,0.75,-0.75,-0.75,2.25,2.25,1.0,2.0,-1.0,3.0,0,0,1,0.49700971563917695,0.24999105819944142,0.3157863524831333,0.42087982663129003,0.24373999816610528,0.32815349551941153,0.4671328566042226,0.2489197508850014,0.31980693281974437,0.4866865158972237,0.24982275114104513,0.39278367230113453,0.50496417236772,0.24997535699270354,0.3678544865593979,0.5376398827493908,0.24858323922661213,0.3317495371976083,0.4755323266618379,0.24940133296141698,0.40186328467388704,0.3661015182829299,0.2320711965938634,0.33239359214764064,0.4360827510882464,0.24591458529155294,0.4148632078128712,0.842251401975436,0.13286397784584858,0.27299787565184885
3.0,0.0,3.0,0.0,5.0,0.0,5.0,0.0,,,,left,1.0180111001245675,161.5532551999204,xt17,161.5532551999204,None,149.8192565999925,151.81895460002124,True,1.0,['p'],True,0.375,0.5,0.25,1.0,2.0,0.9850568223215076,0.375,succ_gain,0.0,3.0,157.8026119999122,None,xt17,1,2022-04-21_14h26.14.214,threat_forest,2021.2.3,59.92846936451807,True,45.0,0.35,0.413095238095238,-0.975,-0.993735827664399,1,0,1,0.0178508219240587,0.375,1.0,0.375,0.5,0.75,-0.75,-0.75,0.25,0.25,1.0,2.0,-1.0,1.0,1,0,1,0.49700971563917695,0.24999105819944142,0.3157863524831333,0.42087982663129003,0.24373999816610528,0.32815349551941153,0.4671328566042226,0.2489197508850014,0.31980693281974437,0.4866865158972237,0.24982275114104513,0.39278367230113453,0.50496417236772,0.24997535699270354,0.3678544865593979,0.5376398827493908,0.24858323922661213,0.3317495371976083,0.4755323266618379,0.24940133296141698,0.40186328467388704,0.9333345545668317,0.062221163818365496,0.290405778834196,0.9846386325204602,0.015125395868698165,0.17058582561400099,0.9954896629271927,0.004489993932297094,0.1502764720723809
3.0,0.0,3.0,0.0,6.0,0.0,6.0,0.0,,,,right,2.118450300069526,167.43599439994432,xt17,167.43599439994432,None,149.8192565999925,151.81895460002124,False,3.0,['p'],True,0.375,0.5,0.25,1.0,2.0,0.9850568223215076,-0.5171875,wait_cost,0.0,2.0,164.6191396000795,None,xt17,1,2022-04-21_14h26.14.214,threat_forest,2021.2.3,59.92846936451807,False,45.0,0.35,0.413095238095238,-0.975,-0.993735827664399,1,0,0,0.7506848308468264,-0.5171875,0.0,0.375,0.5,0.75,-0.75,-0.75,2.25,2.25,1.0,2.0,1.0,3.0,0,0,1,0.49700971563917695,0.24999105819944142,0.3157863524831333,0.42087982663129003,0.24373999816610528,0.32815349551941153,0.27999549475640384,0.20159801767252047,0.3564634264769453,0.4866865158972237,0.24982275114104513,0.39278367230113453,0.50496417236772,0.24997535699270354,0.3678544865593979,0.5376398827493908,0.24858323922661213,0.3317495371976083,0.4755323266618379,0.24940133296141698,0.40186328467388704,0.3661015182829299,0.2320711965938634,0.33239359214764064,0.05178051072346333,0.04909928943268064,0.20654528196317623,7.75695263725498e-05,7.756350934112817e-05,0.14605833037268454
3.0,0.0,3.0,0.0,7.0,0.0,7.0,0.0,,,,left,1.948027600068599,174.6195529999677,xt17,169.58607960003428,171.58593249996193,174.6195529999677,None,False,2.0,['p'],False,0.2,0.2,0.0,0.0,2.0,0.4554859150035951,-0.8,wait_cost,1.0,1.0,171.58593249996193,None,xt17,1,2022-04-21_14h26.14.214,threat_forest,2021.2.3,59.92846936451807,False,45.0,0.35,0.413095238095238,-0.975,-0.993735827664399,0,0,0,0.6668173735330108,-0.8,0.0,0.2,0.2,1.0,-1.2000000000000002,-1.2000000000000002,0.7999999999999998,0.7999999999999998,0.0,2.0,-1.0,2.0,0,0,0,0.3872838392515488,0.23729506710612927,0.33750317263820523,0.488595263070095,0.24986993197555965,0.31820207476461637,0.4671328566042226,0.2489197508850014,0.31980693281974437,0.27038176708643596,0.19727546711365226,0.19146510145450413,0.3783646741358678,0.23520484750192636,0.34604617560816353,0.3246772287813176,0.21926192589220153,0.32090231046972495,0.24752554006106128,0.1862566470785412,0.24309645550600795,0.3661015182829299,0.2320711965938634,0.33239359214764064,0.05178051072346333,0.04909928943268064,0.20654528196317623,6.979961391112812e-07,6.979956519126715e-07,0.1459848494115176
4.0,0.0,4.0,0.0,1.0,0.0,1.0,0.0,,,,left,1.6128712000790983,192.2033357999753,xt17,186.91972230002284,188.91933589987457,192.2033357999753,None,False,3.0,['p'],False,0.25,0.5,0.5,1.0,2.0,0.9463946303571862,0.0267718626953125,wait_cost,1.0,2.0,188.91933589987457,None,xt17,1,2022-04-21_14h26.14.214,threat_forest,2021.2.3,59.92846936451807,False,8.0,0.35,0.35,-1.5300000000000002,-1.2525000000000002,0,0,0,0.4780159447949088,0.0267718626953125,0.25,0.25,0.5,0.5,-1.5,-1.5,1.5,1.5,0.0,2.0,-1.0,3.0,0,0,0,0.3872838392515488,0.23729506710612927,0.33750317263820523,0.35601594069498266,0.22926859066604927,0.3516465819741207,0.4671328566042226,0.2489197508850014,0.31980693281974437,0.4866865158972237,0.24982275114104513,0.39278367230113453,0.30138102902212344,0.21055050436768943,0.3096446160204192,0.3246772287813176,0.21926192589220153,0.32090231046972495,0.3053040023199887,0.21209346848738506,0.3080588534260416,0.3661015182829299,0.2320711965938634,0.33239359214764064,0.24221491841916032,0.1835468517143598,0.3488504680913433,0.4004584464871936,0.24009147912425707,0.3755039213321557
4.0,0.0,4.0,0.0,2.0,0.0,2.0,0.0,,,,left,1.122816199902445,197.970814100001,xt17,197.970814100001,None,193.8364019000437,195.83631430007517,True,2.0,['p'],True,0.16,0.2,0.2,2.0,2.0,0.8198746470064713,-0.008327462,succ_gain,0.0,4.0,195.8363143000752,None,xt17,1,2022-04-21_14h26.14.214,threat_forest,2021.2.3,59.92846936451807,True,8.0,0.35,0.35,-1.5300000000000002,-1.2525000000000002,0,0,1,0.1158399935297968,-0.008327462,0.16,0.16,0.2,0.8,-1.8000000000000005,-1.5600000000000005,0.4399999999999997,0.4399999999999997,1.0,2.0,-1.0,2.0,0,0,0,0.49700971563917695,0.24999105819944142,0.3157863524831333,0.43426876391399116,0.24567940460260543,0.3250050358354906,0.4671328566042226,0.2489197508850014,0.31980693281974437,0.27038176708643596,0.19727546711365226,0.19146510145450413,0.23416062524413753,0.17932942682941214,0.26354742704989004,0.3246772287813176,0.21926192589220153,0.32090231046972495,0.20691819478819892,0.1641030554537919,0.18739492737637992,0.3661015182829299,0.2320711965938634,0.33239359214764064,0.14471188936352988,0.12377035844036739,0.2855804105530537,0.271267180618552,0.1976812973378139,0.3349611503109061
4.0,0.0,4.0,0.0,3.0,0.0,3.0,0.0,,,,left,1.8711162998806683,203.00347450003028,xt17,199.12001210008748,201.11961090005934,203.00347450003028,None,False,4.0,['p'],False,0.25,0.5,0.5,1.0,2.0,0.9463946303571862,0.0410130625,wait_cost,1.0,3.0,201.1196109000593,None,xt17,1,2022-04-21_14h26.14.214,threat_forest,2021.2.3,59.92846936451807,False,8.0,0.35,0.35,-1.5300000000000002,-1.2525000000000002,0,0,0,0.6265352045694853,0.0410130625,0.25,0.25,0.5,0.5,-1.5,-1.5,2.5,2.5,0.0,2.0,1.0,4.0,0,0,0,0.3872838392515488,0.23729506710612927,0.33750317263820523,0.35601594069498266,0.22926859066604927,0.3516465819741207,0.27999549475640384,0.20159801767252047,0.3564634264769453,0.4866865158972237,0.24982275114104513,0.39278367230113453,0.30138102902212344,0.21055050436768943,0.3096446160204192,0.3246772287813176,0.21926192589220153,0.32090231046972495,0.3053040023199887,0.21209346848738506,0.3080588534260416,0.3661015182829299,0.2320711965938634,0.33239359214764064,0.24221491841916032,0.1835468517143598,0.3488504680913433,0.4585105336926314,0.24827862418552968,0.38333056893315787
4.0,0.0,4.0,0.0,4.0,0.0,4.0,0.0,,,,right,2.343247100012377,209.05581380007789,xt17,209.05581380007789,None,204.90314160007983,206.9032320000697,False,3.0,['p'],True,0.16,0.2,0.2,2.0,2.0,0.8198746470064713,0.0636999999999998,wait_cost,0.0,2.0,206.9032320000697,None,xt17,1,2022-04-21_14h26.14.214,threat_forest,2021.2.3,59.92846936451807,False,8.0,0.35,0.35,-1.5300000000000002,-1.2525000000000002,0,0,0,0.8515376170516201,0.0636999999999998,0.16,0.16,0.2,0.8,-1.8000000000000005,-1.5600000000000005,1.4399999999999995,1.4399999999999995,1.0,2.0,-1.0,3.0,0,0,0,0.49700971563917695,0.24999105819944142,0.3157863524831333,0.43426876391399116,0.24567940460260543,0.3250050358354906,0.4671328566042226,0.2489197508850014,0.31980693281974437,0.27038176708643596,0.19727546711365226,0.19146510145450413,0.23416062524413753,0.17932942682941214,0.26354742704989004,0.3246772287813176,0.21926192589220153,0.32090231046972495,0.20691819478819892,0.1641030554537919,0.18739492737637992,0.3661015182829299,0.2320711965938634,0.33239359214764064,0.14471188936352988,0.12377035844036739,0.2855804105530537,0.5526923242265483,0.24722351896760433,0.3823219222485227
4.0,0.0,4.0,0.0,5.0,0.0,5.0,0.0,,,,left,2.0002921000123024,214.9202344999649,xt17,211.4200744999107,213.41976629989222,214.9202344999649,None,False,2.0,['p'],False,0.25,0.5,0.5,1.0,2.0,0.9463946303571862,0.045,wait_cost,1.0,1.0,213.41976629989225,None,xt17,1,2022-04-21_14h26.14.214,threat_forest,2021.2.3,59.92846936451807,False,8.0,0.35,0.35,-1.5300000000000002,-1.2525000000000002,0,0,0,0.6932932199018327,0.045,0.25,0.25,0.5,0.5,-1.5,-1.5,0.5,0.5,0.0,2.0,-1.0,2.0,0,0,0,0.3872838392515488,0.23729506710612927,0.33750317263820523,0.35601594069498266,0.22926859066604927,0.3516465819741207,0.4671328566042226,0.2489197508850014,0.31980693281974437,0.4866865158972237,0.24982275114104513,0.39278367230113453,0.30138102902212344,0.21055050436768943,0.3096446160204192,0.3246772287813176,0.21926192589220153,0.32090231046972495,0.3053040023199887,0.21209346848738506,0.3080588534260416,0.3661015182829299,0.2320711965938634,0.33239359214764064,0.24221491841916032,0.1835468517143598,0.3488504680913433,0.47503823510974946,0.24937691029356387,0.38438049516120537
4.0,0.0,4.0,0.0,6.0,0.0,6.0,0.0,,,,right,1.3548830999061463,219.7205526998732,xt17,211.4200744999107,213.41976629989222,219.7205526998732,None,True,1.0,['p'],False,0.25,0.5,0.5,1.0,2.0,0.9463946303571862,0.25,unsucc_cost,1.0,0.0,218.9365407000296,None,xt17,1,2022-04-21_14h26.14.214,threat_forest,2021.2.3,59.92846936451807,True,8.0,0.35,0.35,-1.5300000000000002,-1.2525000000000002,0,0,1,0.3037151774779281,0.25,1.0,0.25,0.5,0.5,-1.5,-1.5,-0.5,0.0,0.0,2.0,-1.0,1.0,1,0,0,0.3872838392515488,0.23729506710612927,0.33750317263820523,0.35601594069498266,0.22926859066604927,0.3516465819741207,0.4671328566042226,0.2489197508850014,0.31980693281974437,0.4866865158972237,0.24982275114104513,0.39278367230113453,0.30138102902212344,0.21055050436768943,0.3096446160204192,0.3246772287813176,0.21926192589220153,0.32090231046972495,0.3053040023199887,0.21209346848738506,0.3080588534260416,0.9333345545668317,0.062221163818365496,0.290405778834196,0.9846386325204602,0.015125395868698165,0.17058582561400099,0.9649311775890862,0.033839000105625607,0.1783331789023162
5.0,0.0,5.0,0.0,0.0,0.0,0.0,0.0,226.20664169988595,229.7200444000773,None,right,1.984247000189498,231.62077490007505,xt17,226.20664169988595,229.7200444000773,231.62077490007505,None,True,5.0,['r'],False,0.36,0.6,0.4,2.0,2.0,0.9801625908629508,-0.0333353473,unsucc_cost,1.0,3.0,,,xt17,1,2022-04-21_14h26.14.214,threat_forest,2021.2.3,59.92846936451807,True,67.0,0.55,0.45,-0.4800000000000001,-1.005,1,0,1,0.6852394971769444,-0.0333353473,0.36,0.36,0.6,0.6,-0.8000000000000003,-0.9600000000000002,4.04,4.04,0.0,2.0,-1.0,5.0,0,0,1,0.3872838392515488,0.23729506710612927,0.33750317263820523,0.38147692263656524,0.23595228013230127,0.3407961864983192,0.4671328566042226,0.2489197508850014,0.31980693281974437,0.5646051874087055,0.24582616975988605,0.3774720141094805,0.49062231049249444,0.2499120589395008,0.36776102846794106,0.5376398827493908,0.24858323922661213,0.3317495371976083,0.45391739675692316,0.2478763936783412,0.39802907802193593,0.3661015182829299,0.2320711965938634,0.33239359214764064,0.4102104725889801,0.24193784076730568,0.41065404730372385,0.1970621778542865,0.1582286759136121,0.29724571196065697
5.0,0.0,5.0,0.0,1.0,0.0,1.0,0.0,,,,left,1.764924900140613,237.920438000001,xt17,237.920438000001,None,233.63699080003423,235.63677900005132,True,3.0,['r'],True,0.5,0.5,0.0,0.0,2.0,0.6309297535714574,0.1837645000000001,succ_gain,0.0,5.0,235.6367790000513,None,xt17,1,2022-04-21_14h26.14.214,threat_forest,2021.2.3,59.92846936451807,True,67.0,0.55,0.45,-0.4800000000000001,-1.005,1,1,1,0.5681081399846013,0.1837645000000001,0.5,0.5,0.5,1.0,0.0,0.0,3.0,3.0,1.0,2.0,-1.0,3.0,0,1,1,0.49700971563917695,0.24999105819944142,0.3157863524831333,0.488595263070095,0.24986993197555965,0.31820207476461637,0.4671328566042226,0.2489197508850014,0.31980693281974437,0.4866865158972237,0.24982275114104513,0.39278367230113453,0.7069143923701575,0.20718643423008848,0.3046776453368166,0.5376398827493908,0.24858323922661213,0.3317495371976083,0.6516428684704189,0.2270044404420632,0.3455500168383761,0.3661015182829299,0.2320711965938634,0.33239359214764064,0.6516780355418204,0.2269937735341743,0.394836592282359,0.9012741783861051,0.08897903376055633,0.23104527926144414
5.0,0.0,5.0,0.0,2.0,0.0,2.0,0.0,,,,right,2.537535100011155,243.5871607998852,xt17,239.70368720008992,241.70353970001452,243.5871607998852,None,True,5.0,['r'],False,0.36,0.6,0.4,2.0,2.0,0.9801625908629508,-0.050683,figh_cost,1.0,2.0,241.7035397000145,None,xt17,1,2022-04-21_14h26.14.214,threat_forest,2021.2.3,59.92846936451807,True,67.0,0.55,0.45,-0.4800000000000001,-1.005,1,0,1,0.9311931767889486,-0.050683,0.36,0.36,0.6,0.6,-0.8000000000000003,-0.9600000000000002,4.04,4.04,0.0,2.0,1.0,5.0,0,0,1,0.3872838392515488,0.23729506710612927,0.33750317263820523,0.38147692263656524,0.23595228013230127,0.3407961864983192,0.27999549475640384,0.20159801767252047,0.3564634264769453,0.5646051874087055,0.24582616975988605,0.3774720141094805,0.49062231049249444,0.2499120589395008,0.36776102846794106,0.5376398827493908,0.24858323922661213,0.3317495371976083,0.45391739675692316,0.2478763936783412,0.39802907802193593,0.3661015182829299,0.2320711965938634,0.33239359214764064,0.4102104725889801,0.24193784076730568,0.41065404730372385,0.15528765245167633,0.13117339744772372,0.2713817351146701
5.0,0.0,5.0,0.0,3.0,0.0,3.0,0.0,,,,left,1.2368471000809222,250.6041607998777,xt17,250.6041607998777,None,246.15385679993776,248.15376890008338,True,2.0,['r'],True,0.5,0.5,0.0,0.0,2.0,0.6309297535714574,0.0903250000000001,succ_gain,0.0,4.0,248.15376890008332,None,xt17,1,2022-04-21_14h26.14.214,threat_forest,2021.2.3,59.92846936451807,True,67.0,0.55,0.45,-0.4800000000000001,-1.005,1,1,1,0.2125654803388174,0.0903250000000001,0.5,0.5,0.5,1.0,0.0,0.0,2.0,2.0,1.0,2.0,-1.0,2.0,0,1,1,0.49700971563917695,0.24999105819944142,0.3157863524831333,0.488595263070095,0.24986993197555965,0.31820207476461637,0.4671328566042226,0.2489197508850014,0.31980693281974437,0.4866865158972237,0.24982275114104513,0.39278367230113453,0.7069143923701575,0.20718643423008848,0.3046776453368166,0.5376398827493908,0.24858323922661213,0.3317495371976083,0.6516428684704189,0.2270044404420632,0.3455500168383761,0.3661015182829299,0.2320711965938634,0.33239359214764064,0.6516780355418204,0.2269937735341743,0.394836592282359,0.6581466764958449,0.22498962871331865,0.36106703760713577
5.0,0.0,5.0,0.0,4.0,0.0,4.0,0.0,,,,left,1.9083798001520336,255.3206253000535,xt17,255.3206253000535,None,246.15385679993776,248.15376890008338,True,4.0,['r'],True,0.5,0.5,0.0,0.0,2.0,0.6309297535714574,0.1425,succ_gain,0.0,6.0,253.8706306999084,None,xt17,1,2022-04-21_14h26.14.214,threat_forest,2021.2.3,59.92846936451807,True,67.0,0.55,0.45,-0.4800000000000001,-1.005,1,1,1,0.6462546099003976,0.1425,0.5,0.5,0.5,1.0,0.0,0.0,4.0,4.0,1.0,2.0,1.0,4.0,0,1,1,0.49700971563917695,0.24999105819944142,0.3157863524831333,0.488595263070095,0.24986993197555965,0.31820207476461637,0.27999549475640384,0.20159801767252047,0.3564634264769453,0.4866865158972237,0.24982275114104513,0.39278367230113453,0.7069143923701575,0.20718643423008848,0.3046776453368166,0.5376398827493908,0.24858323922661213,0.3317495371976083,0.6516428684704189,0.2270044404420632,0.3455500168383761,0.3661015182829299,0.2320711965938634,0.33239359214764064,0.6516780355418204,0.2269937735341743,0.394836592282359,0.8211447138323679,0.14686607277752647,0.28638342847714426
5.0,0.0,5.0,0.0,5.0,0.0,5.0,0.0,,,,left,1.063550200080499,260.8382701999508,xt17,257.2542667000089,259.2538574000355,260.8382701999508,None,False,6.0,['r'],False,0.36,0.6,0.4,2.0,2.0,0.9801625908629508,0.0,wait_cost,1.0,5.0,259.2538574000355,None,xt17,1,2022-04-21_14h26.14.214,threat_forest,2021.2.3,59.92846936451807,False,67.0,0.55,0.45,-0.4800000000000001,-1.005,1,0,0,0.0616125572526507,0.0,0.0,0.36,0.6,0.6,-0.8000000000000003,-0.9600000000000002,5.04,5.04,0.0,2.0,1.0,6.0,0,0,1,0.3872838392515488,0.23729506710612927,0.33750317263820523,0.38147692263656524,0.23595228013230127,0.3407961864983192,0.27999549475640384,0.20159801767252047,0.3564634264769453,0.5646051874087055,0.24582616975988605,0.3774720141094805,0.49062231049249444,0.2499120589395008,0.36776102846794106,0.5376398827493908,0.24858323922661213,0.3317495371976083,0.45391739675692316,0.2478763936783412,0.39802907802193593,0.3661015182829299,0.2320711965938634,0.33239359214764064,0.05178051072346333,0.04909928943268064,0.20654528196317623,0.2995392619308845,0.20981549249278547,0.3465610509709035
5.0,0.0,5.0,0.0,6.0,0.0,6.0,0.0,,,,left,1.1210600999183953,267.5044533999171,xt17,257.2542667000089,259.2538574000355,267.5044533999171,None,False,5.0,['r'],False,0.36,0.6,0.4,2.0,2.0,0.9801625908629508,0.0,wait_cost,1.0,4.0,263.9209165000357,None,xt17,1,2022-04-21_14h26.14.214,threat_forest,2021.2.3,59.92846936451807,False,67.0,0.55,0.45,-0.4800000000000001,-1.005,1,0,0,0.1142747554257866,0.0,0.0,0.36,0.6,0.6,-0.8000000000000003,-0.9600000000000002,4.04,4.04,0.0,2.0,-1.0,5.0,0,0,1,0.3872838392515488,0.23729506710612927,0.33750317263820523,0.38147692263656524,0.23595228013230127,0.3407961864983192,0.4671328566042226,0.2489197508850014,0.31980693281974437,0.5646051874087055,0.24582616975988605,0.3774720141094805,0.49062231049249444,0.2499120589395008,0.36776102846794106,0.5376398827493908,0.24858323922661213,0.3317495371976083,0.45391739675692316,0.2478763936783412,0.39802907802193593,0.3661015182829299,0.2320711965938634,0.33239359214764064,0.05178051072346333,0.04909928943268064,0.20654528196317623,0.2995392619308845,0.20981549249278547,0.3465610509709035
6.0,0.0,6.0,0.0,0.0,0.0,0.0,0.0,281.02743029990233,284.53754279995337,None,left,2.338713900186121,286.13927739998326,xt17,281.02743029990233,284.53754279995337,286.13927739998326,None,False,4.0,['p'],False,0.2,0.2,0.0,0.0,1.0,0.4554859150035951,0.0014125395763594,wait_cost,1.0,3.0,,,xt17,1,2022-04-21_14h26.14.214,threat_forest,2021.2.3,59.92846936451807,False,39.0,0.4333333333333333,0.4916666666666667,-1.2000000000000002,-0.8400000000000001,0,0,0,0.8496011629706769,0.0014125395763594,0.2,0.2,0.2,1.0,-1.4,-1.4,2.6,2.6,0.0,1.0,-1.0,4.0,0,0,0,0.3872838392515488,0.23729506710612927,0.33750317263820523,0.488595263070095,0.24986993197555965,0.31820207476461637,0.4671328566042226,0.2489197508850014,0.31980693281974437,0.27038176708643596,0.19727546711365226,0.19146510145450413,0.3260763766436443,0.21975057323859654,0.32322830200192126,0.3246772287813176,0.21926192589220153,0.32090231046972495,0.24752554006106128,0.1862566470785412,0.24309645550600795,0.3661015182829299,0.2320711965938634,0.33239359214764064,0.18332600936598162,0.14971758365592566,0.3130440897090472,0.3044990910191024,0.2117793945876428,0.34843847826751095
6.0,0.0,6.0,0.0,1.0,0.0,1.0,0.0,,,,left,2.0065083000808954,292.7713709999807,xt17,292.7713709999807,None,288.5045195999556,290.50463470001705,True,3.0,['p'],True,0.4444444444444445,0.6666666666666666,0.3333333333333333,1.0,1.0,0.9656336071428248,0.0524121025193765,unsucc_cost,0.0,1.0,290.50463470001705,None,xt17,1,2022-04-21_14h26.14.214,threat_forest,2021.2.3,59.92846936451807,True,39.0,0.4333333333333333,0.4916666666666667,-1.2000000000000002,-0.8400000000000001,0,0,1,0.6963960473127877,0.0524121025193765,0.4444444444444445,0.4444444444444445,0.6666666666666666,0.6666666666666667,-1.0,-1.0,2.0,2.0,1.0,1.0,-1.0,3.0,0,0,0,0.49700971563917695,0.24999105819944142,0.3157863524831333,0.3988302951277146,0.23976469081605464,0.3346070653783502,0.4671328566042226,0.2489197508850014,0.31980693281974437,0.6150602652725738,0.2367611353554049,0.3427421549975552,0.43364247253517485,0.24559667854875497,0.3613894705001534,0.3246772287813176,0.21926192589220153,0.32090231046972495,0.5755163310131088,0.2442972837503186,0.38903000032330853,0.3661015182829299,0.2320711965938634,0.33239359214764064,0.5581746453068231,0.24661571064342527,0.415605309581056,0.5058829470324923,0.24996539093421286,0.3849430637440143
6.0,0.0,6.0,0.0,2.0,0.0,2.0,0.0,,,,left,1.6719153001904488,299.0215241000988,xt17,299.0215241000988,None,288.5045195999556,290.50463470001705,True,1.0,['p'],True,0.4444444444444445,0.6666666666666666,0.3333333333333333,1.0,1.0,0.9656336071428248,0.0696819590509576,succ_gain,0.0,2.0,296.804474900011,None,xt17,1,2022-04-21_14h26.14.214,threat_forest,2021.2.3,59.92846936451807,True,39.0,0.4333333333333333,0.4916666666666667,-1.2000000000000002,-0.8400000000000001,0,0,1,0.513969855598529,0.0696819590509576,1.0,0.4444444444444445,0.6666666666666666,0.6666666666666667,-1.0,-1.0,0.0,0.0,1.0,1.0,-1.0,1.0,1,0,0,0.49700971563917695,0.24999105819944142,0.3157863524831333,0.3988302951277146,0.23976469081605464,0.3346070653783502,0.4671328566042226,0.2489197508850014,0.31980693281974437,0.6150602652725738,0.2367611353554049,0.3427421549975552,0.43364247253517485,0.24559667854875497,0.3613894705001534,0.3246772287813176,0.21926192589220153,0.32090231046972495,0.5755163310131088,0.2442972837503186,0.38903000032330853,0.9333345545668317,0.062221163818365496,0.290405778834196,0.9846386325204602,0.015125395868698165,0.17058582561400099,0.5771771603655986,0.24404368591790263,0.3792821040305996
6.0,0.0,6.0,0.0,3.0,0.0,3.0,0.0,,,,left,1.9573315000161529,303.3550161998719,xt17,303.3550161998719,None,288.5045195999556,290.50463470001705,True,2.0,['p'],True,0.4444444444444445,0.6666666666666666,0.3333333333333333,1.0,1.0,0.9656336071428248,0.0665317786922725,unsucc_cost,0.0,0.0,302.7211650998797,None,xt17,1,2022-04-21_14h26.14.214,threat_forest,2021.2.3,59.92846936451807,True,39.0,0.4333333333333333,0.4916666666666667,-1.2000000000000002,-0.8400000000000001,0,0,1,0.6715820660034172,0.0665317786922725,0.4444444444444445,0.4444444444444445,0.6666666666666666,0.6666666666666667,-1.0,-1.0,1.0,1.0,1.0,1.0,1.0,2.0,0,0,0,0.49700971563917695,0.24999105819944142,0.3157863524831333,0.3988302951277146,0.23976469081605464,0.3346070653783502,0.27999549475640384,0.20159801767252047,0.3564634264769453,0.6150602652725738,0.2367611353554049,0.3427421549975552,0.43364247253517485,0.24559667854875497,0.3613894705001534,0.3246772287813176,0.21926192589220153,0.32090231046972495,0.5755163310131088,0.2442972837503186,0.38903000032330853,0.3661015182829299,0.2320711965938634,0.33239359214764064,0.5581746453068231,0.24661571064342527,0.415605309581056,0.5643224966257875,0.2458626164278256,0.3810209431503825
7.0,0.0,7.0,0.0,0.0,0.0,0.0,0.0,309.6609364999458,313.17125599994324,None,left,1.2522586998529732,316.85530689987354,xt17,316.85530689987354,None,309.6609364999458,313.17125599994324,True,4.0,['p'],True,0.4444444444444445,0.6666666666666666,0.3333333333333333,1.0,1.0,0.9656336071428248,0.0433478243421047,figh_cost,0.0,1.0,,,xt17,1,2022-04-21_14h26.14.214,threat_forest,2021.2.3,59.92846936451807,True,13.0,0.4761904761904761,0.4547619047619047,-1.2040816326530612,-1.2020408163265306,1,0,1,0.224948880608556,0.0433478243421047,0.4444444444444445,0.4444444444444445,0.6666666666666666,0.6666666666666667,-1.0,-1.0,3.0,3.0,1.0,1.0,-1.0,4.0,0,0,1,0.49700971563917695,0.24999105819944142,0.3157863524831333,0.3988302951277146,0.23976469081605464,0.3346070653783502,0.4671328566042226,0.2489197508850014,0.31980693281974437,0.6150602652725738,0.2367611353554049,0.3427421549975552,0.43364247253517485,0.24559667854875497,0.3613894705001534,0.5376398827493908,0.24858323922661213,0.3317495371976083,0.5755163310131088,0.2442972837503186,0.38903000032330853,0.3661015182829299,0.2320711965938634,0.33239359214764064,0.5581746453068231,0.24661571064342527,0.415605309581056,0.46818047524848816,0.24898751784458792,0.38400824849233395
7.0,0.0,7.0,0.0,1.0,0.0,1.0,0.0,,,,left,2.341855099890381,321.72156299999915,xt17,321.72156299999915,None,309.6609364999458,313.17125599994324,True,1.0,['p'],True,0.4444444444444445,0.6666666666666666,0.3333333333333333,1.0,1.0,0.9656336071428248,0.0375658438898273,succ_gain,0.0,2.0,320.1382911999244,None,xt17,1,2022-04-21_14h26.14.214,threat_forest,2021.2.3,59.92846936451807,True,13.0,0.4761904761904761,0.4547619047619047,-1.2040816326530612,-1.2020408163265306,1,0,1,0.8509433930182642,0.0375658438898273,1.0,0.4444444444444445,0.6666666666666666,0.6666666666666667,-1.0,-1.0,0.0,0.0,1.0,1.0,-1.0,1.0,1,0,1,0.49700971563917695,0.24999105819944142,0.3157863524831333,0.3988302951277146,0.23976469081605464,0.3346070653783502,0.4671328566042226,0.2489197508850014,0.31980693281974437,0.6150602652725738,0.2367611353554049,0.3427421549975552,0.43364247253517485,0.24559667854875497,0.3613894705001534,0.5376398827493908,0.24858323922661213,0.3317495371976083,0.5755163310131088,0.2442972837503186,0.38903000032330853,0.9333345545668317,0.062221163818365496,0.290405778834196,0.9846386325204602,0.015125395868698165,0.17058582561400099,0.44429211902641286,0.24689663199743264,0.3820094288088992
7.0,0.0,7.0,0.0,2.0,0.0,2.0,0.0,,,,left,2.4228258000221103,329.0883945000824,xt17,324.08852700004354,326.08809749991633,329.0883945000824,None,False,2.0,['p'],False,0.2448979591836734,0.2857142857142857,0.1428571428571428,1.0,1.0,0.8400769154957735,-0.0012328694246004,wait_cost,1.0,1.0,326.0880974999164,None,xt17,1,2022-04-21_14h26.14.214,threat_forest,2021.2.3,59.92846936451807,False,13.0,0.4761904761904761,0.4547619047619047,-1.2040816326530612,-1.2020408163265306,0,0,0,0.8849345449131399,-0.0012328694246004,0.2448979591836734,0.2448979591836734,0.2857142857142857,0.8571428571428572,-1.5714285714285712,-1.4081632653061225,0.5918367346938775,0.5918367346938775,0.0,1.0,1.0,2.0,0,0,0,0.3872838392515488,0.23729506710612927,0.33750317263820523,0.4496875908929311,0.24746866148984287,0.3221003310414759,0.27999549475640384,0.20159801767252047,0.3564634264769453,0.3264510179082336,0.21988075081491174,0.27807021326100245,0.28440993053054814,0.20352092194615692,0.2992656023918212,0.3246772287813176,0.21926192589220153,0.32090231046972495,0.2990708686587429,0.20962748417844784,0.30185854529189543,0.3661015182829299,0.2320711965938634,0.33239359214764064,0.23565766949870384,0.18012313230514354,0.34522665357577487,0.2952483389750229,0.20807675730751288,0.3448988760045696
7.0,0.0,7.0,0.0,3.0,0.0,3.0,0.0,,,,left,2.0111988000571728,334.3219101000577,xt17,334.3219101000577,None,331.5385392999742,333.53830590005964,True,1.0,['p'],True,0.4444444444444445,0.6666666666666666,0.3333333333333333,1.0,1.0,0.9656336071428248,0.0784655024537925,succ_gain,0.0,2.0,333.53830590005964,None,xt17,1,2022-04-21_14h26.14.214,threat_forest,2021.2.3,59.92846936451807,True,13.0,0.4761904761904761,0.4547619047619047,-1.2040816326530612,-1.2020408163265306,1,0,1,0.6987309622233839,0.0784655024537925,1.0,0.4444444444444445,0.6666666666666666,0.6666666666666667,-1.0,-1.0,0.0,0.0,1.0,1.0,-1.0,1.0,1,0,1,0.49700971563917695,0.24999105819944142,0.3157863524831333,0.3988302951277146,0.23976469081605464,0.3346070653783502,0.4671328566042226,0.2489197508850014,0.31980693281974437,0.6150602652725738,0.2367611353554049,0.3427421549975552,0.43364247253517485,0.24559667854875497,0.3613894705001534,0.5376398827493908,0.24858323922661213,0.3317495371976083,0.5755163310131088,0.2442972837503186,0.38903000032330853,0.9333345545668317,0.062221163818365496,0.290405778834196,0.9846386325204602,0.015125395868698165,0.17058582561400099,0.6124216546390252,0.23736137156822376,0.3728940262351481
7.0,0.0,7.0,0.0,5.0,0.0,5.0,0.0,,,,left,1.3599211000837386,345.13880630000494,xt17,345.13880630000494,None,331.5385392999742,333.53830590005964,True,1.0,['p'],True,0.4444444444444445,0.6666666666666666,0.3333333333333333,1.0,1.0,0.9656336071428248,0.1753590325018896,succ_gain,0.0,2.0,344.25517569994554,None,xt17,1,2022-04-21_14h26.14.214,threat_forest,2021.2.3,59.92846936451807,True,13.0,0.4761904761904761,0.4547619047619047,-1.2040816326530612,-1.2020408163265306,1,0,1,0.3074266834207362,0.1753590325018896,1.0,0.4444444444444445,0.6666666666666666,0.6666666666666667,-1.0,-1.0,0.0,0.0,1.0,1.0,-1.0,1.0,1,0,1,0.49700971563917695,0.24999105819944142,0.3157863524831333,0.3988302951277146,0.23976469081605464,0.3346070653783502,0.4671328566042226,0.2489197508850014,0.31980693281974437,0.6150602652725738,0.2367611353554049,0.3427421549975552,0.43364247253517485,0.24559667854875497,0.3613894705001534,0.5376398827493908,0.24858323922661213,0.3317495371976083,0.5755163310131088,0.2442972837503186,0.38903000032330853,0.9333345545668317,0.062221163818365496,0.290405778834196,0.9846386325204602,0.015125395868698165,0.17058582561400099,0.8880974970101514,0.09938033281445564,0.24098858693197572
7.0,0.0,7.0,0.0,6.0,0.0,6.0,0.0,,,,left,2.439409799873829,349.07223540009,xt17,349.07223540009,None,331.5385392999742,333.53830590005964,True,2.0,['p'],True,0.4444444444444445,0.6666666666666666,0.3333333333333333,1.0,1.0,0.9656336071428248,0.0997732426303854,succ_gain,0.0,3.0,348.52193289995193,None,xt17,1,2022-04-21_14h26.14.214,threat_forest,2021.2.3,59.92846936451807,True,13.0,0.4761904761904761,0.4547619047619047,-1.2040816326530612,-1.2020408163265306,1,0,1,0.8917561247485325,0.0997732426303854,0.4444444444444445,0.4444444444444445,0.6666666666666666,0.6666666666666667,-1.0,-1.0,1.0,1.0,1.0,1.0,1.0,2.0,0,0,1,0.49700971563917695,0.24999105819944142,0.3157863524831333,0.3988302951277146,0.23976469081605464,0.3346070653783502,0.27999549475640384,0.20159801767252047,0.3564634264769453,0.6150602652725738,0.2367611353554049,0.3427421549975552,0.43364247253517485,0.24559667854875497,0.3613894705001534,0.5376398827493908,0.24858323922661213,0.3317495371976083,0.5755163310131088,0.2442972837503186,0.38903000032330853,0.3661015182829299,0.2320711965938634,0.33239359214764064,0.5581746453068231,0.24661571064342527,0.415605309581056,0.6926260040919563,0.21289522254756565,0.34950517394229164
7.0,0.0,7.0,0.0,7.0,0.0,7.0,0.0,,,,right,0.5993927998933941,355.0724647999741,xt17,355.0724647999741,None,331.5385392999742,333.53830590005964,False,3.0,['p'],True,0.4444444444444445,0.6666666666666666,0.3333333333333333,1.0,1.0,0.9656336071428248,-0.3333333333333333,wait_cost,0.0,2.0,353.5388068999164,None,xt17,1,2022-04-21_14h26.14.214,threat_forest,2021.2.3,59.92846936451807,False,13.0,0.4761904761904761,0.4547619047619047,-1.2040816326530612,-1.2020408163265306,1,0,0,-0.5118381363615875,-0.3333333333333333,0.0,0.4444444444444445,0.6666666666666666,0.6666666666666667,-1.0,-1.0,2.0,2.0,1.0,1.0,1.0,3.0,0,0,1,0.49700971563917695,0.24999105819944142,0.3157863524831333,0.3988302951277146,0.23976469081605464,0.3346070653783502,0.27999549475640384,0.20159801767252047,0.3564634264769453,0.6150602652725738,0.2367611353554049,0.3427421549975552,0.43364247253517485,0.24559667854875497,0.3613894705001534,0.5376398827493908,0.24858323922661213,0.3317495371976083,0.5755163310131088,0.2442972837503186,0.38903000032330853,0.3661015182829299,0.2320711965938634,0.33239359214764064,0.05178051072346333,0.04909928943268064,0.20654528196317623,0.0016558080485638631,0.001653066348270175,0.14756446046105984
8.0,0.0,8.0,0.0,0.0,0.0,0.0,0.0,360.048603199888,363.5553498999216,None,left,1.7016291001345962,365.557683999883,xt17,360.048603199888,363.55534989992157,365.557683999883,None,False,4.0,['p'],False,0.2,0.2,0.0,0.0,2.0,0.4554859150035951,-0.0012731594242116,wait_cost,1.0,3.0,,,xt17,1,2022-04-21_14h26.14.214,threat_forest,2021.2.3,59.92846936451807,False,37.0,0.2666666666666666,0.3714285714285714,-1.1277777777777778,-1.1659297052154196,0,0,0,0.5315860863882399,-0.0012731594242116,0.2,0.2,0.2,1.0,-1.2000000000000002,-1.2000000000000002,2.8,2.8,0.0,2.0,-1.0,4.0,0,0,0,0.3872838392515488,0.23729506710612927,0.33750317263820523,0.488595263070095,0.24986993197555965,0.31820207476461637,0.4671328566042226,0.2489197508850014,0.31980693281974437,0.27038176708643596,0.19727546711365226,0.19146510145450413,0.3783646741358678,0.23520484750192636,0.34604617560816353,0.3246772287813176,0.21926192589220153,0.32090231046972495,0.24752554006106128,0.1862566470785412,0.24309645550600795,0.3661015182829299,0.2320711965938634,0.33239359214764064,0.18332600936598162,0.14971758365592566,0.3130440897090472,0.2951087160966378,0.20801956178043182,0.34484419891854423
8.0,0.0,8.0,0.0,2.0,0.0,2.0,0.0,,,,right,1.1621880000457168,377.2059581000358,xt17,374.0558120999485,376.05561050004326,377.2059581000358,None,True,2.0,['p'],False,0.2,0.2,0.0,0.0,2.0,0.4554859150035951,-0.0113551726108823,unsucc_cost,1.0,0.0,376.05561050004326,None,xt17,1,2022-04-21_14h26.14.214,threat_forest,2021.2.3,59.92846936451807,True,37.0,0.2666666666666666,0.3714285714285714,-1.1277777777777778,-1.1659297052154196,0,0,1,0.1503044353996746,-0.0113551726108823,0.2,0.2,0.2,1.0,-1.2000000000000002,-1.2000000000000002,0.7999999999999998,0.7999999999999998,0.0,2.0,-1.0,2.0,0,0,0,0.3872838392515488,0.23729506710612927,0.33750317263820523,0.488595263070095,0.24986993197555965,0.31820207476461637,0.4671328566042226,0.2489197508850014,0.31980693281974437,0.27038176708643596,0.19727546711365226,0.19146510145450413,0.3783646741358678,0.23520484750192636,0.34604617560816353,0.3246772287813176,0.21926192589220153,0.32090231046972495,0.24752554006106128,0.1862566470785412,0.24309645550600795,0.3661015182829299,0.2320711965938634,0.33239359214764064,0.18332600936598162,0.14971758365592566,0.3130440897090472,0.2614133918108096,0.19307643039277772,0.33055904547966486
9.0,0.0,9.0,0.0,0.0,0.0,0.0,0.0,382.5780342998914,386.0890392998699,None,right,0.9863003001082687,386.7396835000254,xt17,382.5780342998914,386.0890392998699,386.7396835000254,None,True,4.0,['r'],False,0.5,0.5,0.0,0.0,1.0,0.6309297535714574,0.0805026556124999,succ_gain,1.0,5.0,,,xt17,1,2022-04-21_14h26.14.214,threat_forest,2021.2.3,59.92846936451807,True,24.0,0.55,0.4083333333333333,-0.91,-1.018888888888889,1,1,1,-0.0137944067453737,0.0805026556124999,0.5,0.5,0.5,1.0,-0.5,-0.5,3.5,3.5,0.0,1.0,-1.0,4.0,0,1,1,0.3872838392515488,0.23729506710612927,0.33750317263820523,0.488595263070095,0.24986993197555965,0.31820207476461637,0.4671328566042226,0.2489197508850014,0.31980693281974437,0.4866865158972237,0.24982275114104513,0.39278367230113453,0.5760844095546382,0.2442111626227221,0.35934378872040984,0.5376398827493908,0.24858323922661213,0.3317495371976083,0.6516428684704189,0.2270044404420632,0.3455500168383761,0.3661015182829299,0.2320711965938634,0.33239359214764064,0.6516780355418204,0.2269937735341743,0.394836592282359,0.6204446043692581,0.23549309727833284,0.3711080160472797
9.0,0.0,9.0,0.0,1.0,0.0,1.0,0.0,,,,left,2.531001999974251,391.6896267998964,xt17,382.5780342998914,386.0890392998699,391.6896267998964,None,False,5.0,['r'],False,0.5,0.5,0.0,0.0,1.0,0.6309297535714574,0.10483549125,wait_cost,1.0,4.0,389.7557317998726,None,xt17,1,2022-04-21_14h26.14.214,threat_forest,2021.2.3,59.92846936451807,False,24.0,0.55,0.4083333333333333,-0.91,-1.018888888888889,1,1,0,0.9286152717540026,0.10483549125,0.5,0.5,0.5,1.0,-0.5,-0.5,4.5,4.5,0.0,1.0,1.0,5.0,0,1,1,0.3872838392515488,0.23729506710612927,0.33750317263820523,0.488595263070095,0.24986993197555965,0.31820207476461637,0.27999549475640384,0.20159801767252047,0.3564634264769453,0.4866865158972237,0.24982275114104513,0.39278367230113453,0.5760844095546382,0.2442111626227221,0.35934378872040984,0.5376398827493908,0.24858323922661213,0.3317495371976083,0.6516428684704189,0.2270044404420632,0.3455500168383761,0.3661015182829299,0.2320711965938634,0.33239359214764064,0.6516780355418204,0.2269937735341743,0.394836592282359,0.7102804605611404,0.20578212790619477,0.3427052840302478
9.0,0.0,9.0,0.0,2.0,0.0,2.0,0.0,,,,right,0.7989888999145478,399.3731879000552,xt17,382.5780342998914,386.0890392998699,399.3731879000552,None,True,4.0,['r'],False,0.5,0.5,0.0,0.0,1.0,0.6309297535714574,0.1151028749999999,unsucc_cost,1.0,2.0,396.23933489993215,None,xt17,1,2022-04-21_14h26.14.214,threat_forest,2021.2.3,59.92846936451807,True,24.0,0.55,0.4083333333333333,-0.91,-1.018888888888889,1,1,1,-0.2244082257847694,0.1151028749999999,0.5,0.5,0.5,1.0,-0.5,-0.5,3.5,3.5,0.0,1.0,-1.0,4.0,0,1,1,0.3872838392515488,0.23729506710612927,0.33750317263820523,0.488595263070095,0.24986993197555965,0.31820207476461637,0.4671328566042226,0.2489197508850014,0.31980693281974437,0.4866865158972237,0.24982275114104513,0.39278367230113453,0.5760844095546382,0.2442111626227221,0.35934378872040984,0.5376398827493908,0.24858323922661213,0.3317495371976083,0.6516428684704189,0.2270044404420632,0.3455500168383761,0.3661015182829299,0.2320711965938634,0.33239359214764064,0.6516780355418204,0.2269937735341743,0.394836592282359,0.7441725695719765,0.19037975626861828,0.32798111166921196
9.0,0.0,9.0,0.0,3.0,0.0,3.0,0.0,,,,right,2.4820687000174075,405.74009760003537,xt17,405.74009760003537,None,400.18983460008167,402.18933709990233,False,2.0,['r'],True,0.36,0.6,0.4,2.0,1.0,0.9801625908629508,-0.0082544999999999,wait_cost,0.0,1.0,402.18933709990233,None,xt17,1,2022-04-21_14h26.14.214,threat_forest,2021.2.3,59.92846936451807,False,24.0,0.55,0.4083333333333333,-0.91,-1.018888888888889,0,0,0,0.9090923656972588,-0.0082544999999999,0.36,0.36,0.6,0.6,-1.4000000000000004,-1.3200000000000005,0.6799999999999997,0.6799999999999997,1.0,1.0,-1.0,2.0,0,0,0,0.49700971563917695,0.24999105819944142,0.3157863524831333,0.38147692263656524,0.23595228013230127,0.3407961864983192,0.4671328566042226,0.2489197508850014,0.31980693281974437,0.5646051874087055,0.24582616975988605,0.3774720141094805,0.3260763766436442,0.2197505732385965,0.32322830200192126,0.3246772287813176,0.21926192589220153,0.32090231046972495,0.45391739675692316,0.2478763936783412,0.39802907802193593,0.3661015182829299,0.2320711965938634,0.33239359214764064,0.4102104725889801,0.24193784076730568,0.41065404730372385,0.2715074942712524,0.19779117482579825,0.3350661896587253
9.0,0.0,9.0,0.0,4.0,0.0,4.0,0.0,,,,left,2.0785987998824567,411.9397497999016,xt17,411.9397497999016,None,400.18983460008167,402.18933709990233,True,1.0,['r'],True,0.36,0.6,0.4,2.0,1.0,0.9801625908629508,0.1674,figh_cost,0.0,0.0,410.2394550000317,None,xt17,1,2022-04-21_14h26.14.214,threat_forest,2021.2.3,59.92846936451807,True,24.0,0.55,0.4083333333333333,-0.91,-1.018888888888889,0,0,1,0.7316940128038162,0.1674,1.0,0.36,0.6,0.6,-1.4000000000000004,-1.3200000000000005,-0.3200000000000003,0.0,1.0,1.0,-1.0,1.0,1,0,0,0.49700971563917695,0.24999105819944142,0.3157863524831333,0.38147692263656524,0.23595228013230127,0.3407961864983192,0.4671328566042226,0.2489197508850014,0.31980693281974437,0.5646051874087055,0.24582616975988605,0.3774720141094805,0.3260763766436442,0.2197505732385965,0.32322830200192126,0.3246772287813176,0.21926192589220153,0.32090231046972495,0.45391739675692316,0.2478763936783412,0.39802907802193593,0.9333345545668317,0.062221163818365496,0.290405778834196,0.9846386325204602,0.015125395868698165,0.17058582561400099,0.8742290870490816,0.10995259040641091,0.2510953254714772
10.0,0.0,10.0,0.0,1.0,0.0,1.0,0.0,,,,left,1.108886499889195,433.1901662999298,xt17,433.1901662999298,None,418.5997450998984,422.0979329999536,True,3.0,['r'],True,0.24,0.3,0.2,2.0,2.0,0.9003120349047065,0.0453145987444508,unsucc_cost,0.0,1.0,429.5397427999415,None,xt17,1,2022-04-21_14h26.14.214,threat_forest,2021.2.3,59.92846936451807,True,55.0,0.2928571428571428,0.4214285714285714,-1.0485714285714285,-0.9792857142857144,0,0,1,0.1033563585762908,0.0453145987444508,0.24,0.24,0.3,0.8,-1.4,-1.24,1.76,1.76,1.0,2.0,-1.0,3.0,0,0,0,0.49700971563917695,0.24999105819944142,0.3157863524831333,0.43426876391399116,0.24567940460260543,0.3250050358354906,0.4671328566042226,0.2489197508850014,0.31980693281974437,0.33636252215649903,0.22322277584501776,0.29087414243161147,0.3260763766436443,0.21975057323859654,0.32322830200192126,0.3246772287813176,0.21926192589220153,0.32090231046972495,0.29315628618946316,0.2072156780570647,0.2957944592155162,0.3661015182829299,0.2320711965938634,0.33239359214764064,0.22947919254973087,0.1768184927364544,0.34172887837681987,0.4763452016954816,0.2494404505171726,0.384441237573237
10.0,0.0,10.0,0.0,2.0,0.0,2.0,0.0,,,,right,0.991635699989274,439.7071666000411,xt17,439.7071666000411,None,418.5997450998984,422.0979329999536,False,1.0,['r'],True,0.24,0.3,0.2,2.0,2.0,0.9003120349047065,0.0803828504416493,wait_cost,0.0,0.0,436.3231627999339,None,xt17,1,2022-04-21_14h26.14.214,threat_forest,2021.2.3,59.92846936451807,False,55.0,0.2928571428571428,0.4214285714285714,-1.0485714285714285,-0.9792857142857144,0,0,0,-0.0083994770596588,0.0803828504416493,1.0,0.24,0.3,0.8,-1.4,-1.24,-0.24,0.0,1.0,2.0,-1.0,1.0,1,0,0,0.49700971563917695,0.24999105819944142,0.3157863524831333,0.43426876391399116,0.24567940460260543,0.3250050358354906,0.4671328566042226,0.2489197508850014,0.31980693281974437,0.33636252215649903,0.22322277584501776,0.29087414243161147,0.3260763766436443,0.21975057323859654,0.32322830200192126,0.3246772287813176,0.21926192589220153,0.32090231046972495,0.29315628618946316,0.2072156780570647,0.2957944592155162,0.9333345545668317,0.062221163818365496,0.290405778834196,0.9846386325204602,0.015125395868698165,0.17058582561400099,0.6199745442131777,0.23560610874084034,0.371216051374039
11.0,0.0,11.0,0.0,0.0,0.0,0.0,0.0,444.1658375998959,447.6733152999077,None,right,1.2860288999509066,450.96010189992376,xt17,450.96010189992376,None,444.1658375998959,447.6733152999077,False,4.0,['p'],True,0.24,0.3,0.2,2.0,2.0,0.9003120349047065,0.0048924551776182,wait_cost,0.0,3.0,,,xt17,1,2022-04-21_14h26.14.214,threat_forest,2021.2.3,59.92846936451807,False,15.0,0.4833333333333333,0.388095238095238,-0.8977777777777778,-0.9731746031746032,0,0,0,0.2515590983085699,0.0048924551776182,0.24,0.24,0.3,0.8,-1.4,-1.24,2.76,2.76,1.0,2.0,-1.0,4.0,0,0,0,0.49700971563917695,0.24999105819944142,0.3157863524831333,0.43426876391399116,0.24567940460260543,0.3250050358354906,0.4671328566042226,0.2489197508850014,0.31980693281974437,0.33636252215649903,0.22322277584501776,0.29087414243161147,0.3260763766436443,0.21975057323859654,0.32322830200192126,0.3246772287813176,0.21926192589220153,0.32090231046972495,0.29315628618946316,0.2072156780570647,0.2957944592155162,0.3661015182829299,0.2320711965938634,0.33239359214764064,0.22947919254973087,0.1768184927364544,0.34172887837681987,0.3169120260250171,0.21647879378573598,0.35293095289506937
11.0,0.0,11.0,0.0,1.0,0.0,1.0,0.0,,,,left,2.04359669983387,457.3404721999541,xt17,457.3404721999541,None,444.1658375998959,447.6733152999077,True,3.0,['p'],True,0.24,0.3,0.2,2.0,2.0,0.9003120349047065,0.0206023046878086,succ_gain,0.0,5.0,454.27341219992377,None,xt17,1,2022-04-21_14h26.14.214,threat_forest,2021.2.3,59.92846936451807,True,15.0,0.4833333333333333,0.388095238095238,-0.8977777777777778,-0.9731746031746032,0,0,1,0.7147113435944927,0.0206023046878086,0.24,0.24,0.3,0.8,-1.4,-1.24,1.76,1.76,1.0,2.0,-1.0,3.0,0,0,0,0.49700971563917695,0.24999105819944142,0.3157863524831333,0.43426876391399116,0.24567940460260543,0.3250050358354906,0.4671328566042226,0.2489197508850014,0.31980693281974437,0.33636252215649903,0.22322277584501776,0.29087414243161147,0.3260763766436443,0.21975057323859654,0.32322830200192126,0.3246772287813176,0.21926192589220153,0.32090231046972495,0.29315628618946316,0.2072156780570647,0.2957944592155162,0.3661015182829299,0.2320711965938634,0.33239359214764064,0.22947919254973087,0.1768184927364544,0.34172887837681987,0.3760562965836661,0.2346379583834439,0.3702905307419484
11.0,0.0,11.0,0.0,3.0,0.0,3.0,0.0,,,,left,1.5881244000047443,470.326056699967,xt17,470.326056699967,None,466.9238016998861,468.9236735999584,True,4.0,['p'],True,0.24,0.3,0.2,2.0,2.0,0.9003120349047065,0.0167818183813442,unsucc_cost,0.0,2.0,468.9236735999584,None,xt17,1,2022-04-21_14h26.14.214,threat_forest,2021.2.3,59.92846936451807,True,15.0,0.4833333333333333,0.388095238095238,-0.8977777777777778,-0.9731746031746032,0,0,1,0.4625536972911933,0.0167818183813442,0.24,0.24,0.3,0.8,-1.4,-1.24,2.76,2.76,1.0,2.0,-1.0,4.0,0,0,0,0.49700971563917695,0.24999105819944142,0.3157863524831333,0.43426876391399116,0.24567940460260543,0.3250050358354906,0.4671328566042226,0.2489197508850014,0.31980693281974437,0.33636252215649903,0.22322277584501776,0.29087414243161147,0.3260763766436443,0.21975057323859654,0.32322830200192126,0.3246772287813176,0.21926192589220153,0.32090231046972495,0.29315628618946316,0.2072156780570647,0.2957944592155162,0.3661015182829299,0.2320711965938634,0.33239359214764064,0.22947919254973087,0.1768184927364544,0.34172887837681987,0.36124630120088647,0.23074741106956487,0.366571292524857
11.0,0.0,11.0,0.0,4.0,0.0,4.0,0.0,,,,right,1.152179499855265,475.440845000092,xt17,471.9406965998933,473.9403125999961,475.440845000092,None,True,2.0,['p'],False,0.4444444444444445,0.6666666666666666,0.3333333333333333,1.0,2.0,0.9656336071428248,0.1022222222222222,unsucc_cost,1.0,0.0,473.9403125999961,None,xt17,1,2022-04-21_14h26.14.214,threat_forest,2021.2.3,59.92846936451807,True,15.0,0.4833333333333333,0.388095238095238,-0.8977777777777778,-0.9731746031746032,1,1,1,0.1416553659822555,0.1022222222222222,0.4444444444444445,0.4444444444444445,0.6666666666666666,0.6666666666666667,-0.3333333333333335,-0.5555555555555556,1.4444444444444444,1.4444444444444444,0.0,2.0,-1.0,2.0,0,1,1,0.3872838392515488,0.23729506710612927,0.33750317263820523,0.3988302951277146,0.23976469081605464,0.3346070653783502,0.4671328566042226,0.2489197508850014,0.31980693281974437,0.6150602652725738,0.2367611353554049,0.3427421549975552,0.6219801571806755,0.23512084125417773,0.34592214235298757,0.5376398827493908,0.24858323922661213,0.3317495371976083,0.5755163310131088,0.2442972837503186,0.38903000032330853,0.3661015182829299,0.2320711965938634,0.33239359214764064,0.5581746453068231,0.24661571064342527,0.415605309581056,0.701241644342372,0.20950180058237824,0.34626117158441794
12.0,0.0,12.0,0.0,0.0,0.0,0.0,0.0,479.2668401999399,482.7738330999855,None,left,1.3662726001348346,483.9409684999846,xt17,479.2668401999399,482.7738330999855,483.9409684999846,None,False,5.0,['p'],False,0.375,0.5,0.25,1.0,1.0,0.9850568223215076,0.037518611380037,wait_cost,1.0,4.0,,,xt17,1,2022-04-21_14h26.14.214,threat_forest,2021.2.3,59.92846936451807,False,9.0,0.4,0.4416666666666666,-1.3025,-1.100138888888889,0,0,0,0.3120863020990332,0.037518611380037,0.375,0.375,0.5,0.75,-1.25,-1.125,3.875,3.875,0.0,1.0,-1.0,5.0,0,0,0,0.3872838392515488,0.23729506710612927,0.33750317263820523,0.42087982663129003,0.24373999816610528,0.32815349551941153,0.4671328566042226,0.2489197508850014,0.31980693281974437,0.4866865158972237,0.24982275114104513,0.39278367230113453,0.3649675509666147,0.23176623770804622,0.34096914886973434,0.3246772287813176,0.21926192589220153,0.32090231046972495,0.4755323266618379,0.24940133296141698,0.40186328467388704,0.3661015182829299,0.2320711965938634,0.33239359214764064,0.4360827510882464,0.24591458529155294,0.4148632078128712,0.44409788175258247,0.24687495317545177,0.3819887045516912
12.0,0.0,12.0,0.0,1.0,0.0,1.0,0.0,,,,left,1.0315503999590874,488.97459680004977,xt17,479.2668401999399,482.7738330999855,488.97459680004977,None,False,4.0,['p'],False,0.375,0.5,0.25,1.0,1.0,0.9850568223215076,0.0528715126498535,wait_cost,1.0,3.0,487.3243307999801,None,xt17,1,2022-04-21_14h26.14.214,threat_forest,2021.2.3,59.92846936451807,False,9.0,0.4,0.4416666666666666,-1.3025,-1.100138888888889,0,0,0,0.0310629131780645,0.0528715126498535,0.375,0.375,0.5,0.75,-1.25,-1.125,2.875,2.875,0.0,1.0,-1.0,4.0,0,0,0,0.3872838392515488,0.23729506710612927,0.33750317263820523,0.42087982663129003,0.24373999816610528,0.32815349551941153,0.4671328566042226,0.2489197508850014,0.31980693281974437,0.4866865158972237,0.24982275114104513,0.39278367230113453,0.3649675509666147,0.23176623770804622,0.34096914886973434,0.3246772287813176,0.21926192589220153,0.32090231046972495,0.4755323266618379,0.24940133296141698,0.40186328467388704,0.3661015182829299,0.2320711965938634,0.33239359214764064,0.4360827510882464,0.24591458529155294,0.4148632078128712,0.5077956794629168,0.24993922738171145,0.3849180522285366
12.0,0.0,12.0,0.0,3.0,0.0,3.0,0.0,,,,right,0.9309640999417752,503.82495049992576,xt17,498.69106399989687,500.69080900005065,503.82495049992576,None,True,2.0,['p'],False,0.375,0.5,0.25,1.0,1.0,0.9850568223215076,0.0367406982421875,figh_cost,1.0,0.0,500.69080900005065,None,xt17,1,2022-04-21_14h26.14.214,threat_forest,2021.2.3,59.92846936451807,True,9.0,0.4,0.4416666666666666,-1.3025,-1.100138888888889,0,0,1,-0.0715345631985277,0.0367406982421875,0.375,0.375,0.5,0.75,-1.25,-1.125,0.875,0.875,0.0,1.0,-1.0,2.0,0,0,0,0.3872838392515488,0.23729506710612927,0.33750317263820523,0.42087982663129003,0.24373999816610528,0.32815349551941153,0.4671328566042226,0.2489197508850014,0.31980693281974437,0.4866865158972237,0.24982275114104513,0.39278367230113453,0.3649675509666147,0.23176623770804622,0.34096914886973434,0.3246772287813176,0.21926192589220153,0.32090231046972495,0.4755323266618379,0.24940133296141698,0.40186328467388704,0.3661015182829299,0.2320711965938634,0.33239359214764064,0.4360827510882464,0.24591458529155294,0.4148632078128712,0.4409013204750545,0.2465073460784078,0.3816372839792379
13.0,0.0,13.0,0.0,0.0,0.0,0.0,0.0,510.5305230999365,514.0409979999531,None,right,1.2047545998357236,517.8420875000302,xt17,510.5305230999365,514.0409979999531,517.8420875000302,None,True,4.0,['r'],False,0.28125,0.375,0.25,2.0,2.0,0.9634951148421658,-0.0007636143604934,unsucc_cost,1.0,2.0,,,xt17,1,2022-04-21_14h26.14.214,threat_forest,2021.2.3,59.92846936451807,True,40.0,0.3541666666666666,0.3770833333333333,-0.8958333333333335,-1.0991666666666666,0,0,1,0.1862758946142066,-0.0007636143604934,0.28125,0.28125,0.375,0.75,-1.25,-1.125,2.875,2.875,0.0,2.0,-1.0,4.0,0,0,0,0.3872838392515488,0.23729506710612927,0.33750317263820523,0.42087982663129003,0.24373999816610528,0.32815349551941153,0.4671328566042226,0.2489197508850014,0.31980693281974437,0.3906236428382052,0.2380368124940155,0.34762951508019857,0.3649675509666147,0.23176623770804622,0.34096914886973434,0.3246772287813176,0.21926192589220153,0.32090231046972495,0.34499521861015936,0.22597351774628768,0.3429579328769628,0.3661015182829299,0.2320711965938634,0.33239359214764064,0.28501909361747624,0.20378320989094856,0.3702695155474989,0.29687734005792893,0.20874118501805775,0.3455340475457914
13.0,0.0,13.0,0.0,1.0,0.0,1.0,0.0,,,,right,1.602758700028062,523.9084785000887,xt17,523.9084785000887,None,519.0746023000684,521.0743960000109,False,2.0,['r'],True,0.3333333333333333,0.3333333333333333,0.0,0.0,2.0,0.5793801642856949,0.0190226231038631,wait_cost,0.0,1.0,521.0743960000109,None,xt17,1,2022-04-21_14h26.14.214,threat_forest,2021.2.3,59.92846936451807,False,40.0,0.3541666666666666,0.3770833333333333,-0.8958333333333335,-1.0991666666666666,1,0,0,0.471726332058338,0.0190226231038631,0.3333333333333333,0.3333333333333333,0.3333333333333333,1.0,-0.6666666666666669,-0.6666666666666669,1.333333333333333,1.333333333333333,1.0,2.0,-1.0,2.0,0,0,1,0.49700971563917695,0.24999105819944142,0.3157863524831333,0.488595263070095,0.24986993197555965,0.31820207476461637,0.4671328566042226,0.2489197508850014,0.31980693281974437,0.360045533762561,0.23041274738019352,0.31842028150770474,0.5288375044372973,0.24916839833782886,0.3666630310255664,0.5376398827493908,0.24858323922661213,0.3317495371976083,0.41596622984665266,0.24293832547381441,0.3856131253556792,0.3661015182829299,0.2320711965938634,0.33239359214764064,0.36549904465625394,0.23190949301161967,0.4000396049909579,0.36990276778982234,0.2330747101712511,0.368796115682955
13.0,0.0,13.0,0.0,2.0,0.0,2.0,0.0,,,,right,1.8583410999272016,529.124789299909,xt17,525.5412812998984,527.5412926999852,529.124789299909,None,True,1.0,['r'],False,0.28125,0.375,0.25,2.0,2.0,0.9634951148421658,0.1100623609705103,succ_gain,1.0,3.0,527.5412926999852,None,xt17,1,2022-04-21_14h26.14.214,threat_forest,2021.2.3,59.92846936451807,True,40.0,0.3541666666666666,0.3770833333333333,-0.8958333333333335,-1.0991666666666666,0,0,1,0.6196842080023627,0.1100623609705103,1.0,0.28125,0.375,0.75,-1.25,-1.125,-0.125,0.0,0.0,2.0,-1.0,1.0,1,0,0,0.3872838392515488,0.23729506710612927,0.33750317263820523,0.42087982663129003,0.24373999816610528,0.32815349551941153,0.4671328566042226,0.2489197508850014,0.31980693281974437,0.3906236428382052,0.2380368124940155,0.34762951508019857,0.3649675509666147,0.23176623770804622,0.34096914886973434,0.3246772287813176,0.21926192589220153,0.32090231046972495,0.34499521861015936,0.22597351774628768,0.3429579328769628,0.9333345545668317,0.062221163818365496,0.290405778834196,0.9846386325204602,0.015125395868698165,0.17058582561400099,0.7278635999777675,0.19807817980517192,0.33534055719667405
13.0,0.0,13.0,0.0,3.0,0.0,3.0,0.0,,,,right,1.710872899973765,534.2753931998741,xt17,525.5412812998984,527.5412926999852,534.2753931998741,None,True,3.0,['r'],False,0.28125,0.375,0.25,2.0,2.0,0.9634951148421658,0.0303292936748929,figh_cost,1.0,0.0,533.007890699897,None,xt17,1,2022-04-21_14h26.14.214,threat_forest,2021.2.3,59.92846936451807,True,40.0,0.3541666666666666,0.3770833333333333,-0.8958333333333335,-1.0991666666666666,0,0,1,0.5370037080911074,0.0303292936748929,0.28125,0.28125,0.375,0.75,-1.25,-1.125,1.875,1.875,0.0,2.0,1.0,3.0,0,0,0,0.3872838392515488,0.23729506710612927,0.33750317263820523,0.42087982663129003,0.24373999816610528,0.32815349551941153,0.27999549475640384,0.20159801767252047,0.3564634264769453,0.3906236428382052,0.2380368124940155,0.34762951508019857,0.3649675509666147,0.23176623770804622,0.34096914886973434,0.3246772287813176,0.21926192589220153,0.32090231046972495,0.34499521861015936,0.22597351774628768,0.3429579328769628,0.3661015182829299,0.2320711965938634,0.33239359214764064,0.28501909361747624,0.20378320989094856,0.3702695155474989,0.414765496866493,0.24273507947558418,0.37803111832120073
14.0,0.0,14.0,0.0,0.0,0.0,0.0,0.0,541.4500583999325,544.9581162999384,None,left,0.9412020999006928,547.8087084998842,xt17,547.8087084998842,None,541.4500583999325,544.9581162999384,True,4.0,['p'],True,0.375,0.5,0.25,1.0,2.0,0.9850568223215076,0.0640175729863931,succ_gain,0.0,6.0,,,xt17,1,2022-04-21_14h26.14.214,threat_forest,2021.2.3,59.92846936451807,True,59.0,0.3611111111111111,0.3576388888888888,-1.1404320987654322,-1.018132716049383,1,1,1,-0.0605973910427096,0.0640175729863931,0.375,0.375,0.5,0.75,-0.75,-0.75,3.25,3.25,1.0,2.0,-1.0,4.0,0,1,1,0.49700971563917695,0.24999105819944142,0.3157863524831333,0.42087982663129003,0.24373999816610528,0.32815349551941153,0.4671328566042226,0.2489197508850014,0.31980693281974437,0.4866865158972237,0.24982275114104513,0.39278367230113453,0.50496417236772,0.24997535699270354,0.3678544865593979,0.5376398827493908,0.24858323922661213,0.3317495371976083,0.4755323266618379,0.24940133296141698,0.40186328467388704,0.3661015182829299,0.2320711965938634,0.33239359214764064,0.4360827510882464,0.24591458529155294,0.4148632078128712,0.553999718960042,0.24708403035223647,0.3821885756144194
14.0,0.0,14.0,0.0,1.0,0.0,1.0,0.0,,,,left,0.909914700081572,553.3616563000251,xt17,548.7753892999608,550.7748716000933,553.3616563000251,None,False,6.0,['p'],False,0.1728395061728395,0.2222222222222222,0.2222222222222222,2.0,2.0,0.8571721972794328,-0.10870870610332,wait_cost,1.0,5.0,550.7748716000933,None,xt17,1,2022-04-21_14h26.14.214,threat_forest,2021.2.3,59.92846936451807,False,59.0,0.3611111111111111,0.3576388888888888,-1.1404320987654322,-1.018132716049383,0,0,0,-0.0944044200388477,-0.10870870610332,0.1728395061728395,0.1728395061728395,0.2222222222222222,0.7777777777777778,-1.7777777777777777,-1.5308641975308643,4.469135802469136,4.469135802469136,0.0,2.0,1.0,6.0,0,0,0,0.3872838392515488,0.23729506710612927,0.33750317263820523,0.4283050677869668,0.24485983669496855,0.3263355339027687,0.27999549475640384,0.20159801767252047,0.3564634264769453,0.2843266996700639,0.20348502752479317,0.2152551003230474,0.23876428327080557,0.18175590030498406,0.26713005824505887,0.3246772287813176,0.21926192589220153,0.32090231046972495,0.21939181412610587,0.1712590460205621,0.20538747759586667,0.3661015182829299,0.2320711965938634,0.33239359214764064,0.1563099790861866,0.1318771695242625,0.29416101432616343,0.06536017410441824,0.06108822174545838,0.20438255919061682
14.0,0.0,14.0,0.0,2.0,0.0,2.0,0.0,,,,left,1.3312526000663638,558.292186500039,xt17,548.7753892999608,550.7748716000933,558.292186500039,None,False,5.0,['p'],False,0.1728395061728395,0.2222222222222222,0.2222222222222222,2.0,2.0,0.8571721972794328,-0.0361377939425744,wait_cost,1.0,4.0,556.2916210999247,None,xt17,1,2022-04-21_14h26.14.214,threat_forest,2021.2.3,59.92846936451807,False,59.0,0.3611111111111111,0.3576388888888888,-1.1404320987654322,-1.018132716049383,0,0,0,0.2861203035751848,-0.0361377939425744,0.1728395061728395,0.1728395061728395,0.2222222222222222,0.7777777777777778,-1.7777777777777777,-1.5308641975308643,3.469135802469136,3.469135802469136,0.0,2.0,-1.0,5.0,0,0,0,0.3872838392515488,0.23729506710612927,0.33750317263820523,0.4283050677869668,0.24485983669496855,0.3263355339027687,0.4671328566042226,0.2489197508850014,0.31980693281974437,0.2843266996700639,0.20348502752479317,0.2152551003230474,0.23876428327080557,0.18175590030498406,0.26713005824505887,0.3246772287813176,0.21926192589220153,0.32090231046972495,0.21939181412610587,0.1712590460205621,0.20538747759586667,0.3661015182829299,0.2320711965938634,0.33239359214764064,0.1563099790861866,0.1318771695242625,0.29416101432616343,0.18978032651914994,0.15376375418543478,0.29297739025987235
14.0,0.0,14.0,0.0,3.0,0.0,3.0,0.0,,,,left,1.1526669999584556,562.7253016999457,xt17,548.7753892999608,550.7748716000933,562.7253016999457,None,False,4.0,['p'],False,0.1728395061728395,0.2222222222222222,0.2222222222222222,2.0,2.0,0.8571721972794328,-0.0141708501176583,wait_cost,1.0,3.0,561.6417038000654,None,xt17,1,2022-04-21_14h26.14.214,threat_forest,2021.2.3,59.92846936451807,False,59.0,0.3611111111111111,0.3576388888888888,-1.1404320987654322,-1.018132716049383,0,0,0,0.1420783877414049,-0.0141708501176583,0.1728395061728395,0.1728395061728395,0.2222222222222222,0.7777777777777778,-1.7777777777777777,-1.5308641975308643,2.469135802469136,2.469135802469136,0.0,2.0,-1.0,4.0,0,0,0,0.3872838392515488,0.23729506710612927,0.33750317263820523,0.4283050677869668,0.24485983669496855,0.3263355339027687,0.4671328566042226,0.2489197508850014,0.31980693281974437,0.2843266996700639,0.20348502752479317,0.2152551003230474,0.23876428327080557,0.18175590030498406,0.26713005824505887,0.3246772287813176,0.21926192589220153,0.32090231046972495,0.21939181412610587,0.1712590460205621,0.20538747759586667,0.3661015182829299,0.2320711965938634,0.33239359214764064,0.1563099790861866,0.1318771695242625,0.29416101432616343,0.2524598226432487,0.18872386059418814,0.32639812861336104
14.0,0.0,14.0,0.0,4.0,0.0,4.0,0.0,,,,left,1.5490662001539022,568.4093466000631,xt17,548.7753892999608,550.7748716000933,568.4093466000631,None,False,3.0,['p'],False,0.1728395061728395,0.2222222222222222,0.2222222222222222,2.0,2.0,0.8571721972794328,0.0140841716201798,wait_cost,1.0,2.0,565.9083839999512,None,xt17,1,2022-04-21_14h26.14.214,threat_forest,2021.2.3,59.92846936451807,False,59.0,0.3611111111111111,0.3576388888888888,-1.1404320987654322,-1.018132716049383,0,0,0,0.4376522978707115,0.0140841716201798,0.1728395061728395,0.1728395061728395,0.2222222222222222,0.7777777777777778,-1.7777777777777777,-1.5308641975308643,1.4691358024691357,1.4691358024691357,0.0,2.0,-1.0,3.0,0,0,0,0.3872838392515488,0.23729506710612927,0.33750317263820523,0.4283050677869668,0.24485983669496855,0.3263355339027687,0.4671328566042226,0.2489197508850014,0.31980693281974437,0.2843266996700639,0.20348502752479317,0.2152551003230474,0.23876428327080557,0.18175590030498406,0.26713005824505887,0.3246772287813176,0.21926192589220153,0.32090231046972495,0.21939181412610587,0.1712590460205621,0.20538747759586667,0.3661015182829299,0.2320711965938634,0.33239359214764064,0.1563099790861866,0.1318771695242625,0.29416101432616343,0.3509437353822885,0.22778222997821476,0.36373667468170556
14.0,0.0,14.0,0.0,5.0,0.0,5.0,0.0,,,,left,2.231179299997166,573.8926679000724,xt17,573.8926679000724,None,569.9753664999735,571.9751661000773,True,2.0,['p'],True,0.375,0.5,0.25,1.0,2.0,0.9850568223215076,0.1010802469135803,succ_gain,0.0,4.0,571.9751661000773,None,xt17,1,2022-04-21_14h26.14.214,threat_forest,2021.2.3,59.92846936451807,True,59.0,0.3611111111111111,0.3576388888888888,-1.1404320987654322,-1.018132716049383,1,1,1,0.8025302797680115,0.1010802469135803,0.375,0.375,0.5,0.75,-0.75,-0.75,1.25,1.25,1.0,2.0,-1.0,2.0,0,1,1,0.49700971563917695,0.24999105819944142,0.3157863524831333,0.42087982663129003,0.24373999816610528,0.32815349551941153,0.4671328566042226,0.2489197508850014,0.31980693281974437,0.4866865158972237,0.24982275114104513,0.39278367230113453,0.50496417236772,0.24997535699270354,0.3678544865593979,0.5376398827493908,0.24858323922661213,0.3317495371976083,0.4755323266618379,0.24940133296141698,0.40186328467388704,0.3661015182829299,0.2320711965938634,0.33239359214764064,0.4360827510882464,0.24591458529155294,0.4148632078128712,0.6972413455402786,0.21109585160946046,0.3477850331446587
14.0,0.0,14.0,0.0,6.0,0.0,6.0,0.0,,,,right,0.9199260999448596,581.3093324000947,xt17,581.3093324000947,None,569.9753664999735,571.9751661000773,False,4.0,['p'],True,0.375,0.5,0.25,1.0,2.0,0.9850568223215076,-0.181520061728395,wait_cost,0.0,3.0,578.1420201999135,None,xt17,1,2022-04-21_14h26.14.214,threat_forest,2021.2.3,59.92846936451807,False,59.0,0.3611111111111111,0.3576388888888888,-1.1404320987654322,-1.018132716049383,1,1,0,-0.0834619383122604,-0.181520061728395,0.0,0.375,0.5,0.75,-0.75,-0.75,3.25,3.25,1.0,2.0,1.0,4.0,0,1,1,0.49700971563917695,0.24999105819944142,0.3157863524831333,0.42087982663129003,0.24373999816610528,0.32815349551941153,0.27999549475640384,0.20159801767252047,0.3564634264769453,0.4866865158972237,0.24982275114104513,0.39278367230113453,0.50496417236772,0.24997535699270354,0.3678544865593979,0.5376398827493908,0.24858323922661213,0.3317495371976083,0.4755323266618379,0.24940133296141698,0.40186328467388704,0.3661015182829299,0.2320711965938634,0.33239359214764064,0.05178051072346333,0.04909928943268064,0.20654528196317623,0.020370969734613033,0.019955993326684518,0.16506147052437697
14.0,0.0,14.0,0.0,7.0,0.0,7.0,0.0,,,,right,0.8744330999907106,586.4427865999751,xt17,586.4427865999751,None,569.9753664999735,571.9751661000773,False,3.0,['p'],True,0.375,0.5,0.25,1.0,2.0,0.9850568223215076,-0.25,wait_cost,0.0,2.0,584.2587888000999,None,xt17,1,2022-04-21_14h26.14.214,threat_forest,2021.2.3,59.92846936451807,False,59.0,0.3611111111111111,0.3576388888888888,-1.1404320987654322,-1.018132716049383,1,1,0,-0.1341794883180764,-0.25,0.0,0.375,0.5,0.75,-0.75,-0.75,2.25,2.25,1.0,2.0,-1.0,3.0,0,1,1,0.49700971563917695,0.24999105819944142,0.3157863524831333,0.42087982663129003,0.24373999816610528,0.32815349551941153,0.4671328566042226,0.2489197508850014,0.31980693281974437,0.4866865158972237,0.24982275114104513,0.39278367230113453,0.50496417236772,0.24997535699270354,0.3678544865593979,0.5376398827493908,0.24858323922661213,0.3317495371976083,0.4755323266618379,0.24940133296141698,0.40186328467388704,0.3661015182829299,0.2320711965938634,0.33239359214764064,0.05178051072346333,0.04909928943268064,0.20654528196317623,0.006602189085876888,0.0065586001851512185,0.15225399317957405
15.0,0.0,15.0,0.0,0.0,0.0,0.0,0.0,591.8819236001,595.3921230998822,None,right,1.8074960999656469,596.1596228999551,xt17,591.8819236001,595.3921230998822,596.1596228999551,None,True,4.0,['r'],False,0.25,0.25,0.0,0.0,1.0,0.5118595071429148,0.0117925466256169,succ_gain,1.0,5.0,,,xt17,1,2022-04-21_14h26.14.214,threat_forest,2021.2.3,59.92846936451807,True,32.0,0.2678571428571428,0.314484126984127,-1.461734693877551,-1.3010833963214916,1,0,1,0.5919425173531004,0.0117925466256169,0.25,0.25,0.25,1.0,-1.25,-1.25,2.75,2.75,0.0,1.0,-1.0,4.0,0,0,1,0.3872838392515488,0.23729506710612927,0.33750317263820523,0.488595263070095,0.24986993197555965,0.31820207476461637,0.4671328566042226,0.2489197508850014,0.31980693281974437,0.30235332001627385,0.21093578989141054,0.24380037833557666,0.3649675509666147,0.23176623770804622,0.34096914886973434,0.5376398827493908,0.24858323922661213,0.3317495371976083,0.3053040023199887,0.21209346848738506,0.3080588534260416,0.3661015182829299,0.2320711965938634,0.33239359214764064,0.24221491841916032,0.1835468517143598,0.3488504680913433,0.34229918518037444,0.22513045300522616,0.36120166110509166
15.0,0.0,15.0,0.0,1.0,0.0,1.0,0.0,,,,right,1.269675699993968,600.777840099996,xt17,600.777840099996,None,597.9926203000359,599.9922106999438,False,5.0,['r'],True,0.2040816326530612,0.2857142857142857,0.2857142857142857,2.0,1.0,0.9335459102197724,0.0005939157599406,wait_cost,0.0,4.0,599.9922106999438,None,xt17,1,2022-04-21_14h26.14.214,threat_forest,2021.2.3,59.92846936451807,False,32.0,0.2678571428571428,0.314484126984127,-1.461734693877551,-1.3010833963214916,0,0,0,0.238761513526572,0.0005939157599406,0.2040816326530612,0.2040816326530612,0.2857142857142857,0.7142857142857143,-2.0,-1.673469387755102,3.326530612244898,3.326530612244898,1.0,1.0,1.0,5.0,0,0,0,0.49700971563917695,0.24999105819944142,0.3157863524831333,0.4113858709950624,0.24214753614069634,0.3307387207671028,0.27999549475640384,0.20159801767252047,0.3564634264769453,0.3264510179082336,0.21988075081491174,0.27807021326100245,0.19553231490092124,0.1572994287304082,0.23102065137582356,0.3246772287813176,0.21926192589220153,0.32090231046972495,0.2519563691896952,0.18847435721444122,0.24867251945133195,0.3661015182829299,0.2320711965938634,0.33239359214764064,0.18768472108490183,0.15245916655618444,0.3159459010791168,0.3016190371986372,0.21064499359800432,0.34735402737312937
15.0,0.0,15.0,0.0,2.0,0.0,2.0,0.0,,,,left,2.043817700119689,606.8429078999907,xt17,602.0760119999759,604.0757182999514,606.8429078999907,None,False,4.0,['r'],False,0.25,0.25,0.0,0.0,1.0,0.5118595071429148,0.0262769237000459,wait_cost,1.0,3.0,604.0757182999514,None,xt17,1,2022-04-21_14h26.14.214,threat_forest,2021.2.3,59.92846936451807,False,32.0,0.2678571428571428,0.314484126984127,-1.461734693877551,-1.3010833963214916,1,0,0,0.7148194805556176,0.0262769237000459,0.25,0.25,0.25,1.0,-1.25,-1.25,2.75,2.75,0.0,1.0,-1.0,4.0,0,0,1,0.3872838392515488,0.23729506710612927,0.33750317263820523,0.488595263070095,0.24986993197555965,0.31820207476461637,0.4671328566042226,0.2489197508850014,0.31980693281974437,0.30235332001627385,0.21093578989141054,0.24380037833557666,0.3649675509666147,0.23176623770804622,0.34096914886973434,0.5376398827493908,0.24858323922661213,0.3317495371976083,0.3053040023199887,0.21209346848738506,0.3080588534260416,0.3661015182829299,0.2320711965938634,0.33239359214764064,0.24221491841916032,0.1835468517143598,0.3488504680913433,0.3984807249140202,0.23969383678601713,0.3751237880342416
15.0,0.0,15.0,0.0,3.0,0.0,3.0,0.0,,,,left,2.4512165999040008,611.7426829000469,xt17,602.0760119999759,604.0757182999514,611.7426829000469,None,False,3.0,['r'],False,0.25,0.25,0.0,0.0,1.0,0.5118595071429148,0.0564614140897925,wait_cost,1.0,2.0,610.9091330999509,None,xt17,1,2022-04-21_14h26.14.214,threat_forest,2021.2.3,59.92846936451807,False,32.0,0.2678571428571428,0.314484126984127,-1.461734693877551,-1.3010833963214916,1,0,0,0.8965844726952514,0.0564614140897925,0.25,0.25,0.25,1.0,-1.25,-1.25,1.75,1.75,0.0,1.0,-1.0,3.0,0,0,1,0.3872838392515488,0.23729506710612927,0.33750317263820523,0.488595263070095,0.24986993197555965,0.31820207476461637,0.4671328566042226,0.2489197508850014,0.31980693281974437,0.30235332001627385,0.21093578989141054,0.24380037833557666,0.3649675509666147,0.23176623770804622,0.34096914886973434,0.5376398827493908,0.24858323922661213,0.3317495371976083,0.3053040023199887,0.21209346848738506,0.3080588534260416,0.3661015182829299,0.2320711965938634,0.33239359214764064,0.24221491841916032,0.1835468517143598,0.3488504680913433,0.5227298349085472,0.24948335460503018,0.3844822525025916
15.0,0.0,15.0,0.0,4.0,0.0,4.0,0.0,,,,left,2.15073770005256,616.9762271998916,xt17,616.9762271998916,None,614.225936899893,616.2258744998835,True,2.0,['r'],True,0.2040816326530612,0.2857142857142857,0.2857142857142857,2.0,1.0,0.9335459102197724,0.0213766824409896,figh_cost,0.0,0.0,616.2258744998835,None,xt17,1,2022-04-21_14h26.14.214,threat_forest,2021.2.3,59.92846936451807,True,32.0,0.2678571428571428,0.314484126984127,-1.461734693877551,-1.3010833963214916,0,0,1,0.7658108995921502,0.0213766824409896,0.2040816326530612,0.2040816326530612,0.2857142857142857,0.7142857142857143,-2.0,-1.673469387755102,0.3265306122448979,0.3265306122448979,1.0,1.0,-1.0,2.0,0,0,0,0.49700971563917695,0.24999105819944142,0.3157863524831333,0.4113858709950624,0.24214753614069634,0.3307387207671028,0.4671328566042226,0.2489197508850014,0.31980693281974437,0.3264510179082336,0.21988075081491174,0.27807021326100245,0.19553231490092124,0.1572994287304082,0.23102065137582356,0.3246772287813176,0.21926192589220153,0.32090231046972495,0.2519563691896952,0.18847435721444122,0.24867251945133195,0.3661015182829299,0.2320711965938634,0.33239359214764064,0.18768472108490183,0.15245916655618444,0.3159459010791168,0.3790876419619874,0.23538020167368748,0.3710000914769138
16.0,0.0,16.0,0.0,0.0,0.0,0.0,0.0,624.8456272000913,628.3593530999497,None,left,1.0739919999614358,630.4436550000682,xt17,630.4436550000682,None,624.8456272000913,628.3593530999497,True,4.0,['r'],True,0.5,0.5,0.0,0.0,1.0,0.6309297535714574,0.0805026556124999,unsucc_cost,0.0,2.0,,,xt17,1,2022-04-21_14h26.14.214,threat_forest,2021.2.3,59.92846936451807,True,0.0,0.55,0.4089285714285714,-0.91,-1.1858673469387755,1,1,1,0.0713825472334515,0.0805026556124999,0.5,0.5,0.5,1.0,-0.5,-0.5,3.5,3.5,1.0,1.0,-1.0,4.0,0,1,1,0.49700971563917695,0.24999105819944142,0.3157863524831333,0.488595263070095,0.24986993197555965,0.31820207476461637,0.4671328566042226,0.2489197508850014,0.31980693281974437,0.4866865158972237,0.24982275114104513,0.39278367230113453,0.5760844095546382,0.2442111626227221,0.35934378872040984,0.5376398827493908,0.24858323922661213,0.3317495371976083,0.6516428684704189,0.2270044404420632,0.3455500168383761,0.3661015182829299,0.2320711965938634,0.33239359214764064,0.6516780355418204,0.2269937735341743,0.394836592282359,0.6204446043692581,0.23549309727833284,0.3711080160472797
16.0,0.0,16.0,0.0,1.0,0.0,1.0,0.0,,,,left,1.9074929999187589,636.5932670999318,xt17,636.5932670999318,None,624.8456272000913,628.3593530999497,True,2.0,['r'],True,0.5,0.5,0.0,0.0,1.0,0.6309297535714574,0.0445789599999999,unsucc_cost,0.0,0.0,633.5428947000764,None,xt17,1,2022-04-21_14h26.14.214,threat_forest,2021.2.3,59.92846936451807,True,0.0,0.55,0.4089285714285714,-0.91,-1.1858673469387755,1,1,1,0.6457898144023804,0.0445789599999999,0.5,0.5,0.5,1.0,-0.5,-0.5,1.5,1.5,1.0,1.0,-1.0,2.0,0,1,1,0.49700971563917695,0.24999105819944142,0.3157863524831333,0.488595263070095,0.24986993197555965,0.31820207476461637,0.4671328566042226,0.2489197508850014,0.31980693281974437,0.4866865158972237,0.24982275114104513,0.39278367230113453,0.5760844095546382,0.2442111626227221,0.35934378872040984,0.5376398827493908,0.24858323922661213,0.3317495371976083,0.6516428684704189,0.2270044404420632,0.3455500168383761,0.3661015182829299,0.2320711965938634,0.33239359214764064,0.6516780355418204,0.2269937735341743,0.394836592282359,0.4732896078825332,0.24928655495293123,0.3842941183589492
17.0,0.0,17.0,0.0,0.0,0.0,0.0,0.0,643.5546426998917,647.0596505000722,None,right,1.609355099964887,650.0104576998856,xt17,650.0104576998856,None,643.5546426998917,647.0596505000722,False,5.0,['p'],True,0.48,0.6,0.2,1.0,1.0,0.9455672104350704,0.0603064788559827,wait_cost,0.0,4.0,,,xt17,1,2022-04-21_14h26.14.214,threat_forest,2021.2.3,59.92846936451807,False,4.0,0.4666666666666667,0.5083333333333333,-0.9911111111111112,-0.9505555555555556,1,0,0,0.4758335397231543,0.0603064788559827,0.48,0.48,0.6,0.8,-0.8000000000000002,-0.7600000000000002,4.24,4.24,1.0,1.0,-1.0,5.0,0,0,1,0.49700971563917695,0.24999105819944142,0.3157863524831333,0.43426876391399116,0.24567940460260543,0.3250050358354906,0.4671328566042226,0.2489197508850014,0.31980693281974437,0.5646051874087055,0.24582616975988605,0.3774720141094805,0.49062231049249455,0.2499120589395009,0.3677610284679412,0.5376398827493908,0.24858323922661213,0.3317495371976083,0.6248987592868198,0.23440029992861305,0.3641456776328363,0.3661015182829299,0.2320711965938634,0.33239359214764064,0.6189428480191521,0.23585259890509283,0.404213160900571,0.5386798351148453,0.24850387035548838,0.38354589703380204
17.0,0.0,17.0,0.0,1.0,0.0,1.0,0.0,,,,right,2.1219792999327183,656.7604050999507,xt17,656.7604050999507,None,643.5546426998917,647.0596505000722,False,4.0,['p'],True,0.48,0.6,0.2,1.0,1.0,0.9455672104350704,0.0855482011192285,wait_cost,0.0,3.0,653.6430901000276,None,xt17,1,2022-04-21_14h26.14.214,threat_forest,2021.2.3,59.92846936451807,False,4.0,0.4666666666666667,0.5083333333333333,-0.9911111111111112,-0.9505555555555556,1,0,0,0.7523492851643424,0.0855482011192285,0.48,0.48,0.6,0.8,-0.8000000000000002,-0.7600000000000002,3.24,3.24,1.0,1.0,-1.0,4.0,0,0,1,0.49700971563917695,0.24999105819944142,0.3157863524831333,0.43426876391399116,0.24567940460260543,0.3250050358354906,0.4671328566042226,0.2489197508850014,0.31980693281974437,0.5646051874087055,0.24582616975988605,0.3774720141094805,0.49062231049249455,0.2499120589395009,0.3677610284679412,0.5376398827493908,0.24858323922661213,0.3317495371976083,0.6248987592868198,0.23440029992861305,0.3641456776328363,0.3661015182829299,0.2320711965938634,0.33239359214764064,0.6189428480191521,0.23585259890509283,0.404213160900571,0.6400264990513366,0.230392579563426,0.36623208500679083
17.0,0.0,17.0,0.0,3.0,0.0,3.0,0.0,,,,left,1.6896341999527067,669.7271143998951,xt17,658.9101094000507,660.9098495000508,669.7271143998951,None,False,2.0,['p'],False,0.2962962962962963,0.3333333333333333,0.1111111111111111,1.0,1.0,0.8325252476189534,-0.0250792273535538,wait_cost,1.0,1.0,667.9766512000933,None,xt17,1,2022-04-21_14h26.14.214,threat_forest,2021.2.3,59.92846936451807,False,4.0,0.4666666666666667,0.5083333333333333,-0.9911111111111112,-0.9505555555555556,0,0,0,0.5245120557742318,-0.0250792273535538,0.2962962962962963,0.2962962962962963,0.3333333333333333,0.8888888888888888,-1.3333333333333337,-1.2222222222222223,0.7777777777777777,0.7777777777777777,0.0,1.0,-1.0,2.0,0,0,0,0.3872838392515488,0.23729506710612927,0.33750317263820523,0.45829752282099334,0.24826090339713439,0.32081419438745856,0.4671328566042226,0.2489197508850014,0.31980693281974437,0.360045533762561,0.23041274738019352,0.31842028150770474,0.34310481592888786,0.22538390121529187,0.33154577867953827,0.3246772287813176,0.21926192589220153,0.32090231046972495,0.3649513249781301,0.23176185537483732,0.35751174684545023,0.3661015182829299,0.2320711965938634,0.33239359214764064,0.3071765425245487,0.2128191142472128,0.3798335123164438,0.2197307340678011,0.17144913857382638,0.309884049450627
17.0,0.0,17.0,0.0,4.0,0.0,4.0,0.0,,,,left,1.555010800017044,675.1438585000578,xt17,675.1438585000578,None,671.4435976000968,673.4432975000236,True,1.0,['p'],True,0.48,0.6,0.2,1.0,1.0,0.9455672104350704,0.2083555555555555,unsucc_cost,0.0,0.0,673.4432975000236,None,xt17,1,2022-04-21_14h26.14.214,threat_forest,2021.2.3,59.92846936451807,True,4.0,0.4666666666666667,0.5083333333333333,-0.9911111111111112,-0.9505555555555556,1,0,1,0.4414824909556599,0.2083555555555555,1.0,0.48,0.6,0.8,-0.8000000000000002,-0.7600000000000002,0.2399999999999997,0.2399999999999997,1.0,1.0,-1.0,1.0,1,0,1,0.49700971563917695,0.24999105819944142,0.3157863524831333,0.43426876391399116,0.24567940460260543,0.3250050358354906,0.4671328566042226,0.2489197508850014,0.31980693281974437,0.5646051874087055,0.24582616975988605,0.3774720141094805,0.49062231049249455,0.2499120589395009,0.3677610284679412,0.5376398827493908,0.24858323922661213,0.3317495371976083,0.6248987592868198,0.23440029992861305,0.3641456776328363,0.9333345545668317,0.062221163818365496,0.290405778834196,0.9846386325204602,0.015125395868698165,0.17058582561400099,0.9322056717553969,0.06319825730246599,0.2063996853813327
0.0,0.0,0.0,0.0,0.0,0.0,0.0,0.0,11.54610520019196,15.056175400037318,None,right,1.6943602000828832,17.524390200152993,xt17,17.524390200152993,None,11.54610520019196,15.056175400037318,False,4.0,['p'],True,0.1728395061728395,0.2222222222222222,0.2222222222222222,2.0,2.0,0.8571721972794328,-0.0023371412519707,wait_cost,0.0,3.0,,,xt17,2,2022-04-21_14h37.44.307,threat_forest,2021.2.3,60.02700008468413,False,26.0,0.2111111111111111,0.3388888888888889,-1.3654320987654325,-1.1782716049382718,0,0,0,0.5273052064973491,-0.0023371412519707,0.1728395061728395,0.1728395061728395,0.2222222222222222,0.7777777777777778,-1.7777777777777777,-1.5308641975308643,2.469135802469136,2.469135802469136,1.0,2.0,-1.0,4.0,0,0,0,0.49700971563917695,0.24999105819944142,0.3157863524831333,0.4283050677869668,0.24485983669496855,0.3263355339027687,0.4671328566042226,0.2489197508850014,0.31980693281974437,0.2843266996700639,0.20348502752479317,0.2152551003230474,0.23876428327080557,0.18175590030498406,0.26713005824505887,0.3246772287813176,0.21926192589220153,0.32090231046972495,0.21939181412610587,0.1712590460205621,0.20538747759586667,0.3661015182829299,0.2320711965938634,0.33239359214764064,0.1563099790861866,0.1318771695242625,0.29416101432616343,0.2914354842713062,0.20650084277885547,0.34339235235404275
0.0,0.0,0.0,0.0,2.0,0.0,2.0,0.0,,,,right,1.062850899994373,31.323659300105646,xt17,19.23976540006697,21.239563200157136,31.323659300105646,None,True,2.0,['p'],False,0.2,0.2,0.0,0.0,2.0,0.4554859150035951,0.0080294181291996,unsucc_cost,1.0,0.0,29.80634760018438,None,xt17,2,2022-04-21_14h37.44.307,threat_forest,2021.2.3,60.02700008468413,True,26.0,0.2111111111111111,0.3388888888888889,-1.3654320987654325,-1.1782716049382718,0,0,1,0.060954826111229,0.0080294181291996,0.2,0.2,0.2,1.0,-1.2000000000000002,-1.2000000000000002,0.7999999999999998,0.7999999999999998,0.0,2.0,-1.0,2.0,0,0,0,0.3872838392515488,0.23729506710612927,0.33750317263820523,0.488595263070095,0.24986993197555965,0.31820207476461637,0.4671328566042226,0.2489197508850014,0.31980693281974437,0.27038176708643596,0.19727546711365226,0.19146510145450413,0.3783646741358678,0.23520484750192636,0.34604617560816353,0.3246772287813176,0.21926192589220153,0.32090231046972495,0.24752554006106128,0.1862566470785412,0.24309645550600795,0.3661015182829299,0.2320711965938634,0.33239359214764064,0.18332600936598162,0.14971758365592566,0.3130440897090472,0.3283301625038608,0.22052946689404915,0.35680326622631686
