miniblock.thisRepN,miniblock.thisTrialN,miniblock.thisN,miniblock.thisIndex,day.thisRepN,day.thisTrialN,day.thisN,day.thisIndex,forest.started,fixation_forest.started,fixation_forest.stopped,key_resp.keys,key_resp.rt,key_resp.started,Subject_ID,weather_left.started,weather_left.stopped,weather_right.started,weather_right.stopped,foraging T/F,in_LP,p/r heuristic,good_weather.T/F,p_succ_correct,p_succ_uncorrected,r_threat,n_oponents,gain_if_succ,weather_entropy,OP_value_difference,action_outcome,forest_side_L=0_R=1,out_LP,fixation_day.started,fixation_day.stopped,participant,session,date,expName,psychopyVersion,frameRate,foraging T/F NaNs,fora_NR,forest_mean_p,mvt_cutoff_p,forest_mean_ev,mvt_cutoff_ev,mvt_policy_eg,mvt_policy_p,fora_response,logRT,optimal policy values,multi-heuristic policy,** $\mathit{p}$ success,* $\mathit{p}$ gain,* $\mathit{r}$ predator,expected gain naive,expected gain correct,expected state no bounds,expected state with bounds,weather type,gain magnitude,win stay lose shift,continuous energy state,** binary energy state,** wait when safe,$\mathit{p}$ success based MVT,marginal value,$\mathit{OP}$ values + cap,win stay lose shift fit,win stay lose shift_uncertain,win stay lose shift_uncertain_fit,** wait when safe fit,** wait when safe_uncertain,** wait when safe_uncertain_fit,** binary energy state fit,** binary energy state_uncertain,** binary energy state_uncertain_fit,weather type fit,weather type_uncertain,weather type_uncertain_fit,* $\mathit{r}$ predator fit,* $\mathit{r}$ predator_uncertain,* $\mathit{r}$ predator_uncertain_fit,* $\mathit{p}$ gain fit,* $\mathit{p}$ gain_uncertain,* $\mathit{p}$ gain_uncertain_fit,expected gain naive fit,expected gain naive_uncertain,expected gain naive_uncertain_fit,** $\mathit{p}$ success fit,** $\mathit{p}$ success_uncertain,** $\mathit{p}$ success_uncertain_fit,marginal value fit,marginal value_uncertain,marginal value_uncertain_fit,multi-heuristic policy fit,multi-heuristic policy_uncertain,multi-heuristic policy_uncertain_fit,optimal policy values fit,optimal policy values_uncertain,optimal policy values_uncertain_fit
0.0,0.0,0.0,0.0,0.0,0.0,0.0,0.0,30.109013699984644,33.62221729999874,,left,0.7637242000200786,36.68513199998415,xs3,36.68513199998415,,30.109013699984644,33.62221729999874,True,5.0,['p'],True,0.375,0.5,0.25,1.0,1.0,0.9850568223215076,0.0361323788439721,unsucc_cost,0.0,3.0,,,xs3,1,2023-03-31_15h28.58.026,threat_forest,2021.2.3,59.9660951699188,True,69.0,0.3928571428571428,0.3928571428571428,-1.2665816326530612,-1.2665816326530612,1,0,1.0,-0.2695485497280196,0.0361323788439721,0.375,0.375,0.5,0.25,-0.25,-0.125,4.875,4.875,1.0,1.0,,5.0,0,1,0,1,0.0361323788439721,,,,0.5540536308281153,0.2470782049942978,0.35247937194074397,0.46315617002470605,0.24864253219275156,0.3383276222380621,0.46744664447631273,0.24894027904414848,0.35251993816673455,0.5367457823450476,0.24864974747985036,0.31931946147044077,0.5399794981871311,0.24840163972470516,0.3029314786813193,0.5129130196643029,0.24983325392314934,0.34471239356527406,0.5248307761502445,0.24938343255577647,0.3400583875126024,0.5602400577776435,0.24637113543894618,0.28310991240989125,0.5178480543945742,0.24968144695432834,0.37771063754182577,0.5382663975494844,0.24853568281858482,0.3588392853645059
0.0,0.0,0.0,0.0,1.0,0.0,1.0,0.0,,,,left,1.4330033999867735,40.74915879999753,xs3,40.74915879999753,,30.109013699984644,33.62221729999874,True,3.0,['p'],True,0.375,0.5,0.25,1.0,1.0,0.9850568223215076,0.0375814591545523,succ_gain,0.0,4.0,39.483484399999725,,xs3,1,2023-03-31_15h28.58.026,threat_forest,2021.2.3,59.9660951699188,True,69.0,0.3928571428571428,0.3928571428571428,-1.2665816326530612,-1.2665816326530612,1,0,1.0,0.3597725214787913,0.0375814591545523,0.375,0.375,0.5,0.25,-0.25,-0.125,2.875,2.875,1.0,1.0,-1.0,3.0,0,1,0,1,0.0375814591545523,0.5692801498668038,0.24520026083443328,0.3298887146739339,0.5540536308281153,0.2470782049942978,0.35247937194074397,0.46315617002470605,0.24864253219275156,0.3383276222380621,0.46744664447631273,0.24894027904414848,0.35251993816673455,0.5367457823450476,0.24864974747985036,0.31931946147044077,0.5399794981871311,0.24840163972470516,0.3029314786813193,0.5129130196643029,0.24983325392314934,0.34471239356527406,0.5248307761502445,0.24938343255577647,0.3400583875126024,0.5602400577776435,0.24637113543894618,0.28310991240989125,0.5178480543945742,0.24968144695432834,0.37771063754182577,0.5409530511329262,0.2483228476029039,0.3585155611967862
0.0,0.0,0.0,0.0,2.0,0.0,2.0,0.0,,,,left,1.3772725999879183,45.428493199986406,xs3,45.428493199986406,,30.109013699984644,33.62221729999874,True,4.0,['p'],True,0.375,0.5,0.25,1.0,1.0,0.9850568223215076,0.0477022567879512,unsucc_cost,0.0,2.0,44.22894830000587,,xs3,1,2023-03-31_15h28.58.026,threat_forest,2021.2.3,59.9660951699188,True,69.0,0.3928571428571428,0.3928571428571428,-1.2665816326530612,-1.2665816326530612,1,0,1.0,0.3201051667389902,0.0477022567879512,0.375,0.375,0.5,0.25,-0.25,-0.125,3.875,3.875,1.0,1.0,1.0,4.0,0,1,0,1,0.0477022567879512,0.25453630999373694,0.18974757688850918,0.291977636011705,0.5540536308281153,0.2470782049942978,0.35247937194074397,0.46315617002470605,0.24864253219275156,0.3383276222380621,0.46744664447631273,0.24894027904414848,0.35251993816673455,0.5367457823450476,0.24864974747985036,0.31931946147044077,0.5399794981871311,0.24840163972470516,0.3029314786813193,0.5129130196643029,0.24983325392314934,0.34471239356527406,0.5248307761502445,0.24938343255577647,0.3400583875126024,0.5602400577776435,0.24637113543894618,0.28310991240989125,0.5178480543945742,0.24968144695432834,0.37771063754182577,0.5596425962040248,0.24644276071804366,0.35565593310331006
0.0,0.0,0.0,0.0,3.0,0.0,3.0,0.0,,,,left,1.267280000000028,52.62173759998405,xs3,52.62173759998405,,30.109013699984644,33.62221729999874,True,2.0,['p'],True,0.375,0.5,0.25,1.0,1.0,0.9850568223215076,0.0358404932494761,succ_gain,0.0,3.0,48.84122699999716,,xs3,1,2023-03-31_15h28.58.026,threat_forest,2021.2.3,59.9660951699188,True,69.0,0.3928571428571428,0.3928571428571428,-1.2665816326530612,-1.2665816326530612,1,0,1.0,0.2368728713984802,0.0358404932494761,0.375,0.375,0.5,0.25,-0.25,-0.125,1.875,1.875,1.0,1.0,-1.0,2.0,0,1,0,1,0.0358404932494761,0.5692801498668038,0.24520026083443328,0.3298887146739339,0.5540536308281153,0.2470782049942978,0.35247937194074397,0.46315617002470605,0.24864253219275156,0.3383276222380621,0.46744664447631273,0.24894027904414848,0.35251993816673455,0.5367457823450476,0.24864974747985036,0.31931946147044077,0.5399794981871311,0.24840163972470516,0.3029314786813193,0.5129130196643029,0.24983325392314934,0.34471239356527406,0.5248307761502445,0.24938343255577647,0.3400583875126024,0.5602400577776435,0.24637113543894618,0.28310991240989125,0.5178480543945742,0.24968144695432834,0.37771063754182577,0.5377249556898364,0.2485768277181999,0.3589018671056956
0.0,0.0,0.0,0.0,4.0,0.0,4.0,0.0,,,,left,1.5465366000134964,59.59859989999677,xs3,59.59859989999677,,30.109013699984644,33.62221729999874,True,3.0,['p'],True,0.375,0.5,0.25,1.0,1.0,0.9850568223215076,0.0723316171972615,succ_gain,0.0,4.0,55.93455790000735,,xs3,1,2023-03-31_15h28.58.026,threat_forest,2021.2.3,59.9660951699188,True,69.0,0.3928571428571428,0.3928571428571428,-1.2665816326530612,-1.2665816326530612,1,0,1.0,0.4360179792150265,0.0723316171972615,0.375,0.375,0.5,0.25,-0.25,-0.125,2.875,2.875,1.0,1.0,1.0,3.0,0,1,0,1,0.0723316171972615,0.25453630999373694,0.18974757688850918,0.291977636011705,0.5540536308281153,0.2470782049942978,0.35247937194074397,0.46315617002470605,0.24864253219275156,0.3383276222380621,0.46744664447631273,0.24894027904414848,0.35251993816673455,0.5367457823450476,0.24864974747985036,0.31931946147044077,0.5399794981871311,0.24840163972470516,0.3029314786813193,0.5129130196643029,0.24983325392314934,0.34471239356527406,0.5248307761502445,0.24938343255577647,0.3400583875126024,0.5602400577776435,0.24637113543894618,0.28310991240989125,0.5178480543945742,0.24968144695432834,0.37771063754182577,0.604325485659432,0.23911619304192364,0.3445121615446119
0.0,0.0,0.0,0.0,5.0,0.0,5.0,0.0,,,,left,1.248949500004528,65.78142919999664,xs3,61.16338819998782,63.17783979998785,65.78142919999664,,False,4.0,['p'],False,0.2448979591836734,0.2857142857142857,0.1428571428571428,1.0,1.0,0.8400769154957735,-0.5011453561016244,wait_cost,1.0,3.0,63.17783979998785,,xs3,1,2023-03-31_15h28.58.026,threat_forest,2021.2.3,59.9660951699188,False,69.0,0.3928571428571428,0.3928571428571428,-1.2665816326530612,-1.2665816326530612,0,0,0.0,0.2223027979837801,-0.5011453561016244,0.0,0.2448979591836734,0.2857142857142857,0.1428571428571428,-0.5714285714285712,-0.4081632653061224,3.591836734693877,3.591836734693877,0.0,1.0,1.0,4.0,0,0,0,0,-0.84,0.25453630999373694,0.18974757688850918,0.291977636011705,0.11111183898080129,0.09876599821910578,-0.017199475763113287,0.46315617002470605,0.24864253219275156,0.3383276222380621,0.5714302889123501,0.24489771382589817,0.28762103051089793,0.49977967944701585,0.24999995145885395,0.31774167540160897,0.4389691346049914,0.24627523346913638,0.31346482261585296,0.5081686679435357,0.24993327286402825,0.3563771639334128,0.4798300229155653,0.24959317202441336,0.343137060414044,0.47133645554708287,0.24917840121939566,0.3622500814574092,0.18951261944626185,0.15359758651687816,0.24189105306222905,0.020707245769304276,0.02027845574195391,0.011658107545793519
0.0,0.0,0.0,0.0,6.0,0.0,6.0,0.0,,,,left,1.6521265000046697,71.00430189998588,xs3,61.16338819998782,63.17783979998785,71.00430189998588,,False,3.0,['p'],False,0.2448979591836734,0.2857142857142857,0.1428571428571428,1.0,1.0,0.8400769154957735,-0.5653373594335693,wait_cost,1.0,2.0,69.07241249998333,,xs3,1,2023-03-31_15h28.58.026,threat_forest,2021.2.3,59.9660951699188,False,69.0,0.3928571428571428,0.3928571428571428,-1.2665816326530612,-1.2665816326530612,0,0,0.0,0.5020632460198641,-0.5653373594335693,0.0,0.2448979591836734,0.2857142857142857,0.1428571428571428,-0.5714285714285712,-0.4081632653061224,2.591836734693877,2.591836734693877,0.0,1.0,-1.0,3.0,0,0,0,0,-0.84,0.5692801498668038,0.24520026083443328,0.3298887146739339,0.11111183898080129,0.09876599821910578,-0.017199475763113287,0.46315617002470605,0.24864253219275156,0.3383276222380621,0.5714302889123501,0.24489771382589817,0.28762103051089793,0.49977967944701585,0.24999995145885395,0.31774167540160897,0.4389691346049914,0.24627523346913638,0.31346482261585296,0.5081686679435357,0.24993327286402825,0.3563771639334128,0.4798300229155653,0.24959317202441336,0.343137060414044,0.47133645554708287,0.24917840121939566,0.3622500814574092,0.18951261944626185,0.15359758651687816,0.24189105306222905,0.012927165029936865,0.012760053434225645,0.0002225538858180269
0.0,0.0,0.0,0.0,7.0,0.0,7.0,0.0,,,,right,1.2868376999977045,76.18269620000501,xs3,61.16338819998782,63.17783979998785,76.18269620000501,,True,2.0,['p'],False,0.2448979591836734,0.2857142857142857,0.1428571428571428,1.0,1.0,0.8400769154957735,-0.7551020408163265,succ_gain,1.0,3.0,74.70037469998351,,xs3,1,2023-03-31_15h28.58.026,threat_forest,2021.2.3,59.9660951699188,True,69.0,0.3928571428571428,0.3928571428571428,-1.2665816326530612,-1.2665816326530612,0,0,1.0,0.2521878134339137,-0.7551020408163265,0.0,0.2448979591836734,0.2857142857142857,0.1428571428571428,-0.5714285714285712,-0.4081632653061224,1.5918367346938775,1.5918367346938775,0.0,1.0,-1.0,2.0,0,0,0,0,-0.84,0.5692801498668038,0.24520026083443328,0.3298887146739339,0.11111183898080129,0.09876599821910578,-0.017199475763113287,0.46315617002470605,0.24864253219275156,0.3383276222380621,0.5714302889123501,0.24489771382589817,0.28762103051089793,0.49977967944701585,0.24999995145885395,0.31774167540160897,0.4389691346049914,0.24627523346913638,0.31346482261585296,0.5081686679435357,0.24993327286402825,0.3563771639334128,0.4798300229155653,0.24959317202441336,0.343137060414044,0.47133645554708287,0.24917840121939566,0.3622500814574092,0.18951261944626185,0.15359758651687816,0.24189105306222905,0.003167532542465429,0.0031574992800578526,-0.01438301240450016
1.0,0.0,1.0,0.0,0.0,0.0,0.0,0.0,80.87400779998279,84.37475669998094,,left,1.2609518000099342,87.05630500000552,xs3,80.87400779998279,84.37475669998094,87.05630500000552,,False,5.0,['r'],False,0.3333333333333333,0.3333333333333333,0.0,0.0,1.0,0.5793801642856949,0.037608671236214,wait_cost,1.0,4.0,,,xs3,1,2023-03-31_15h28.58.026,threat_forest,2021.2.3,59.9660951699188,False,28.0,0.3666666666666667,0.3797619047619047,-1.3400000000000003,-1.3032908163265309,1,0,0.0,0.2318668326280811,0.037608671236214,0.3333333333333333,0.3333333333333333,0.3333333333333333,0.0,-2.220446049250313e-16,-2.220446049250313e-16,5.0,5.0,0.0,1.0,1.0,5.0,0,1,0,1,0.037608671236214,0.25453630999373694,0.18974757688850918,0.291977636011705,0.5540536308281153,0.2470782049942978,0.35247937194074397,0.46315617002470605,0.24864253219275156,0.3383276222380621,0.5714302889123501,0.24489771382589817,0.28762103051089793,0.4505650797864652,0.24755618866348145,0.3205973438443235,0.46127472574071243,0.24850035313354296,0.3024424929649183,0.5166015068055398,0.2497243899717856,0.3320160684205824,0.510427646778242,0.24989126418266824,0.34751262337182176,0.5602400577776435,0.24637113543894618,0.28310991240989125,0.4755251414151181,0.24940098129725,0.37731418460132415,0.5410034811618549,0.24831871453260937,0.3585092747618231
1.0,0.0,1.0,0.0,1.0,0.0,1.0,0.0,,,,right,1.5260167000233196,92.20260869999764,xs3,92.20260869999764,,88.33798749998095,90.35243609998724,False,4.0,['r'],True,0.24,0.4,0.4,2.0,1.0,0.9801625908629508,0.0034755885168724,wait_cost,0.0,3.0,90.35243609998724,,xs3,1,2023-03-31_15h28.58.026,threat_forest,2021.2.3,59.9660951699188,False,28.0,0.3666666666666667,0.3797619047619047,-1.3400000000000003,-1.3032908163265309,0,0,0.0,0.4226608764611778,0.0034755885168724,0.24,0.24,0.4,0.4,-1.0,-0.6800000000000002,3.32,3.32,1.0,1.0,-1.0,4.0,0,1,0,0,0.0034755885168724,0.5692801498668038,0.24520026083443328,0.3298887146739339,0.5540536308281153,0.2470782049942978,0.35247937194074397,0.46315617002470605,0.24864253219275156,0.3383276222380621,0.46744664447631273,0.24894027904414848,0.35251993816673455,0.5877400006417068,0.2423016922873933,0.3267375058567604,0.49274472888569487,0.24994736104105797,0.29527460962845375,0.5018407239484064,0.24999661173534574,0.363764098676004,0.4781376917685934,0.24952203947879498,0.34209293723575485,0.47133645554708287,0.24917840121939566,0.3622500814574092,0.3828581334676972,0.23627778310532818,0.35876385453178516,0.4774271886551224,0.24949046818798862,0.36029152200717046
1.0,0.0,1.0,0.0,2.0,0.0,2.0,0.0,,,,right,0.9688017999869772,99.42816300000412,xs3,93.74964329999057,95.76421979998122,99.42816300000412,,True,3.0,['r'],False,0.3333333333333333,0.3333333333333333,0.0,0.0,1.0,0.5793801642856949,0.0487072941563785,unsucc_cost,1.0,1.0,95.76421979998122,,xs3,1,2023-03-31_15h28.58.026,threat_forest,2021.2.3,59.9660951699188,True,28.0,0.3666666666666667,0.3797619047619047,-1.3400000000000003,-1.3032908163265309,1,0,1.0,-0.0316952287898017,0.0487072941563785,0.3333333333333333,0.3333333333333333,0.3333333333333333,0.0,-2.220446049250313e-16,-2.220446049250313e-16,3.0,3.0,0.0,1.0,-1.0,3.0,0,1,0,1,0.0487072941563785,0.5692801498668038,0.24520026083443328,0.3298887146739339,0.5540536308281153,0.2470782049942978,0.35247937194074397,0.46315617002470605,0.24864253219275156,0.3383276222380621,0.5714302889123501,0.24489771382589817,0.28762103051089793,0.4505650797864652,0.24755618866348145,0.3205973438443235,0.46127472574071243,0.24850035313354296,0.3024424929649183,0.5166015068055398,0.2497243899717856,0.3320160684205824,0.510427646778242,0.24989126418266824,0.34751262337182176,0.5602400577776435,0.24637113543894618,0.28310991240989125,0.4755251414151181,0.24940098129725,0.37731418460132415,0.561490232070873,0.2462189513598702,0.35531551717180737
1.0,0.0,1.0,0.0,3.0,0.0,3.0,0.0,,,,left,0.9310636000009254,105.70518329998596,xs3,105.70518329998596,,100.42675959999906,102.44162649998908,True,1.0,['r'],True,0.24,0.4,0.4,2.0,1.0,0.9801625908629508,0.0298469688888888,figh_cost,0.0,0.0,102.44162649998908,,xs3,1,2023-03-31_15h28.58.026,threat_forest,2021.2.3,59.9660951699188,True,28.0,0.3666666666666667,0.3797619047619047,-1.3400000000000003,-1.3032908163265309,0,0,1.0,-0.0714276903961006,0.0298469688888888,1.0,0.24,0.4,0.4,-1.0,-0.6800000000000002,0.3199999999999998,1.0,1.0,1.0,-1.0,1.0,1,1,0,0,0.625,0.5692801498668038,0.24520026083443328,0.3298887146739339,0.5540536308281153,0.2470782049942978,0.35247937194074397,0.9210493308935233,0.07271746095411644,0.19595094502653665,0.46744664447631273,0.24894027904414848,0.35251993816673455,0.5877400006417068,0.2423016922873933,0.3267375058567604,0.49274472888569487,0.24994736104105797,0.29527460962845375,0.5018407239484064,0.24999661173534574,0.363764098676004,0.4781376917685934,0.24952203947879498,0.34209293723575485,0.47133645554708287,0.24917840121939566,0.3622500814574092,0.9316570966741022,0.06367215089088488,0.1147767255855545,0.5265892373420684,0.2492930124575672,0.35999119016693587
2.0,0.0,2.0,0.0,0.0,0.0,0.0,0.0,112.01006000000052,115.51231489999918,,right,1.0173381000058723,117.5788828000077,xs3,112.01006000000052,115.51231489999918,117.5788828000077,,True,5.0,['r'],False,0.2040816326530612,0.2857142857142857,0.2857142857142857,2.0,1.0,0.9335459102197724,-0.0016634484816004,unsucc_cost,1.0,3.0,,,xs3,1,2023-03-31_15h28.58.026,threat_forest,2021.2.3,59.9660951699188,True,32.0,0.2678571428571428,0.3172619047619047,-1.461734693877551,-1.4008673469387758,0,0,1.0,0.0171895102010589,-0.0016634484816004,0.2040816326530612,0.2040816326530612,0.2857142857142857,0.2857142857142857,-1.0,-0.6734693877551021,4.326530612244898,4.326530612244898,0.0,1.0,-1.0,5.0,0,1,0,0,-0.0016634484816004,0.5692801498668038,0.24520026083443328,0.3298887146739339,0.5540536308281153,0.2470782049942978,0.35247937194074397,0.46315617002470605,0.24864253219275156,0.3383276222380621,0.5714302889123501,0.24489771382589817,0.28762103051089793,0.5489985485451776,0.2475991422404659,0.3205471502762209,0.4389691346049914,0.24627523346913638,0.31346482261585296,0.5018407239484064,0.24999661173534574,0.363764098676004,0.46574508284652405,0.2488266006508085,0.33188489824220246,0.47133645554708287,0.24917840121939566,0.3622500814574092,0.34899394065234657,0.22719717004029294,0.3459279309157064,0.4678679988465727,0.24896753450187611,0.3594961354365421
2.0,0.0,2.0,0.0,1.0,0.0,1.0,0.0,,,,left,1.3030831000069156,123.9214312999975,xs3,112.01006000000052,115.51231489999918,123.9214312999975,,False,3.0,['r'],False,0.2040816326530612,0.2857142857142857,0.2857142857142857,2.0,1.0,0.9335459102197724,0.006782822473906,wait_cost,1.0,2.0,120.64076899999054,,xs3,1,2023-03-31_15h28.58.026,threat_forest,2021.2.3,59.9660951699188,False,32.0,0.2678571428571428,0.3172619047619047,-1.461734693877551,-1.4008673469387758,0,0,0.0,0.264733072016184,0.006782822473906,0.2040816326530612,0.2040816326530612,0.2857142857142857,0.2857142857142857,-1.0,-0.6734693877551021,2.326530612244898,2.326530612244898,0.0,1.0,-1.0,3.0,0,1,0,0,0.006782822473906,0.5692801498668038,0.24520026083443328,0.3298887146739339,0.5540536308281153,0.2470782049942978,0.35247937194074397,0.46315617002470605,0.24864253219275156,0.3383276222380621,0.5714302889123501,0.24489771382589817,0.28762103051089793,0.5489985485451776,0.2475991422404659,0.3205471502762209,0.4389691346049914,0.24627523346913638,0.31346482261585296,0.5018407239484064,0.24999661173534574,0.363764098676004,0.46574508284652405,0.2488266006508085,0.33188489824220246,0.47133645554708287,0.24917840121939566,0.3622500814574092,0.34899394065234657,0.22719717004029294,0.3459279309157064,0.4835882173749345,0.24973065339106768,0.36065684573762835
2.0,0.0,2.0,0.0,2.0,0.0,2.0,0.0,,,,right,2.0106186000048183,128.75026189998607,xs3,128.75026189998607,,125.25366610000492,127.26797670000816,False,2.0,['r'],True,0.25,0.25,0.0,0.0,1.0,0.5118595071429148,0.0121283074313569,wait_cost,0.0,1.0,127.26797670000816,,xs3,1,2023-03-31_15h28.58.026,threat_forest,2021.2.3,59.9660951699188,False,32.0,0.2678571428571428,0.3172619047619047,-1.461734693877551,-1.4008673469387758,1,0,0.0,0.6984424359186489,0.0121283074313569,0.25,0.25,0.25,0.0,-0.25,-0.25,1.75,1.75,1.0,1.0,-1.0,2.0,0,1,0,1,0.0121283074313569,0.5692801498668038,0.24520026083443328,0.3298887146739339,0.5540536308281153,0.2470782049942978,0.35247937194074397,0.46315617002470605,0.24864253219275156,0.3383276222380621,0.46744664447631273,0.24894027904414848,0.35251993816673455,0.4505650797864652,0.24755618866348145,0.3205973438443235,0.4223953348902726,0.243977515953207,0.32484677222980984,0.5129130196643029,0.24983325392314934,0.34471239356527406,0.481593359640321,0.24966119559066943,0.3441355482592412,0.5602400577776435,0.24637113543894618,0.28310991240989125,0.3925088928761266,0.23844566188928398,0.361828265082095,0.4935560366634347,0.249958475336517,0.3610033648484011
2.0,0.0,2.0,0.0,3.0,0.0,3.0,0.0,,,,right,1.7758412999974098,133.9288564999879,xs3,130.78160489999573,132.79609499999788,133.9288564999879,,True,1.0,['r'],False,0.2040816326530612,0.2857142857142857,0.2857142857142857,2.0,1.0,0.9335459102197724,0.0171485178705648,unsucc_cost,1.0,0.0,132.79609499999788,,xs3,1,2023-03-31_15h28.58.026,threat_forest,2021.2.3,59.9660951699188,True,32.0,0.2678571428571428,0.3172619047619047,-1.461734693877551,-1.4008673469387758,0,0,1.0,0.574274282467738,0.0171485178705648,1.0,0.2040816326530612,0.2857142857142857,0.2857142857142857,-1.0,-0.6734693877551021,0.3265306122448979,1.0,0.0,1.0,-1.0,1.0,1,1,0,0,0.625,0.5692801498668038,0.24520026083443328,0.3298887146739339,0.5540536308281153,0.2470782049942978,0.35247937194074397,0.9210493308935233,0.07271746095411644,0.19595094502653665,0.5714302889123501,0.24489771382589817,0.28762103051089793,0.5489985485451776,0.2475991422404659,0.3205471502762209,0.4389691346049914,0.24627523346913638,0.31346482261585296,0.5018407239484064,0.24999661173534574,0.363764098676004,0.46574508284652405,0.2488266006508085,0.33188489824220246,0.47133645554708287,0.24917840121939566,0.3622500814574092,0.9316570966741022,0.06367215089088488,0.1147767255855545,0.5029221245615082,0.24999146118804705,0.36105353660827144
3.0,0.0,3.0,0.0,0.0,0.0,0.0,0.0,140.2672740999842,143.75756779999938,,left,1.2550734000105876,146.6335068999906,xs3,146.6335068999906,,140.2672740999842,143.75756779999938,True,5.0,['p'],True,0.32,0.4,0.2,1.0,2.0,0.9455672104350704,0.02103847866381,unsucc_cost,0.0,3.0,,,xs3,1,2023-03-31_15h28.58.026,threat_forest,2021.2.3,59.9660951699188,True,12.0,0.3111111111111111,0.2894841269841269,-1.1204938271604938,-1.2911142605190224,1,1,1.0,0.2271940569377173,0.02103847866381,0.32,0.32,0.4,0.2,0.0,0.0799999999999999,5.08,5.08,1.0,2.0,-1.0,5.0,0,1,1,1,0.02103847866381,0.5692801498668038,0.24520026083443328,0.3298887146739339,0.5540536308281153,0.2470782049942978,0.35247937194074397,0.46315617002470605,0.24864253219275156,0.3383276222380621,0.46744664447631273,0.24894027904414848,0.35251993816673455,0.5195204050004953,0.24961895378861662,0.31818689169907644,0.49274472888569487,0.24994736104105797,0.29527460962845375,0.51660150680554,0.24972438997178562,0.33201606842058595,0.5058138375693705,0.24996619929271693,0.3486125627116743,0.5602400577776435,0.24637113543894618,0.28310991240989125,0.4620268028973808,0.24855803630180565,0.37612263756627407,0.5101784616030304,0.24989639891939563,0.3609089460916021
3.0,0.0,3.0,0.0,1.0,0.0,1.0,0.0,,,,left,1.4006242000032216,151.49557309999363,xs3,151.49557309999363,,140.2672740999842,143.75756779999938,True,3.0,['p'],True,0.32,0.4,0.2,1.0,2.0,0.9455672104350704,0.0685767383231606,figh_cost,0.0,0.0,149.93006349998177,,xs3,1,2023-03-31_15h28.58.026,threat_forest,2021.2.3,59.9660951699188,True,12.0,0.3111111111111111,0.2894841269841269,-1.1204938271604938,-1.2911142605190224,1,1,1.0,0.3369179944016082,0.0685767383231606,0.32,0.32,0.4,0.2,0.0,0.0799999999999999,3.08,3.08,1.0,2.0,-1.0,3.0,0,1,1,1,0.0685767383231606,0.5692801498668038,0.24520026083443328,0.3298887146739339,0.5540536308281153,0.2470782049942978,0.35247937194074397,0.46315617002470605,0.24864253219275156,0.3383276222380621,0.46744664447631273,0.24894027904414848,0.35251993816673455,0.5195204050004953,0.24961895378861662,0.31818689169907644,0.49274472888569487,0.24994736104105797,0.29527460962845375,0.51660150680554,0.24972438997178562,0.33201606842058595,0.5058138375693705,0.24996619929271693,0.3486125627116743,0.5602400577776435,0.24637113543894618,0.28310991240989125,0.4620268028973808,0.24855803630180565,0.37612263756627407,0.5976055933140916,0.24047314815380422,0.3465761017756551
4.0,0.0,4.0,0.0,0.0,0.0,0.0,0.0,158.34138080000412,161.8522701000038,,right,1.113448399992194,163.8845376999816,xs3,158.34138080000412,161.8522701000038,163.8845376999816,,True,4.0,['r'],False,0.5,0.5,0.0,0.0,1.0,0.6309297535714574,0.0993054550861626,succ_gain,1.0,5.0,,,xs3,1,2023-03-31_15h28.58.026,threat_forest,2021.2.3,59.9660951699188,True,30.0,0.5833333333333333,0.4472222222222222,-1.25,-1.1852469135802468,1,1,1.0,0.1074618662663182,0.0993054550861626,0.5,0.5,0.5,0.0,0.5,0.5,4.5,4.5,0.0,1.0,-1.0,4.0,0,1,1,1,0.0993054550861626,0.5692801498668038,0.24520026083443328,0.3298887146739339,0.5540536308281153,0.2470782049942978,0.35247937194074397,0.46315617002470605,0.24864253219275156,0.3383276222380621,0.5714302889123501,0.24489771382589817,0.28762103051089793,0.4505650797864652,0.24755618866348145,0.3205973438443235,0.5399794981871311,0.24840163972470516,0.3029314786813193,0.523972656767376,0.24942531172751362,0.297135884618573,0.5676990886055124,0.24541683340198298,0.28183443278900633,0.5602400577776435,0.24637113543894618,0.28310991240989125,0.6409807622100928,0.2301244246866613,0.35006575914123383,0.6513156190471383,0.2271035834323813,0.326240880471364
4.0,0.0,4.0,0.0,1.0,0.0,1.0,0.0,,,,left,1.7811121999984607,169.97857499998645,xs3,158.34138080000412,161.8522701000038,169.97857499998645,,False,5.0,['r'],False,0.5,0.5,0.0,0.0,1.0,0.6309297535714574,0.120817124271262,wait_cost,1.0,4.0,167.03079379998962,,xs3,1,2023-03-31_15h28.58.026,threat_forest,2021.2.3,59.9660951699188,False,30.0,0.5833333333333333,0.4472222222222222,-1.25,-1.1852469135802468,1,1,0.0,0.5772380006379029,0.120817124271262,0.5,0.5,0.5,0.0,0.5,0.5,5.5,5.5,0.0,1.0,1.0,5.0,0,1,1,1,0.120817124271262,0.25453630999373694,0.18974757688850918,0.291977636011705,0.5540536308281153,0.2470782049942978,0.35247937194074397,0.46315617002470605,0.24864253219275156,0.3383276222380621,0.5714302889123501,0.24489771382589817,0.28762103051089793,0.4505650797864652,0.24755618866348145,0.3205973438443235,0.5399794981871311,0.24840163972470516,0.3029314786813193,0.523972656767376,0.24942531172751362,0.297135884618573,0.5676990886055124,0.24541683340198298,0.28183443278900633,0.5602400577776435,0.24637113543894618,0.28310991240989125,0.6409807622100928,0.2301244246866613,0.35006575914123383,0.6868361274351766,0.21509226148502644,0.3079715579432216
4.0,0.0,4.0,0.0,2.0,0.0,2.0,0.0,,,,right,1.240221999993082,177.03845799999544,xs3,158.34138080000412,161.8522701000038,177.03845799999544,,True,4.0,['r'],False,0.5,0.5,0.0,0.0,1.0,0.6309297535714574,0.1427228009259259,unsucc_cost,1.0,2.0,173.7911032999982,,xs3,1,2023-03-31_15h28.58.026,threat_forest,2021.2.3,59.9660951699188,True,30.0,0.5833333333333333,0.4472222222222222,-1.25,-1.1852469135802468,1,1,1.0,0.2152903958450697,0.1427228009259259,0.5,0.5,0.5,0.0,0.5,0.5,4.5,4.5,0.0,1.0,-1.0,4.0,0,1,1,1,0.1427228009259259,0.5692801498668038,0.24520026083443328,0.3298887146739339,0.5540536308281153,0.2470782049942978,0.35247937194074397,0.46315617002470605,0.24864253219275156,0.3383276222380621,0.5714302889123501,0.24489771382589817,0.28762103051089793,0.4505650797864652,0.24755618866348145,0.3205973438443235,0.5399794981871311,0.24840163972470516,0.3029314786813193,0.523972656767376,0.24942531172751362,0.297135884618573,0.5676990886055124,0.24541683340198298,0.28183443278900633,0.5602400577776435,0.24637113543894618,0.28310991240989125,0.6409807622100928,0.2301244246866613,0.35006575914123383,0.7208841552556012,0.20121018995701942,0.2868568094404763
4.0,0.0,4.0,0.0,3.0,0.0,3.0,0.0,,,,left,2.5435341999982484,183.0331792999932,xs3,158.34138080000412,161.8522701000038,183.0331792999932,,False,2.0,['r'],False,0.5,0.5,0.0,0.0,1.0,0.6309297535714574,0.0965952932098765,wait_cost,1.0,1.0,180.3183207999973,,xs3,1,2023-03-31_15h28.58.026,threat_forest,2021.2.3,59.9660951699188,False,30.0,0.5833333333333333,0.4472222222222222,-1.25,-1.1852469135802468,1,1,0.0,0.9335545312285196,0.0965952932098765,0.5,0.5,0.5,0.0,0.5,0.5,2.5,2.5,0.0,1.0,-1.0,2.0,0,1,1,1,0.0965952932098765,0.5692801498668038,0.24520026083443328,0.3298887146739339,0.5540536308281153,0.2470782049942978,0.35247937194074397,0.46315617002470605,0.24864253219275156,0.3383276222380621,0.5714302889123501,0.24489771382589817,0.28762103051089793,0.4505650797864652,0.24755618866348145,0.3205973438443235,0.5399794981871311,0.24840163972470516,0.3029314786813193,0.523972656767376,0.24942531172751362,0.297135884618573,0.5676990886055124,0.24541683340198298,0.28183443278900633,0.5602400577776435,0.24637113543894618,0.28310991240989125,0.6409807622100928,0.2301244246866613,0.35006575914123383,0.6467082823293449,0.22847667989597328,0.32832937183522576
4.0,0.0,4.0,0.0,4.0,0.0,4.0,0.0,,,,left,0.8910144999972545,190.1760389999836,xs3,190.1760389999836,,185.5970793000015,187.6115135999862,True,1.0,['r'],True,0.2222222222222222,0.6666666666666666,0.6666666666666666,2.0,1.0,0.77250688571426,0.095679012345679,figh_cost,0.0,0.0,187.6115135999862,,xs3,1,2023-03-31_15h28.58.026,threat_forest,2021.2.3,59.9660951699188,True,30.0,0.5833333333333333,0.4472222222222222,-1.25,-1.1852469135802468,0,0,1.0,-0.1153945777972195,0.095679012345679,1.0,0.2222222222222222,0.6666666666666666,0.6666666666666666,-1.0,-1.0,0.0,1.0,1.0,1.0,-1.0,1.0,1,1,0,0,0.625,0.5692801498668038,0.24520026083443328,0.3298887146739339,0.5540536308281153,0.2470782049942978,0.35247937194074397,0.9210493308935233,0.07271746095411644,0.19595094502653665,0.46744664447631273,0.24894027904414848,0.35251993816673455,0.6733353305811759,0.21995486317231447,0.3528509792345798,0.6167395850218818,0.23637186928891882,0.3625220245244647,0.5018407239484064,0.24999661173534574,0.363764098676004,0.47199965644462916,0.24921598076078122,0.33760043667054074,0.47133645554708287,0.24917840121939566,0.3622500814574092,0.9316570966741022,0.06367215089088488,0.1147767255855545,0.6451443458841258,0.2289331188578692,0.3290236193664997
5.0,0.0,5.0,0.0,0.0,0.0,0.0,0.0,196.84402389999013,200.34962729999097,,left,1.1968740000156686,202.64825549998204,xs3,202.64825549998204,,196.84402389999013,200.34962729999097,True,4.0,['r'],True,0.4,0.4,0.0,0.0,1.0,0.6126016192893442,0.0450341371089131,succ_gain,0.0,5.0,,,xs3,1,2023-03-31_15h28.58.026,threat_forest,2021.2.3,59.9660951699188,True,36.0,0.4142857142857142,0.4988095238095237,-1.083673469387755,-1.1668367346938775,1,0,1.0,0.1797131578904776,0.0450341371089131,0.4,0.4,0.4,0.0,0.2,0.2,4.2,4.2,1.0,1.0,-1.0,4.0,0,1,0,1,0.0450341371089131,0.5692801498668038,0.24520026083443328,0.3298887146739339,0.5540536308281153,0.2470782049942978,0.35247937194074397,0.46315617002470605,0.24864253219275156,0.3383276222380621,0.46744664447631273,0.24894027904414848,0.35251993816673455,0.4505650797864652,0.24755618866348145,0.3205973438443235,0.49274472888569487,0.24994736104105797,0.29527460962845375,0.5195510139804295,0.24961775785233703,0.3195800320428184,0.5334543986080561,0.2488808032137733,0.3326805136925177,0.5602400577776435,0.24637113543894618,0.28310991240989125,0.5431580221855214,0.24813738512103406,0.37552802502340654,0.5547297013205941,0.24700465979335862,0.35651058636131006
5.0,0.0,5.0,0.0,1.0,0.0,1.0,0.0,,,,right,1.3609020999865606,206.3944319000002,xs3,206.3944319000002,,196.84402389999013,200.34962729999097,False,5.0,['r'],True,0.4,0.4,0.0,0.0,1.0,0.6126016192893442,0.0748356280301181,wait_cost,0.0,4.0,205.87784749999992,,xs3,1,2023-03-31_15h28.58.026,threat_forest,2021.2.3,59.9660951699188,False,36.0,0.4142857142857142,0.4988095238095237,-1.083673469387755,-1.1668367346938775,1,0,0.0,0.3081477886695492,0.0748356280301181,0.4,0.4,0.4,0.0,0.2,0.2,5.2,5.2,1.0,1.0,1.0,5.0,0,1,0,1,0.0748356280301181,0.25453630999373694,0.18974757688850918,0.291977636011705,0.5540536308281153,0.2470782049942978,0.35247937194074397,0.46315617002470605,0.24864253219275156,0.3383276222380621,0.46744664447631273,0.24894027904414848,0.35251993816673455,0.4505650797864652,0.24755618866348145,0.3205973438443235,0.49274472888569487,0.24994736104105797,0.29527460962845375,0.5195510139804295,0.24961775785233703,0.3195800320428184,0.5334543986080561,0.2488808032137733,0.3326805136925177,0.5602400577776435,0.24637113543894618,0.28310991240989125,0.5431580221855214,0.24813738512103406,0.37552802502340654,0.608785138936548,0.23816579354655598,0.343066595853545
5.0,0.0,5.0,0.0,2.0,0.0,2.0,0.0,,,,right,1.0228606000018772,213.10661479999544,xs3,207.7764101999928,209.7907788000012,213.10661479999544,,True,4.0,['r'],False,0.3061224489795918,0.4285714285714285,0.2857142857142857,2.0,1.0,0.9885754083994552,-0.0011690836695219,figh_cost,1.0,1.0,209.7907788000012,,xs3,1,2023-03-31_15h28.58.026,threat_forest,2021.2.3,59.9660951699188,True,36.0,0.4142857142857142,0.4988095238095237,-1.083673469387755,-1.1668367346938775,0,0,1.0,0.0226032118016325,-0.0011690836695219,0.3061224489795918,0.3061224489795918,0.4285714285714285,0.2857142857142857,-0.5714285714285716,-0.3673469387755101,3.63265306122449,3.63265306122449,0.0,1.0,-1.0,4.0,0,1,0,0,-0.0011690836695219,0.5692801498668038,0.24520026083443328,0.3298887146739339,0.5540536308281153,0.2470782049942978,0.35247937194074397,0.46315617002470605,0.24864253219275156,0.3383276222380621,0.5714302889123501,0.24489771382589817,0.28762103051089793,0.5489985485451776,0.2475991422404659,0.3205471502762209,0.5062641230187572,0.24996076076280585,0.2952082329060246,0.5081686679435357,0.24993327286402825,0.3563771639334128,0.501010669081286,0.2499989785480081,0.3490937149032489,0.47133645554708287,0.24917840121939566,0.3622500814574092,0.4480366759429664,0.2472998129529437,0.37434407276208204,0.46878666063134544,0.2490257274454572,0.3595846473971576
5.0,0.0,5.0,0.0,3.0,0.0,3.0,0.0,,,,right,1.6487247000040952,217.9169859999965,xs3,207.7764101999928,209.7907788000012,217.9169859999965,,True,1.0,['r'],False,0.3061224489795918,0.4285714285714285,0.2857142857142857,2.0,1.0,0.9885754083994552,0.057394018457879,figh_cost,1.0,0.0,216.168268599984,,xs3,1,2023-03-31_15h28.58.026,threat_forest,2021.2.3,59.9660951699188,True,36.0,0.4142857142857142,0.4988095238095237,-1.083673469387755,-1.1668367346938775,0,0,1.0,0.5000020799758343,0.057394018457879,1.0,0.3061224489795918,0.4285714285714285,0.2857142857142857,-0.5714285714285716,-0.3673469387755101,0.6326530612244898,1.0,0.0,1.0,-1.0,1.0,1,1,0,0,0.625,0.5692801498668038,0.24520026083443328,0.3298887146739339,0.5540536308281153,0.2470782049942978,0.35247937194074397,0.9210493308935233,0.07271746095411644,0.19595094502653665,0.5714302889123501,0.24489771382589817,0.28762103051089793,0.5489985485451776,0.2475991422404659,0.3205471502762209,0.5062641230187572,0.24996076076280585,0.2952082329060246,0.5081686679435357,0.24993327286402825,0.3563771639334128,0.501010669081286,0.2499989785480081,0.3490937149032489,0.47133645554708287,0.24917840121939566,0.3622500814574092,0.9316570966741022,0.06367215089088488,0.1147767255855545,0.5773834787414377,0.24401179721787344,0.35195841700696295
6.0,0.0,6.0,0.0,0.0,0.0,0.0,0.0,224.51700769999297,228.0237452999864,,right,0.928640700003598,230.67200550000416,xs3,224.51700769999297,228.0237452999864,230.67200550000416,,True,5.0,['r'],False,0.3333333333333333,0.3333333333333333,0.0,0.0,1.0,0.5793801642856949,0.0360091124884982,succ_gain,1.0,6.0,,,xs3,1,2023-03-31_15h28.58.026,threat_forest,2021.2.3,59.9660951699188,True,66.0,0.5,0.4571428571428571,-1.5,-1.2918367346938775,1,0,1.0,-0.074033374932289,0.0360091124884982,0.3333333333333333,0.3333333333333333,0.3333333333333333,0.0,-2.220446049250313e-16,-2.220446049250313e-16,5.0,5.0,0.0,1.0,-1.0,5.0,0,1,0,1,0.0360091124884982,0.5692801498668038,0.24520026083443328,0.3298887146739339,0.5540536308281153,0.2470782049942978,0.35247937194074397,0.46315617002470605,0.24864253219275156,0.3383276222380621,0.5714302889123501,0.24489771382589817,0.28762103051089793,0.4505650797864652,0.24755618866348145,0.3205973438443235,0.46127472574071243,0.24850035313354296,0.3024424929649183,0.5166015068055398,0.2497243899717856,0.3320160684205824,0.510427646778242,0.24989126418266824,0.34751262337182176,0.5602400577776435,0.24637113543894618,0.28310991240989125,0.4755251414151181,0.24940098129725,0.37731418460132415,0.5380377518963655,0.24855312943067054,0.35886582180942134
6.0,0.0,6.0,0.0,1.0,0.0,1.0,0.0,,,,right,1.2473847000219394,235.4006649999937,xs3,224.51700769999297,228.0237452999864,235.4006649999937,,True,6.0,['r'],False,0.3333333333333333,0.3333333333333333,0.0,0.0,1.0,0.5793801642856949,-0.0916661903673221,succ_gain,1.0,6.0,233.6352488999837,,xs3,1,2023-03-31_15h28.58.026,threat_forest,2021.2.3,59.9660951699188,True,66.0,0.5,0.4571428571428571,-1.5,-1.2918367346938775,1,0,1.0,0.2210491195399859,-0.0916661903673221,0.3333333333333333,0.3333333333333333,0.3333333333333333,0.0,-2.220446049250313e-16,-2.220446049250313e-16,6.0,6.0,0.0,1.0,1.0,6.0,0,1,0,1,-0.0916661903673221,0.25453630999373694,0.18974757688850918,0.291977636011705,0.5540536308281153,0.2470782049942978,0.35247937194074397,0.46315617002470605,0.24864253219275156,0.3383276222380621,0.5714302889123501,0.24489771382589817,0.28762103051089793,0.4505650797864652,0.24755618866348145,0.3205973438443235,0.46127472574071243,0.24850035313354296,0.3024424929649183,0.5166015068055398,0.2497243899717856,0.3320160684205824,0.510427646778242,0.24989126418266824,0.34751262337182176,0.5602400577776435,0.24637113543894618,0.28310991240989125,0.4755251414151181,0.24940098129725,0.37731418460132415,0.30994053875903177,0.2138774011927929,0.30612374513770974
6.0,0.0,6.0,0.0,2.0,0.0,2.0,0.0,,,,left,1.7214196000131778,239.6297790999816,xs3,239.6297790999816,,236.66606119999776,238.68037299998105,True,6.0,['r'],True,0.2222222222222222,0.6666666666666666,0.6666666666666666,2.0,1.0,0.77250688571426,-0.145666628562719,figh_cost,0.0,3.0,238.68037299998105,,xs3,1,2023-03-31_15h28.58.026,threat_forest,2021.2.3,59.9660951699188,True,66.0,0.5,0.4571428571428571,-1.5,-1.2918367346938775,0,0,1.0,0.5431492992571681,-0.145666628562719,0.2222222222222222,0.2222222222222222,0.6666666666666666,0.6666666666666666,-1.0,-1.0,5.0,5.0,1.0,1.0,-1.0,6.0,0,1,0,0,-0.145666628562719,0.5692801498668038,0.24520026083443328,0.3298887146739339,0.5540536308281153,0.2470782049942978,0.35247937194074397,0.46315617002470605,0.24864253219275156,0.3383276222380621,0.46744664447631273,0.24894027904414848,0.35251993816673455,0.6733353305811759,0.21995486317231447,0.3528509792345798,0.6167395850218818,0.23637186928891882,0.3625220245244647,0.5018407239484064,0.24999661173534574,0.363764098676004,0.47199965644462916,0.24921598076078122,0.33760043667054074,0.47133645554708287,0.24917840121939566,0.3622500814574092,0.36593125821665873,0.23202557247663183,0.35275313141887243,0.2308703156147307,0.17756921298268535,0.25089868300630713
6.0,0.0,6.0,0.0,3.0,0.0,3.0,0.0,,,,left,1.580850600003032,246.0743191000074,xs3,246.0743191000074,,236.66606119999776,238.68037299998105,True,3.0,['r'],True,0.2222222222222222,0.6666666666666666,0.6666666666666666,2.0,1.0,0.77250688571426,0.0004286694101509,figh_cost,0.0,0.0,243.39268379998973,,xs3,1,2023-03-31_15h28.58.026,threat_forest,2021.2.3,59.9660951699188,True,66.0,0.5,0.4571428571428571,-1.5,-1.2918367346938775,0,0,1.0,0.4579630566104154,0.0004286694101509,0.2222222222222222,0.2222222222222222,0.6666666666666666,0.6666666666666666,-1.0,-1.0,2.0,2.0,1.0,1.0,-1.0,3.0,0,1,0,0,0.0004286694101509,0.5692801498668038,0.24520026083443328,0.3298887146739339,0.5540536308281153,0.2470782049942978,0.35247937194074397,0.46315617002470605,0.24864253219275156,0.3383276222380621,0.46744664447631273,0.24894027904414848,0.35251993816673455,0.6733353305811759,0.21995486317231447,0.3528509792345798,0.6167395850218818,0.23637186928891882,0.3625220245244647,0.5018407239484064,0.24999661173534574,0.363764098676004,0.47199965644462916,0.24921598076078122,0.33760043667054074,0.47133645554708287,0.24917840121939566,0.3622500814574092,0.36593125821665873,0.23202557247663183,0.35275313141887243,0.47175712801745023,0.24920234018217735,0.359853276867241
7.0,0.0,7.0,0.0,0.0,0.0,0.0,0.0,250.54056279998625,254.04950540000573,,left,1.139618299988797,254.9493281999894,xs3,254.9493281999894,,250.54056279998625,254.04950540000573,True,4.0,['r'],True,0.25,0.25,0.0,0.0,2.0,0.5118595071429148,0.0318177712615933,unsucc_cost,0.0,2.0,,,xs3,1,2023-03-31_15h28.58.026,threat_forest,2021.2.3,59.9660951699188,True,34.0,0.4583333333333333,0.4791666666666666,-1.3888888888888888,-1.4444444444444444,1,0,1.0,0.1306933817689113,0.0318177712615933,0.25,0.25,0.25,0.0,0.0,0.0,4.0,4.0,1.0,2.0,-1.0,4.0,0,1,0,1,0.0318177712615933,0.5692801498668038,0.24520026083443328,0.3298887146739339,0.5540536308281153,0.2470782049942978,0.35247937194074397,0.46315617002470605,0.24864253219275156,0.3383276222380621,0.46744664447631273,0.24894027904414848,0.35251993816673455,0.4505650797864652,0.24755618866348145,0.3205973438443235,0.4223953348902726,0.243977515953207,0.32484677222980984,0.51660150680554,0.24972438997178562,0.33201606842058595,0.481593359640321,0.24966119559066943,0.3441355482592412,0.5602400577776435,0.24637113543894618,0.28310991240989125,0.3925088928761266,0.23844566188928398,0.361828265082095,0.5302543719685285,0.24908467297678993,0.35967430405012474
7.0,0.0,7.0,0.0,1.0,0.0,1.0,0.0,,,,right,1.902696999983164,259.22859749998315,xs3,259.22859749998315,,250.54056279998625,254.04950540000573,False,2.0,['r'],True,0.25,0.25,0.0,0.0,2.0,0.5118595071429148,0.0110650198467983,wait_cost,0.0,1.0,258.1289460999833,,xs3,1,2023-03-31_15h28.58.026,threat_forest,2021.2.3,59.9660951699188,False,34.0,0.4583333333333333,0.4791666666666666,-1.3888888888888888,-1.4444444444444444,1,0,0.0,0.6432723533473413,0.0110650198467983,0.25,0.25,0.25,0.0,0.0,0.0,2.0,2.0,1.0,2.0,-1.0,2.0,0,1,0,1,0.0110650198467983,0.5692801498668038,0.24520026083443328,0.3298887146739339,0.5540536308281153,0.2470782049942978,0.35247937194074397,0.46315617002470605,0.24864253219275156,0.3383276222380621,0.46744664447631273,0.24894027904414848,0.35251993816673455,0.4505650797864652,0.24755618866348145,0.3205973438443235,0.4223953348902726,0.243977515953207,0.32484677222980984,0.51660150680554,0.24972438997178562,0.33201606842058595,0.481593359640321,0.24966119559066943,0.3441355482592412,0.5602400577776435,0.24637113543894618,0.28310991240989125,0.3925088928761266,0.23844566188928398,0.361828265082095,0.4915726448820544,0.249928979685716,0.36095850171343374
7.0,0.0,7.0,0.0,2.0,0.0,2.0,0.0,,,,right,1.7816502999921795,266.47179300000425,xs3,261.15984000000753,263.1743067000061,266.47179300000425,,True,1.0,['r'],False,0.2222222222222222,0.6666666666666666,0.6666666666666666,2.0,2.0,0.77250688571426,0.0614298893318472,succ_gain,1.0,3.0,263.1743067000061,,xs3,1,2023-03-31_15h28.58.026,threat_forest,2021.2.3,59.9660951699188,True,34.0,0.4583333333333333,0.4791666666666666,-1.3888888888888888,-1.4444444444444444,0,0,1.0,0.5775400696070311,0.0614298893318472,1.0,0.2222222222222222,0.6666666666666666,0.6666666666666666,-0.3333333333333335,-0.7777777777777779,0.2222222222222221,1.0,0.0,2.0,-1.0,1.0,1,1,0,0,0.625,0.5692801498668038,0.24520026083443328,0.3298887146739339,0.5540536308281153,0.2470782049942978,0.35247937194074397,0.9210493308935233,0.07271746095411644,0.19595094502653665,0.5714302889123501,0.24489771382589817,0.28762103051089793,0.6733353305811759,0.21995486317231447,0.3528509792345798,0.6167395850218818,0.23637186928891882,0.3625220245244647,0.5116831914753751,0.2498635030369497,0.3482402150280919,0.47199965644462916,0.24921598076078122,0.33760043667054074,0.47133645554708287,0.24917840121939566,0.3622500814574092,0.9316570966741022,0.06367215089088488,0.1147767255855545,0.5847154145372132,0.24282329853978812,0.3501507004400955
7.0,0.0,7.0,0.0,3.0,0.0,3.0,0.0,,,,right,1.268509399989853,271.53337739998824,xs3,261.15984000000753,263.1743067000061,271.53337739998824,,True,3.0,['r'],False,0.2222222222222222,0.6666666666666666,0.6666666666666666,2.0,2.0,0.77250688571426,-0.0119720817139155,figh_cost,1.0,0.0,270.3009044000064,,xs3,1,2023-03-31_15h28.58.026,threat_forest,2021.2.3,59.9660951699188,True,34.0,0.4583333333333333,0.4791666666666666,-1.3888888888888888,-1.4444444444444444,0,0,1.0,0.237842510348902,-0.0119720817139155,0.2222222222222222,0.2222222222222222,0.6666666666666666,0.6666666666666666,-0.3333333333333335,-0.7777777777777779,2.2222222222222223,2.2222222222222223,0.0,2.0,1.0,3.0,0,1,0,0,-0.0119720817139155,0.25453630999373694,0.18974757688850918,0.291977636011705,0.5540536308281153,0.2470782049942978,0.35247937194074397,0.46315617002470605,0.24864253219275156,0.3383276222380621,0.5714302889123501,0.24489771382589817,0.28762103051089793,0.6733353305811759,0.21995486317231447,0.3528509792345798,0.6167395850218818,0.23637186928891882,0.3625220245244647,0.5116831914753751,0.2498635030369497,0.3482402150280919,0.47199965644462916,0.24921598076078122,0.33760043667054074,0.47133645554708287,0.24917840121939566,0.3622500814574092,0.36593125821665873,0.23202557247663183,0.35275313141887243,0.44877068330782555,0.24737555711125286,0.357074724326734
8.0,0.0,8.0,0.0,0.0,0.0,0.0,0.0,278.3743762999948,281.87342839999474,,right,1.4199809999845456,284.7382857000048,xs3,284.7382857000048,,278.3743762999948,281.87342839999474,False,4.0,['r'],True,0.5,0.5,0.0,0.0,2.0,0.6309297535714574,0.096737473125,wait_cost,0.0,3.0,,,xs3,1,2023-03-31_15h28.58.026,threat_forest,2021.2.3,59.9660951699188,False,18.0,0.55,0.5041666666666667,-0.4800000000000001,-0.9344444444444444,1,0,0.0,0.3506434912310789,0.096737473125,0.5,0.5,0.5,0.0,1.0,1.0,5.0,5.0,1.0,2.0,-1.0,4.0,0,1,0,1,0.096737473125,0.5692801498668038,0.24520026083443328,0.3298887146739339,0.5540536308281153,0.2470782049942978,0.35247937194074397,0.46315617002470605,0.24864253219275156,0.3383276222380621,0.46744664447631273,0.24894027904414848,0.35251993816673455,0.4505650797864652,0.24755618866348145,0.3205973438443235,0.5399794981871311,0.24840163972470516,0.3029314786813193,0.5313333772838281,0.2490182194679893,0.24965849999252399,0.5676990886055124,0.24541683340198298,0.28183443278900633,0.5602400577776435,0.24637113543894618,0.28310991240989125,0.6409807622100928,0.2301244246866613,0.35006575914123383,0.6469506791240642,0.22840549790497636,0.3282211034233542
8.0,0.0,8.0,0.0,1.0,0.0,1.0,0.0,,,,right,1.1716436999849975,291.799439800001,xs3,286.1864172999922,288.2008006999968,291.799439800001,,True,3.0,['r'],False,0.36,0.6,0.4,2.0,2.0,0.9801625908629508,0.02233521,figh_cost,1.0,0.0,288.2008006999968,,xs3,1,2023-03-31_15h28.58.026,threat_forest,2021.2.3,59.9660951699188,True,18.0,0.55,0.5041666666666667,-0.4800000000000001,-0.9344444444444444,0,0,1.0,0.1584076346826277,0.02233521,0.36,0.36,0.6,0.4,0.1999999999999997,0.0399999999999998,3.04,3.04,0.0,2.0,-1.0,3.0,0,1,0,0,0.02233521,0.5692801498668038,0.24520026083443328,0.3298887146739339,0.5540536308281153,0.2470782049942978,0.35247937194074397,0.46315617002470605,0.24864253219275156,0.3383276222380621,0.5714302889123501,0.24489771382589817,0.28762103051089793,0.5877400006417068,0.2423016922873933,0.3267375058567604,0.5865068384202227,0.24251656690653753,0.3320837142483435,0.5195510139804295,0.24961775785233703,0.3195800320428184,0.5196491532557724,0.24961391077633113,0.343441475381594,0.47133645554708287,0.24917840121939566,0.3622500814574092,0.5026095900449262,0.24999319003979742,0.3781513027705128,0.5125965836857357,0.24984132607944823,0.36082517983506934
9.0,0.0,9.0,0.0,0.0,0.0,0.0,0.0,297.03301519999513,300.539294599992,,left,1.4506599999731409,303.4055110999907,xs3,297.03301519999513,300.539294599992,303.4055110999907,,False,4.0,['r'],False,0.2040816326530612,0.2857142857142857,0.2857142857142857,2.0,2.0,0.9335459102197724,-0.0038600655291852,wait_cost,1.0,3.0,,,xs3,1,2023-03-31_15h28.58.026,threat_forest,2021.2.3,59.9660951699188,False,17.0,0.2678571428571428,0.4089285714285714,-1.2346938775510203,-0.8573469387755102,0,0,0.0,0.3720186252682216,-0.0038600655291852,0.2040816326530612,0.2040816326530612,0.2857142857142857,0.2857142857142857,-0.7142857142857144,-0.4693877551020406,3.5306122448979598,3.5306122448979598,0.0,2.0,-1.0,4.0,0,1,0,0,-0.0038600655291852,0.5692801498668038,0.24520026083443328,0.3298887146739339,0.5540536308281153,0.2470782049942978,0.35247937194074397,0.46315617002470605,0.24864253219275156,0.3383276222380621,0.5714302889123501,0.24489771382589817,0.28762103051089793,0.5489985485451776,0.2475991422404659,0.3205471502762209,0.4389691346049914,0.24627523346913638,0.31346482261585296,0.5060595439504934,0.24996328192711204,0.35987698933407586,0.46574508284652405,0.2488266006508085,0.33188489824220246,0.47133645554708287,0.24917840121939566,0.3622500814574092,0.34899394065234657,0.22719717004029294,0.3459279309157064,0.46378881736479716,0.24868875025215995,0.3590721022288607
9.0,0.0,9.0,0.0,1.0,0.0,1.0,0.0,,,,right,2.5309650000126567,310.2805820000067,xs3,297.03301519999513,300.539294599992,310.2805820000067,,True,3.0,['r'],False,0.2040816326530612,0.2857142857142857,0.2857142857142857,2.0,2.0,0.9335459102197724,0.028184703228122,unsucc_cost,1.0,1.0,306.90003789999173,,xs3,1,2023-03-31_15h28.58.026,threat_forest,2021.2.3,59.9660951699188,True,17.0,0.2678571428571428,0.4089285714285714,-1.2346938775510203,-0.8573469387755102,0,0,1.0,0.9286006529460986,0.028184703228122,0.2040816326530612,0.2040816326530612,0.2857142857142857,0.2857142857142857,-0.7142857142857144,-0.4693877551020406,2.5306122448979598,2.5306122448979598,0.0,2.0,-1.0,3.0,0,1,0,0,0.028184703228122,0.5692801498668038,0.24520026083443328,0.3298887146739339,0.5540536308281153,0.2470782049942978,0.35247937194074397,0.46315617002470605,0.24864253219275156,0.3383276222380621,0.5714302889123501,0.24489771382589817,0.28762103051089793,0.5489985485451776,0.2475991422404659,0.3205471502762209,0.4389691346049914,0.24627523346913638,0.31346482261585296,0.5060595439504934,0.24996328192711204,0.35987698933407586,0.46574508284652405,0.2488266006508085,0.33188489824220246,0.47133645554708287,0.24917840121939566,0.3622500814574092,0.34899394065234657,0.22719717004029294,0.3459279309157064,0.5234956482350983,0.2494479545140125,0.3602268583485715
9.0,0.0,9.0,0.0,2.0,0.0,2.0,0.0,,,,left,2.500200699985726,316.8247861999844,xs3,316.8247861999844,,312.8281952999823,314.84259129999555,True,1.0,['r'],True,0.25,0.25,0.0,0.0,2.0,0.5118595071429148,0.0699967163129748,unsucc_cost,0.0,0.0,314.84259129999555,,xs3,1,2023-03-31_15h28.58.026,threat_forest,2021.2.3,59.9660951699188,True,17.0,0.2678571428571428,0.4089285714285714,-1.2346938775510203,-0.8573469387755102,0,0,1.0,0.9163710086461792,0.0699967163129748,1.0,0.25,0.25,0.0,0.0,0.0,1.0,1.0,1.0,2.0,-1.0,1.0,1,1,0,0,0.625,0.5692801498668038,0.24520026083443328,0.3298887146739339,0.5540536308281153,0.2470782049942978,0.35247937194074397,0.9210493308935233,0.07271746095411644,0.19595094502653665,0.46744664447631273,0.24894027904414848,0.35251993816673455,0.4505650797864652,0.24755618866348145,0.3205973438443235,0.4223953348902726,0.243977515953207,0.32484677222980984,0.51660150680554,0.24972438997178562,0.33201606842058595,0.481593359640321,0.24966119559066943,0.3441355482592412,0.47133645554708287,0.24917840121939566,0.3622500814574092,0.9316570966741022,0.06367215089088488,0.1147767255855545,0.6001513069174307,0.23996971572273057,0.3458103767792956
10.0,0.0,10.0,0.0,0.0,0.0,0.0,0.0,323.3790786000027,326.8813507999876,,right,1.2220148000051267,329.9495763999876,xs3,329.9495763999876,,323.3790786000027,326.8813507999876,False,5.0,['p'],True,0.18,0.2,0.1,1.0,2.0,0.7058405977926203,-0.0324991432968132,wait_cost,0.0,4.0,,,xs3,1,2023-03-31_15h28.58.026,threat_forest,2021.2.3,59.9660951699188,False,41.0,0.4333333333333333,0.350595238095238,-0.9677777777777778,-1.1012358276643992,0,0,0.0,0.2005009719732201,-0.0324991432968132,0.18,0.18,0.2,0.1,-0.5000000000000002,-0.3800000000000001,4.62,4.62,1.0,2.0,-1.0,5.0,0,1,0,0,-0.0324991432968132,0.5692801498668038,0.24520026083443328,0.3298887146739339,0.5540536308281153,0.2470782049942978,0.35247937194074397,0.46315617002470605,0.24864253219275156,0.3383276222380621,0.46744664447631273,0.24894027904414848,0.35251993816673455,0.48497121867878384,0.24977413573199905,0.3180055532404357,0.39949023177151416,0.23989778649065607,0.3450560777077061,0.5092231256019913,0.2499149339541299,0.35423837731073604,0.4574590744391573,0.24819026965242683,0.322544476938587,0.47133645554708287,0.24917840121939566,0.3622500814574092,0.32709118382494945,0.22010254128894255,0.3358993004604106,0.4112421731690321,0.24212204817624397,0.3490840926911136
10.0,0.0,10.0,0.0,1.0,0.0,1.0,0.0,,,,right,1.0585502999892924,335.6235467999941,xs3,331.1943950999994,333.2087293000077,335.6235467999941,,True,4.0,['p'],False,0.4444444444444445,0.6666666666666666,0.3333333333333333,1.0,2.0,0.9656336071428248,0.1193916674424065,succ_gain,1.0,6.0,333.2087293000077,,xs3,1,2023-03-31_15h28.58.026,threat_forest,2021.2.3,59.9660951699188,True,41.0,0.4333333333333333,0.350595238095238,-0.9677777777777778,-1.1012358276643992,1,1,1.0,0.056900330529203,0.1193916674424065,0.4444444444444445,0.4444444444444445,0.6666666666666666,0.3333333333333333,0.6666666666666665,0.4444444444444444,4.444444444444445,4.444444444444445,0.0,2.0,-1.0,4.0,0,1,1,1,0.1193916674424065,0.5692801498668038,0.24520026083443328,0.3298887146739339,0.5540536308281153,0.2470782049942978,0.35247937194074397,0.46315617002470605,0.24864253219275156,0.3383276222380621,0.5714302889123501,0.24489771382589817,0.28762103051089793,0.5652411014860511,0.24574359867688675,0.32271545286623854,0.6167395850218818,0.23637186928891882,0.3625220245244647,0.5264275465668841,0.2493015847824552,0.28270615371185315,0.5487327885772646,0.24762511531748368,0.3142488263992318,0.5602400577776435,0.24637113543894618,0.28310991240989125,0.5875281989190341,0.24233881439399002,0.3673314406736824,0.6845433959267305,0.2159437350198299,0.30926665640945894
10.0,0.0,10.0,0.0,2.0,0.0,2.0,0.0,,,,right,1.352372399996966,340.9356332999887,xs3,331.1943950999994,333.2087293000077,340.9356332999887,,True,6.0,['p'],False,0.4444444444444445,0.6666666666666666,0.3333333333333333,1.0,2.0,0.9656336071428248,0.087414925936087,succ_gain,1.0,6.0,338.7202461999841,,xs3,1,2023-03-31_15h28.58.026,threat_forest,2021.2.3,59.9660951699188,True,41.0,0.4333333333333333,0.350595238095238,-0.9677777777777778,-1.1012358276643992,1,1,1.0,0.3018603834778356,0.087414925936087,0.4444444444444445,0.4444444444444445,0.6666666666666666,0.3333333333333333,0.6666666666666665,0.4444444444444444,6.444444444444445,6.444444444444445,0.0,2.0,1.0,6.0,0,1,1,1,0.087414925936087,0.25453630999373694,0.18974757688850918,0.291977636011705,0.5540536308281153,0.2470782049942978,0.35247937194074397,0.46315617002470605,0.24864253219275156,0.3383276222380621,0.5714302889123501,0.24489771382589817,0.28762103051089793,0.5652411014860511,0.24574359867688675,0.32271545286623854,0.6167395850218818,0.23637186928891882,0.3625220245244647,0.5264275465668841,0.2493015847824552,0.28270615371185315,0.5487327885772646,0.24762511531748368,0.3142488263992318,0.5602400577776435,0.24637113543894618,0.28310991240989125,0.5875281989190341,0.24233881439399002,0.3673314406736824,0.6309019125020678,0.23286468930330093,0.3350035713505128
10.0,0.0,10.0,0.0,3.0,0.0,3.0,0.0,,,,right,1.694044700008817,345.0480498999823,xs3,331.1943950999994,333.2087293000077,345.0480498999823,,True,6.0,['p'],False,0.4444444444444445,0.6666666666666666,0.3333333333333333,1.0,2.0,0.9656336071428248,-0.2784271604938272,unsucc_cost,1.0,4.0,344.3316923000093,,xs3,1,2023-03-31_15h28.58.026,threat_forest,2021.2.3,59.9660951699188,True,41.0,0.4333333333333333,0.350595238095238,-0.9677777777777778,-1.1012358276643992,1,1,1.0,0.5271189831360445,-0.2784271604938272,0.0,0.4444444444444445,0.6666666666666666,0.3333333333333333,0.6666666666666665,0.4444444444444444,6.444444444444445,6.444444444444445,0.0,2.0,-1.0,6.0,0,0,1,1,-0.84,0.5692801498668038,0.24520026083443328,0.3298887146739339,0.11111183898080129,0.09876599821910578,-0.017199475763113287,0.46315617002470605,0.24864253219275156,0.3383276222380621,0.5714302889123501,0.24489771382589817,0.28762103051089793,0.5652411014860511,0.24574359867688675,0.32271545286623854,0.6167395850218818,0.23637186928891882,0.3625220245244647,0.5264275465668841,0.2493015847824552,0.28270615371185315,0.5487327885772646,0.24762511531748368,0.3142488263992318,0.5602400577776435,0.24637113543894618,0.28310991240989125,0.18951261944626185,0.15359758651687816,0.24189105306222905,0.10027277155369986,0.09021814283863938,0.11803696465136748
10.0,0.0,10.0,0.0,4.0,0.0,4.0,0.0,,,,right,1.543681499984814,350.82946219999576,xs3,350.82946219999576,,346.76312270000926,348.77759509999305,False,4.0,['p'],True,0.18,0.2,0.1,1.0,2.0,0.7058405977926203,0.0243086419753085,wait_cost,0.0,3.0,348.77759509999305,,xs3,1,2023-03-31_15h28.58.026,threat_forest,2021.2.3,59.9660951699188,False,41.0,0.4333333333333333,0.350595238095238,-0.9677777777777778,-1.1012358276643992,0,0,0.0,0.43417014793019,0.0243086419753085,0.18,0.18,0.2,0.1,-0.5000000000000002,-0.3800000000000001,3.62,3.62,1.0,2.0,-1.0,4.0,0,1,0,0,0.0243086419753085,0.5692801498668038,0.24520026083443328,0.3298887146739339,0.5540536308281153,0.2470782049942978,0.35247937194074397,0.46315617002470605,0.24864253219275156,0.3383276222380621,0.46744664447631273,0.24894027904414848,0.35251993816673455,0.48497121867878384,0.24977413573199905,0.3180055532404357,0.39949023177151416,0.23989778649065607,0.3450560777077061,0.5092231256019913,0.2499149339541299,0.35423837731073604,0.4574590744391573,0.24819026965242683,0.322544476938587,0.47133645554708287,0.24917840121939566,0.3622500814574092,0.32709118382494945,0.22010254128894255,0.3358993004604106,0.5162754364884738,0.24973511016710964,0.360663624531778
10.0,0.0,10.0,0.0,5.0,0.0,5.0,0.0,,,,right,1.928562899993267,355.47193400000106,xs3,355.47193400000106,,346.76312270000926,348.77759509999305,False,3.0,['p'],True,0.18,0.2,0.1,1.0,2.0,0.7058405977926203,0.0264666666666665,wait_cost,0.0,2.0,354.40569719998166,,xs3,1,2023-03-31_15h28.58.026,threat_forest,2021.2.3,59.9660951699188,False,41.0,0.4333333333333333,0.350595238095238,-0.9677777777777778,-1.1012358276643992,0,0,0.0,0.6567751141535789,0.0264666666666665,0.18,0.18,0.2,0.1,-0.5000000000000002,-0.3800000000000001,2.62,2.62,1.0,2.0,-1.0,3.0,0,1,0,0,0.0264666666666665,0.5692801498668038,0.24520026083443328,0.3298887146739339,0.5540536308281153,0.2470782049942978,0.35247937194074397,0.46315617002470605,0.24864253219275156,0.3383276222380621,0.46744664447631273,0.24894027904414848,0.35251993816673455,0.48497121867878384,0.24977413573199905,0.3180055532404357,0.39949023177151416,0.23989778649065607,0.3450560777077061,0.5092231256019913,0.2499149339541299,0.35423837731073604,0.4574590744391573,0.24819026965242683,0.322544476938587,0.47133645554708287,0.24917840121939566,0.3622500814574092,0.32709118382494945,0.22010254128894255,0.3358993004604106,0.5202963727672453,0.24958805725249306,0.3604399558017574
10.0,0.0,10.0,0.0,6.0,0.0,6.0,0.0,,,,right,2.0613256999931764,361.99908350000624,xs3,361.99908350000624,,346.76312270000926,348.77759509999305,False,2.0,['p'],True,0.18,0.2,0.1,1.0,2.0,0.7058405977926203,-0.1322222222222222,wait_cost,0.0,1.0,359.43434079998406,,xs3,1,2023-03-31_15h28.58.026,threat_forest,2021.2.3,59.9660951699188,False,41.0,0.4333333333333333,0.350595238095238,-0.9677777777777778,-1.1012358276643992,0,0,0.0,0.7233493195020578,-0.1322222222222222,0.18,0.18,0.2,0.1,-0.5000000000000002,-0.3800000000000001,1.62,1.62,1.0,2.0,-1.0,2.0,0,1,0,0,-0.1322222222222222,0.5692801498668038,0.24520026083443328,0.3298887146739339,0.5540536308281153,0.2470782049942978,0.35247937194074397,0.46315617002470605,0.24864253219275156,0.3383276222380621,0.46744664447631273,0.24894027904414848,0.35251993816673455,0.48497121867878384,0.24977413573199905,0.3180055532404357,0.39949023177151416,0.23989778649065607,0.3450560777077061,0.5092231256019913,0.2499149339541299,0.35423837731073604,0.4574590744391573,0.24819026965242683,0.322544476938587,0.47133645554708287,0.24917840121939566,0.3622500814574092,0.32709118382494945,0.22010254128894255,0.3358993004604106,0.24916555536037002,0.18708208138232843,0.26536783650353113
10.0,0.0,10.0,0.0,7.0,0.0,7.0,0.0,,,,right,1.117797699989751,366.9111906999897,xs3,364.0804116000072,366.0947012999968,366.9111906999897,,True,1.0,['p'],False,0.4444444444444445,0.6666666666666666,0.3333333333333333,1.0,2.0,0.9656336071428248,0.4444444444444444,succ_gain,1.0,3.0,366.0947012999968,,xs3,1,2023-03-31_15h28.58.026,threat_forest,2021.2.3,59.9660951699188,True,41.0,0.4333333333333333,0.350595238095238,-0.9677777777777778,-1.1012358276643992,1,1,1.0,0.1113604102290061,0.4444444444444444,1.0,0.4444444444444445,0.6666666666666666,0.3333333333333333,0.6666666666666665,0.4444444444444444,1.4444444444444444,1.4444444444444444,0.0,2.0,-1.0,1.0,1,1,1,1,0.625,0.5692801498668038,0.24520026083443328,0.3298887146739339,0.5540536308281153,0.2470782049942978,0.35247937194074397,0.9210493308935233,0.07271746095411644,0.19595094502653665,0.5714302889123501,0.24489771382589817,0.28762103051089793,0.5652411014860511,0.24574359867688675,0.32271545286623854,0.6167395850218818,0.23637186928891882,0.3625220245244647,0.5264275465668841,0.2493015847824552,0.28270615371185315,0.5487327885772646,0.24762511531748368,0.3142488263992318,0.5602400577776435,0.24637113543894618,0.28310991240989125,0.9316570966741022,0.06367215089088488,0.1147767255855545,0.9608570403724906,0.03761078833910846,0.03802073239011264
11.0,0.0,11.0,0.0,0.0,0.0,0.0,0.0,373.55335390000255,377.0573833999806,,right,1.3601756000134628,380.1652805999911,xs3,380.1652805999911,,373.55335390000255,377.0573833999806,False,4.0,['p'],True,0.2777777777777778,0.3333333333333333,0.1666666666666666,1.0,2.0,0.8929352898779304,0.0216341378184502,wait_cost,0.0,3.0,,,xs3,1,2023-03-31_15h28.58.026,threat_forest,2021.2.3,59.9660951699188,False,37.0,0.2666666666666666,0.35,-1.1277777777777778,-1.0477777777777777,0,0,0.0,0.3076138090699514,0.0216341378184502,0.2777777777777778,0.2777777777777778,0.3333333333333333,0.1666666666666666,-0.1666666666666665,-0.0555555555555555,3.9444444444444446,3.9444444444444446,1.0,2.0,1.0,4.0,0,1,0,0,0.0216341378184502,0.25453630999373694,0.18974757688850918,0.291977636011705,0.5540536308281153,0.2470782049942978,0.35247937194074397,0.46315617002470605,0.24864253219275156,0.3383276222380621,0.46744664447631273,0.24894027904414848,0.35251993816673455,0.508008432922822,0.24993586500212062,0.31781656387787405,0.46127472574071243,0.24850035313354296,0.3024424929649183,0.5141426915236216,0.24979998427646763,0.3408323006012708,0.4912006535048426,0.24992257150125816,0.3479721696555327,0.47133645554708287,0.24917840121939566,0.3622500814574092,0.41973902554423426,0.2435581759794109,0.36905507233365364,0.5112893024440607,0.24987255165032654,0.3608726741931426
11.0,0.0,11.0,0.0,1.0,0.0,1.0,0.0,,,,left,1.2854043999977876,386.50968889999785,xs3,386.50968889999785,,373.55335390000255,377.0573833999806,True,3.0,['p'],True,0.2777777777777778,0.3333333333333333,0.1666666666666666,1.0,2.0,0.8929352898779304,0.0598929245085531,succ_gain,0.0,5.0,383.5616776999959,,xs3,1,2023-03-31_15h28.58.026,threat_forest,2021.2.3,59.9660951699188,True,37.0,0.2666666666666666,0.35,-1.1277777777777778,-1.0477777777777777,0,0,1.0,0.2510733770064389,0.0598929245085531,0.2777777777777778,0.2777777777777778,0.3333333333333333,0.1666666666666666,-0.1666666666666665,-0.0555555555555555,2.9444444444444446,2.9444444444444446,1.0,2.0,-1.0,3.0,0,1,0,0,0.0598929245085531,0.5692801498668038,0.24520026083443328,0.3298887146739339,0.5540536308281153,0.2470782049942978,0.35247937194074397,0.46315617002470605,0.24864253219275156,0.3383276222380621,0.46744664447631273,0.24894027904414848,0.35251993816673455,0.508008432922822,0.24993586500212062,0.31781656387787405,0.46127472574071243,0.24850035313354296,0.3024424929649183,0.5141426915236216,0.24979998427646763,0.3408323006012708,0.4912006535048426,0.24992257150125816,0.3479721696555327,0.47133645554708287,0.24917840121939566,0.3622500814574092,0.41973902554423426,0.2435581759794109,0.36905507233365364,0.5819274572318724,0.24328789175151977,0.35085735065451096
11.0,0.0,11.0,0.0,2.0,0.0,2.0,0.0,,,,right,1.2609236999996938,393.5864435999829,xs3,393.5864435999829,,373.55335390000255,377.0573833999806,False,5.0,['p'],True,0.2777777777777778,0.3333333333333333,0.1666666666666666,1.0,2.0,0.8929352898779304,0.0426090492641704,wait_cost,0.0,4.0,389.8392634000047,,xs3,1,2023-03-31_15h28.58.026,threat_forest,2021.2.3,59.9660951699188,False,37.0,0.2666666666666666,0.35,-1.1277777777777778,-1.0477777777777777,0,0,0.0,0.2318445476181815,0.0426090492641704,0.2777777777777778,0.2777777777777778,0.3333333333333333,0.1666666666666666,-0.1666666666666665,-0.0555555555555555,4.944444444444445,4.944444444444445,1.0,2.0,1.0,5.0,0,1,0,0,0.0426090492641704,0.25453630999373694,0.18974757688850918,0.291977636011705,0.5540536308281153,0.2470782049942978,0.35247937194074397,0.46315617002470605,0.24864253219275156,0.3383276222380621,0.46744664447631273,0.24894027904414848,0.35251993816673455,0.508008432922822,0.24993586500212062,0.31781656387787405,0.46127472574071243,0.24850035313354296,0.3024424929649183,0.5141426915236216,0.24979998427646763,0.3408323006012708,0.4912006535048426,0.24992257150125816,0.3479721696555327,0.47133645554708287,0.24917840121939566,0.3622500814574092,0.41973902554423426,0.2435581759794109,0.36905507233365364,0.5502549847453049,0.24747443650824916,0.357225120727982
11.0,0.0,11.0,0.0,3.0,0.0,3.0,0.0,,,,left,2.527191400004085,397.8514914999832,xs3,394.86828460000106,396.8827056000009,397.8514914999832,,False,4.0,['p'],False,0.2,0.2,0.0,0.0,2.0,0.4554859150035951,0.0058641975308642,wait_cost,1.0,3.0,396.8827056000009,,xs3,1,2023-03-31_15h28.58.026,threat_forest,2021.2.3,59.9660951699188,False,37.0,0.2666666666666666,0.35,-1.1277777777777778,-1.0477777777777777,0,0,0.0,0.9271085675259396,0.0058641975308642,0.2,0.2,0.2,0.0,-0.2000000000000001,-0.2000000000000001,3.8,3.8,0.0,2.0,-1.0,4.0,0,1,0,0,0.0058641975308642,0.5692801498668038,0.24520026083443328,0.3298887146739339,0.5540536308281153,0.2470782049942978,0.35247937194074397,0.46315617002470605,0.24864253219275156,0.3383276222380621,0.5714302889123501,0.24489771382589817,0.28762103051089793,0.4505650797864652,0.24755618866348145,0.3205973438443235,0.39949023177151416,0.23989778649065607,0.3450560777077061,0.5136508424909239,0.24981365449928797,0.3424265987280002,0.46433921644226367,0.24872830851604827,0.33044211146640956,0.47133645554708287,0.24917840121939566,0.3622500814574092,0.34523326912237645,0.22604725901345327,0.3443024712688645,0.4818763350425141,0.2496715327685088,0.36056692276942165
11.0,0.0,11.0,0.0,4.0,0.0,4.0,0.0,,,,right,1.1521771000116132,405.9745352999889,xs3,394.86828460000106,396.8827056000009,405.9745352999889,,True,3.0,['p'],False,0.2,0.2,0.0,0.0,2.0,0.4554859150035951,0.1327777777777776,unsucc_cost,1.0,1.0,402.4108586999937,,xs3,1,2023-03-31_15h28.58.026,threat_forest,2021.2.3,59.9660951699188,True,37.0,0.2666666666666666,0.35,-1.1277777777777778,-1.0477777777777777,0,0,1.0,0.1416532831070165,0.1327777777777776,0.2,0.2,0.2,0.0,-0.2000000000000001,-0.2000000000000001,2.8,2.8,0.0,2.0,-1.0,3.0,0,1,0,0,0.1327777777777776,0.5692801498668038,0.24520026083443328,0.3298887146739339,0.5540536308281153,0.2470782049942978,0.35247937194074397,0.46315617002470605,0.24864253219275156,0.3383276222380621,0.5714302889123501,0.24489771382589817,0.28762103051089793,0.4505650797864652,0.24755618866348145,0.3205973438443235,0.39949023177151416,0.23989778649065607,0.3450560777077061,0.5136508424909239,0.24981365449928797,0.3424265987280002,0.46433921644226367,0.24872830851604827,0.33044211146640956,0.47133645554708287,0.24917840121939566,0.3622500814574092,0.34523326912237645,0.22604725901345327,0.3443024712688645,0.705708538058144,0.20768399736998114,0.296703525408199
11.0,0.0,11.0,0.0,5.0,0.0,5.0,0.0,,,,left,2.1815426999819465,412.2519716999959,xs3,412.2519716999959,,407.15677609998966,409.1711743999913,True,1.0,['p'],True,0.2777777777777778,0.3333333333333333,0.1666666666666666,1.0,2.0,0.8929352898779304,0.2777777777777777,unsucc_cost,0.0,0.0,409.1711743999913,,xs3,1,2023-03-31_15h28.58.026,threat_forest,2021.2.3,59.9660951699188,True,37.0,0.2666666666666666,0.35,-1.1277777777777778,-1.0477777777777777,0,0,1.0,0.780032287069519,0.2777777777777777,1.0,0.2777777777777778,0.3333333333333333,0.1666666666666666,-0.1666666666666665,-0.0555555555555555,0.9444444444444444,1.0,1.0,2.0,-1.0,1.0,1,1,0,0,0.625,0.5692801498668038,0.24520026083443328,0.3298887146739339,0.5540536308281153,0.2470782049942978,0.35247937194074397,0.9210493308935233,0.07271746095411644,0.19595094502653665,0.46744664447631273,0.24894027904414848,0.35251993816673455,0.508008432922822,0.24993586500212062,0.31781656387787405,0.46127472574071243,0.24850035313354296,0.3024424929649183,0.5141426915236216,0.24979998427646763,0.3408323006012708,0.4912006535048426,0.24992257150125816,0.3479721696555327,0.47133645554708287,0.24917840121939566,0.3622500814574092,0.9316570966741022,0.06367215089088488,0.1147767255855545,0.8761828612054656,0.1084864549352693,0.14582322225073155
12.0,0.0,12.0,0.0,0.0,0.0,0.0,0.0,417.3942802000092,420.8919844999909,,right,1.1100883999897633,421.8430118999968,xs3,417.3942802000092,420.8919844999909,421.8430118999968,,True,5.0,['r'],False,0.2857142857142857,0.2857142857142857,0.0,0.0,2.0,0.5445684476282007,0.0313986794861317,unsucc_cost,1.0,3.0,,,xs3,1,2023-03-31_15h28.58.026,threat_forest,2021.2.3,59.9660951699188,True,55.0,0.2928571428571428,0.2797619047619047,-1.0485714285714285,-1.0881746031746031,1,1,1.0,0.1044396517835931,0.0313986794861317,0.2857142857142857,0.2857142857142857,0.2857142857142857,0.0,0.1428571428571428,0.1428571428571428,5.142857142857142,5.142857142857142,0.0,2.0,-1.0,5.0,0,1,1,1,0.0313986794861317,0.5692801498668038,0.24520026083443328,0.3298887146739339,0.5540536308281153,0.2470782049942978,0.35247937194074397,0.46315617002470605,0.24864253219275156,0.3383276222380621,0.5714302889123501,0.24489771382589817,0.28762103051089793,0.4505650797864652,0.24755618866348145,0.3205973438443235,0.4389691346049914,0.24627523346913638,0.31346482261585296,0.5187084276802858,0.24964999473373145,0.32333967812131803,0.4939470997737005,0.2499633623988505,0.3485709212012442,0.5602400577776435,0.24637113543894618,0.28310991240989125,0.42761757002333234,0.24476078383067285,0.37075502171023633,0.5294752395560705,0.24913121025311225,0.35974508764200913
12.0,0.0,12.0,0.0,1.0,0.0,1.0,0.0,,,,right,0.9515488999895751,427.2925076999818,xs3,427.2925076999818,,422.9753062000091,424.9896374999953,False,3.0,['r'],True,0.24,0.3,0.2,2.0,2.0,0.9003120349047065,0.0453145987444508,wait_cost,0.0,2.0,424.9896374999953,,xs3,1,2023-03-31_15h28.58.026,threat_forest,2021.2.3,59.9660951699188,False,55.0,0.2928571428571428,0.2797619047619047,-1.0485714285714285,-1.0881746031746031,0,0,0.0,-0.049664201039342,0.0453145987444508,0.24,0.24,0.3,0.2,-0.3999999999999999,-0.24,2.76,2.76,1.0,2.0,-1.0,3.0,0,1,0,0,0.0453145987444508,0.5692801498668038,0.24520026083443328,0.3298887146739339,0.5540536308281153,0.2470782049942978,0.35247937194074397,0.46315617002470605,0.24864253219275156,0.3383276222380621,0.46744664447631273,0.24894027904414848,0.35251993816673455,0.5195204050004953,0.24961895378861662,0.31818689169907644,0.44563913188541565,0.24704489601782884,0.30965223021133204,0.5106992263604021,0.2498855265552889,0.3508087213716671,0.4781376917685934,0.24952203947879498,0.34209293723575485,0.47133645554708287,0.24917840121939566,0.3622500814574092,0.3828581334676972,0.23627778310532818,0.35876385453178516,0.5552466448315942,0.24694780823485166,0.3564241146587661
12.0,0.0,12.0,0.0,2.0,0.0,2.0,0.0,,,,left,1.8673443000006955,431.38411250000354,xs3,431.38411250000354,,422.9753062000091,424.9896374999953,True,2.0,['r'],True,0.24,0.3,0.2,2.0,2.0,0.9003120349047065,-0.0036804664723032,unsucc_cost,0.0,0.0,430.2847739999997,,xs3,1,2023-03-31_15h28.58.026,threat_forest,2021.2.3,59.9660951699188,True,55.0,0.2928571428571428,0.2797619047619047,-1.0485714285714285,-1.0881746031746031,0,0,1.0,0.6245172610554689,-0.0036804664723032,0.24,0.24,0.3,0.2,-0.3999999999999999,-0.24,1.76,1.76,1.0,2.0,-1.0,2.0,0,1,0,0,-0.0036804664723032,0.5692801498668038,0.24520026083443328,0.3298887146739339,0.5540536308281153,0.2470782049942978,0.35247937194074397,0.46315617002470605,0.24864253219275156,0.3383276222380621,0.46744664447631273,0.24894027904414848,0.35251993816673455,0.5195204050004953,0.24961895378861662,0.31818689169907644,0.44563913188541565,0.24704489601782884,0.30965223021133204,0.5106992263604021,0.2498855265552889,0.3508087213716671,0.4781376917685934,0.24952203947879498,0.34209293723575485,0.47133645554708287,0.24917840121939566,0.3622500814574092,0.3828581334676972,0.23627778310532818,0.35876385453178516,0.464122163628138,0.2487127808572739,0.359108652982999
13.0,0.0,13.0,0.0,0.0,0.0,0.0,0.0,436.27089069999056,439.7759136999957,,left,1.8352475999854505,442.792758399999,xs3,436.27089069999056,439.7759136999957,442.792758399999,,False,4.0,['r'],False,0.28125,0.375,0.25,2.0,2.0,0.9634951148421658,-0.0007636143604934,wait_cost,1.0,3.0,,,xs3,1,2023-03-31_15h28.58.026,threat_forest,2021.2.3,59.9660951699188,False,40.0,0.3541666666666666,0.3235119047619047,-0.8958333333333335,-0.972202380952381,0,0,0.0,0.6071794042762274,-0.0007636143604934,0.28125,0.28125,0.375,0.25,-0.25,-0.125,3.875,3.875,0.0,2.0,-1.0,4.0,0,1,0,0,-0.0007636143604934,0.5692801498668038,0.24520026083443328,0.3298887146739339,0.5540536308281153,0.2470782049942978,0.35247937194074397,0.46315617002470605,0.24864253219275156,0.3383276222380621,0.5714302889123501,0.24489771382589817,0.28762103051089793,0.5367457823450476,0.24864974747985036,0.31931946147044077,0.48092328198609957,0.24963607882981811,0.2968165739558746,0.5129130196643029,0.24983325392314934,0.34471239356527406,0.4924021681703652,0.24994227295148866,0.34826135853036844,0.47133645554708287,0.24917840121939566,0.3622500814574092,0.4231811040409133,0.24409885722362695,0.3698193536769615,0.46954028907331463,0.24907220601026275,0.3596553416883272
13.0,0.0,13.0,0.0,1.0,0.0,1.0,0.0,,,,right,1.955960300023435,448.0186224000063,xs3,436.27089069999056,439.7759136999957,448.0186224000063,,True,3.0,['r'],False,0.28125,0.375,0.25,2.0,2.0,0.9634951148421658,0.0525198115612938,figh_cost,1.0,0.0,446.66943690000335,,xs3,1,2023-03-31_15h28.58.026,threat_forest,2021.2.3,59.9660951699188,True,40.0,0.3541666666666666,0.3235119047619047,-0.8958333333333335,-0.972202380952381,0,0,1.0,0.6708812748951123,0.0525198115612938,0.28125,0.28125,0.375,0.25,-0.25,-0.125,2.875,2.875,0.0,2.0,-1.0,3.0,0,1,0,0,0.0525198115612938,0.5692801498668038,0.24520026083443328,0.3298887146739339,0.5540536308281153,0.2470782049942978,0.35247937194074397,0.46315617002470605,0.24864253219275156,0.3383276222380621,0.5714302889123501,0.24489771382589817,0.28762103051089793,0.5367457823450476,0.24864974747985036,0.31931946147044077,0.48092328198609957,0.24963607882981811,0.2968165739558746,0.5129130196643029,0.24983325392314934,0.34471239356527406,0.4924021681703652,0.24994227295148866,0.34826135853036844,0.47133645554708287,0.24917840121939566,0.3622500814574092,0.4231811040409133,0.24409885722362695,0.3698193536769615,0.5684831637399559,0.2453100562841664,0.35393308005497276
14.0,0.0,14.0,0.0,0.0,0.0,0.0,0.0,455.269621799991,458.774760100001,,right,0.7993481000012252,461.4397227999871,xs3,455.269621799991,458.774760100001,461.4397227999871,,True,4.0,['p'],False,0.4444444444444445,0.6666666666666666,0.3333333333333333,1.0,1.0,0.9656336071428248,0.0517531804924914,succ_gain,1.0,5.0,,,xs3,1,2023-03-31_15h28.58.026,threat_forest,2021.2.3,59.9660951699188,True,57.0,0.4583333333333333,0.40625,-1.34375,-1.1197916666666667,1,1,1.0,-0.2239587585037848,0.0517531804924914,0.4444444444444445,0.4444444444444445,0.6666666666666666,0.3333333333333333,0.0,0.0,4.0,4.0,0.0,1.0,-1.0,4.0,0,1,1,1,0.0517531804924914,0.5692801498668038,0.24520026083443328,0.3298887146739339,0.5540536308281153,0.2470782049942978,0.35247937194074397,0.46315617002470605,0.24864253219275156,0.3383276222380621,0.5714302889123501,0.24489771382589817,0.28762103051089793,0.5652411014860511,0.24574359867688675,0.32271545286623854,0.6167395850218818,0.23637186928891882,0.3625220245244647,0.51660150680554,0.24972438997178562,0.33201606842058595,0.5487327885772646,0.24762511531748368,0.3142488263992318,0.5602400577776435,0.24637113543894618,0.28310991240989125,0.5875281989190341,0.24233881439399002,0.3673314406736824,0.5670791053601782,0.24550039362407805,0.3542225847628838
14.0,0.0,14.0,0.0,1.0,0.0,1.0,0.0,,,,right,0.9525556999724358,466.7677274000016,xs3,455.269621799991,458.774760100001,466.7677274000016,,True,5.0,['p'],False,0.4444444444444445,0.6666666666666666,0.3333333333333333,1.0,1.0,0.9656336071428248,0.0736213037887426,figh_cost,1.0,2.0,464.2863103999989,,xs3,1,2023-03-31_15h28.58.026,threat_forest,2021.2.3,59.9660951699188,True,57.0,0.4583333333333333,0.40625,-1.34375,-1.1197916666666667,1,1,1.0,-0.0486066960296828,0.0736213037887426,0.4444444444444445,0.4444444444444445,0.6666666666666666,0.3333333333333333,0.0,0.0,5.0,5.0,0.0,1.0,1.0,5.0,0,1,1,1,0.0736213037887426,0.25453630999373694,0.18974757688850918,0.291977636011705,0.5540536308281153,0.2470782049942978,0.35247937194074397,0.46315617002470605,0.24864253219275156,0.3383276222380621,0.5714302889123501,0.24489771382589817,0.28762103051089793,0.5652411014860511,0.24574359867688675,0.32271545286623854,0.6167395850218818,0.23637186928891882,0.3625220245244647,0.51660150680554,0.24972438997178562,0.33201606842058595,0.5487327885772646,0.24762511531748368,0.3142488263992318,0.5602400577776435,0.24637113543894618,0.28310991240989125,0.5875281989190341,0.24233881439399002,0.3673314406736824,0.6066246411321042,0.23863118590344992,0.34377446157452834
14.0,0.0,14.0,0.0,2.0,0.0,2.0,0.0,,,,left,2.178189600002952,471.33270020000055,xs3,471.33270020000055,,467.7503122999915,469.7645494999888,True,2.0,['p'],True,0.1875,0.25,0.25,2.0,1.0,0.895754137500101,-0.0114500663971287,unsucc_cost,0.0,0.0,469.7645494999888,,xs3,1,2023-03-31_15h28.58.026,threat_forest,2021.2.3,59.9660951699188,True,57.0,0.4583333333333333,0.40625,-1.34375,-1.1197916666666667,0,0,1.0,0.7784940730648865,-0.0114500663971287,0.1875,0.1875,0.25,0.25,-1.0,-0.6875,1.3125,1.3125,1.0,1.0,-1.0,2.0,0,1,0,0,-0.0114500663971287,0.5692801498668038,0.24520026083443328,0.3298887146739339,0.5540536308281153,0.2470782049942978,0.35247937194074397,0.46315617002470605,0.24864253219275156,0.3383276222380621,0.46744664447631273,0.24894027904414848,0.35251993816673455,0.5367457823450476,0.24864974747985036,0.31931946147044077,0.4223953348902726,0.243977515953207,0.32484677222980984,0.5018407239484064,0.24999661173534574,0.363764098676004,0.460037369078966,0.24840298812986916,0.32566687739279754,0.47133645554708287,0.24917840121939566,0.3622500814574092,0.3338376092583329,0.22239005990301353,0.33913282819584867,0.44973460233338863,0.24747338979741748,0.3572235286719318
15.0,0.0,15.0,0.0,0.0,0.0,0.0,0.0,476.6849984999863,480.1881541000039,,right,1.3725690999999642,481.0565067999996,xs3,476.6849984999863,480.1881541000039,481.0565067999996,,True,5.0,['r'],False,0.4081632653061224,0.5714285714285714,0.2857142857142857,2.0,2.0,0.9885754083994552,-0.0170150236195817,succ_gain,1.0,6.0,,,xs3,1,2023-03-31_15h28.58.026,threat_forest,2021.2.3,59.9660951699188,True,64.0,0.5357142857142857,0.4970238095238095,-0.326530612244898,-0.8351403061224489,1,0,1.0,0.3166842392179897,-0.0170150236195817,0.4081632653061224,0.4081632653061224,0.5714285714285714,0.2857142857142857,0.4285714285714285,0.346938775510204,5.346938775510204,5.346938775510204,0.0,2.0,-1.0,5.0,0,1,0,1,-0.0170150236195817,0.5692801498668038,0.24520026083443328,0.3298887146739339,0.5540536308281153,0.2470782049942978,0.35247937194074397,0.46315617002470605,0.24864253219275156,0.3383276222380621,0.5714302889123501,0.24489771382589817,0.28762103051089793,0.5489985485451776,0.2475991422404659,0.3205471502762209,0.5733328963684263,0.2446222863102176,0.3216528444883924,0.5229201994587468,0.24947466445677124,0.30289167695922714,0.5362662026989338,0.24868476254179986,0.3298029193689147,0.5602400577776435,0.24637113543894618,0.28310991240989125,0.5513808294577983,0.24736001036422864,0.37442916496539524,0.4394795766946891,0.24633727836294597,0.3554954935468021
15.0,0.0,15.0,0.0,1.0,0.0,1.0,0.0,,,,right,1.20689339999808,485.4020941999916,xs3,485.4020941999916,,482.45300579999457,484.46744429998216,False,6.0,['r'],True,0.5,0.5,0.0,0.0,2.0,0.6309297535714574,-0.0173681026789934,wait_cost,0.0,5.0,484.46744429998216,,xs3,1,2023-03-31_15h28.58.026,threat_forest,2021.2.3,59.9660951699188,False,64.0,0.5357142857142857,0.4970238095238095,-0.326530612244898,-0.8351403061224489,1,1,0.0,0.1880496200693675,-0.0173681026789934,0.5,0.5,0.5,0.0,1.0,1.0,7.0,7.0,1.0,2.0,1.0,6.0,0,1,1,1,-0.0173681026789934,0.25453630999373694,0.18974757688850918,0.291977636011705,0.5540536308281153,0.2470782049942978,0.35247937194074397,0.46315617002470605,0.24864253219275156,0.3383276222380621,0.46744664447631273,0.24894027904414848,0.35251993816673455,0.4505650797864652,0.24755618866348145,0.3205973438443235,0.5399794981871311,0.24840163972470516,0.3029314786813193,0.5313333772838281,0.2490182194679893,0.24965849999252399,0.5676990886055124,0.24541683340198298,0.28183443278900633,0.5602400577776435,0.24637113543894618,0.28310991240989125,0.6409807622100928,0.2301244246866613,0.35006575914123383,0.4388305732811706,0.2462583012348897,0.35537536866536684
15.0,0.0,15.0,0.0,2.0,0.0,2.0,0.0,,,,left,0.8077352000109386,492.2604789999896,xs3,492.2604789999896,,482.45300579999457,484.46744429998216,True,5.0,['r'],True,0.5,0.5,0.0,0.0,2.0,0.6309297535714574,0.0975307235914345,unsucc_cost,0.0,3.0,488.6468767999904,,xs3,1,2023-03-31_15h28.58.026,threat_forest,2021.2.3,59.9660951699188,True,64.0,0.5357142857142857,0.4970238095238095,-0.326530612244898,-0.8351403061224489,1,1,1.0,-0.2135209969326199,0.0975307235914345,0.5,0.5,0.5,0.0,1.0,1.0,6.0,6.0,1.0,2.0,-1.0,5.0,0,1,1,1,0.0975307235914345,0.5692801498668038,0.24520026083443328,0.3298887146739339,0.5540536308281153,0.2470782049942978,0.35247937194074397,0.46315617002470605,0.24864253219275156,0.3383276222380621,0.46744664447631273,0.24894027904414848,0.35251993816673455,0.4505650797864652,0.24755618866348145,0.3205973438443235,0.5399794981871311,0.24840163972470516,0.3029314786813193,0.5313333772838281,0.2490182194679893,0.24965849999252399,0.5676990886055124,0.24541683340198298,0.28183443278900633,0.5602400577776435,0.24637113543894618,0.28310991240989125,0.6409807622100928,0.2301244246866613,0.35006575914123383,0.6483016698126174,0.22800661473078937,0.32761439873321174
15.0,0.0,15.0,0.0,3.0,0.0,3.0,0.0,,,,right,1.0795712000108324,497.1409636999888,xs3,493.09313379999367,495.1075539999874,497.1409636999888,,True,3.0,['r'],False,0.4081632653061224,0.5714285714285714,0.2857142857142857,2.0,2.0,0.9885754083994552,0.0196828699073915,succ_gain,1.0,5.0,495.1075539999874,,xs3,1,2023-03-31_15h28.58.026,threat_forest,2021.2.3,59.9660951699188,True,64.0,0.5357142857142857,0.4970238095238095,-0.326530612244898,-0.8351403061224489,1,0,1.0,0.0765639252690519,0.0196828699073915,0.4081632653061224,0.4081632653061224,0.5714285714285714,0.2857142857142857,0.4285714285714285,0.346938775510204,3.346938775510204,3.346938775510204,0.0,2.0,-1.0,3.0,0,1,0,1,0.0196828699073915,0.5692801498668038,0.24520026083443328,0.3298887146739339,0.5540536308281153,0.2470782049942978,0.35247937194074397,0.46315617002470605,0.24864253219275156,0.3383276222380621,0.5714302889123501,0.24489771382589817,0.28762103051089793,0.5489985485451776,0.2475991422404659,0.3205471502762209,0.5733328963684263,0.2446222863102176,0.3216528444883924,0.5229201994587468,0.24947466445677124,0.30289167695922714,0.5362662026989338,0.24868476254179986,0.3298029193689147,0.5602400577776435,0.24637113543894618,0.28310991240989125,0.5513808294577983,0.24736001036422864,0.37442916496539524,0.5076500383964252,0.2499414769125332,0.360977510101389
15.0,0.0,15.0,0.0,4.0,0.0,4.0,0.0,,,,right,1.218959400022868,503.8996472999861,xs3,503.8996472999861,,498.2383169999812,500.2526164999872,False,5.0,['r'],True,0.5,0.5,0.0,0.0,2.0,0.6309297535714574,-0.1814478342357351,wait_cost,0.0,4.0,500.2526164999872,,xs3,1,2023-03-31_15h28.58.026,threat_forest,2021.2.3,59.9660951699188,False,64.0,0.5357142857142857,0.4970238095238095,-0.326530612244898,-0.8351403061224489,1,1,0.0,0.1979975439747228,-0.1814478342357351,0.0,0.5,0.5,0.0,1.0,1.0,6.0,6.0,1.0,2.0,1.0,5.0,0,0,1,1,-0.84,0.25453630999373694,0.18974757688850918,0.291977636011705,0.11111183898080129,0.09876599821910578,-0.017199475763113287,0.46315617002470605,0.24864253219275156,0.3383276222380621,0.46744664447631273,0.24894027904414848,0.35251993816673455,0.4505650797864652,0.24755618866348145,0.3205973438443235,0.5399794981871311,0.24840163972470516,0.3029314786813193,0.5313333772838281,0.2490182194679893,0.24965849999252399,0.5676990886055124,0.24541683340198298,0.28183443278900633,0.5602400577776435,0.24637113543894618,0.28310991240989125,0.18951261944626185,0.15359758651687816,0.24189105306222905,0.1868758721997131,0.1519532805893096,0.21193663263376403
15.0,0.0,15.0,0.0,5.0,0.0,5.0,0.0,,,,left,2.096697699977085,510.7279052000085,xs3,505.14839600000414,507.1627671000024,510.7279052000085,,False,4.0,['r'],False,0.4081632653061224,0.5714285714285714,0.2857142857142857,2.0,2.0,0.9885754083994552,-0.3160662224073303,wait_cost,1.0,3.0,507.1627671000024,,xs3,1,2023-03-31_15h28.58.026,threat_forest,2021.2.3,59.9660951699188,False,64.0,0.5357142857142857,0.4970238095238095,-0.326530612244898,-0.8351403061224489,1,0,0.0,0.7403635831956327,-0.3160662224073303,0.0,0.4081632653061224,0.5714285714285714,0.2857142857142857,0.4285714285714285,0.346938775510204,4.346938775510204,4.346938775510204,0.0,2.0,-1.0,4.0,0,0,0,1,-0.84,0.5692801498668038,0.24520026083443328,0.3298887146739339,0.11111183898080129,0.09876599821910578,-0.017199475763113287,0.46315617002470605,0.24864253219275156,0.3383276222380621,0.5714302889123501,0.24489771382589817,0.28762103051089793,0.5489985485451776,0.2475991422404659,0.3205471502762209,0.5733328963684263,0.2446222863102176,0.3216528444883924,0.5229201994587468,0.24947466445677124,0.30289167695922714,0.5362662026989338,0.24868476254179986,0.3298029193689147,0.5602400577776435,0.24637113543894618,0.28310991240989125,0.18951261944626185,0.15359758651687816,0.24189105306222905,0.07762241858378643,0.0715971787169899,0.08971432033174703
15.0,0.0,15.0,0.0,6.0,0.0,6.0,0.0,,,,right,2.0560120999871287,516.3048431999923,xs3,516.3048431999923,,512.841227900004,514.855713099998,False,3.0,['r'],True,0.5,0.5,0.0,0.0,2.0,0.6309297535714574,-0.2729591836734694,wait_cost,0.0,2.0,514.855713099998,,xs3,1,2023-03-31_15h28.58.026,threat_forest,2021.2.3,59.9660951699188,False,64.0,0.5357142857142857,0.4970238095238095,-0.326530612244898,-0.8351403061224489,1,1,0.0,0.7207682327833483,-0.2729591836734694,0.0,0.5,0.5,0.0,1.0,1.0,4.0,4.0,1.0,2.0,-1.0,3.0,0,0,1,1,-0.84,0.5692801498668038,0.24520026083443328,0.3298887146739339,0.11111183898080129,0.09876599821910578,-0.017199475763113287,0.46315617002470605,0.24864253219275156,0.3383276222380621,0.46744664447631273,0.24894027904414848,0.35251993816673455,0.4505650797864652,0.24755618866348145,0.3205973438443235,0.5399794981871311,0.24840163972470516,0.3029314786813193,0.5313333772838281,0.2490182194679893,0.24965849999252399,0.5676990886055124,0.24541683340198298,0.28183443278900633,0.5602400577776435,0.24637113543894618,0.28310991240989125,0.18951261944626185,0.15359758651687816,0.24189105306222905,0.1040148790428603,0.09319578398055944,0.1225659820761967
15.0,0.0,15.0,0.0,7.0,0.0,7.0,0.0,,,,right,0.6884511999960523,522.4156235999835,xs3,522.4156235999835,,512.841227900004,514.855713099998,False,2.0,['r'],True,0.5,0.5,0.0,0.0,2.0,0.6309297535714574,-0.5,wait_cost,0.0,1.0,520.400453099981,,xs3,1,2023-03-31_15h28.58.026,threat_forest,2021.2.3,59.9660951699188,False,64.0,0.5357142857142857,0.4970238095238095,-0.326530612244898,-0.8351403061224489,1,1,0.0,-0.3733108420530361,-0.5,0.0,0.5,0.5,0.0,1.0,1.0,3.0,3.0,1.0,2.0,-1.0,2.0,0,0,1,1,-0.84,0.5692801498668038,0.24520026083443328,0.3298887146739339,0.11111183898080129,0.09876599821910578,-0.017199475763113287,0.46315617002470605,0.24864253219275156,0.3383276222380621,0.46744664447631273,0.24894027904414848,0.35251993816673455,0.4505650797864652,0.24755618866348145,0.3205973438443235,0.5399794981871311,0.24840163972470516,0.3029314786813193,0.5313333772838281,0.2490182194679893,0.24965849999252399,0.5676990886055124,0.24541683340198298,0.28183443278900633,0.5602400577776435,0.24637113543894618,0.28310991240989125,0.18951261944626185,0.15359758651687816,0.24189105306222905,0.020881294179511924,0.02044526573290061,0.01191182695643615
16.0,0.0,16.0,0.0,0.0,0.0,0.0,0.0,528.4060738999979,531.8998322999978,,left,1.461409499985166,533.1390265999944,xs3,528.4060738999979,531.8998322999978,533.1390265999944,,False,4.0,['r'],False,0.4285714285714285,0.4285714285714285,0.0,0.0,2.0,0.6216097450797565,0.0515952580137115,wait_cost,1.0,3.0,,,xs3,1,2023-03-31_15h28.58.026,threat_forest,2021.2.3,59.9660951699188,False,52.0,0.4365079365079364,0.486111111111111,-0.5626102292768962,-0.4445704207608971,1,0,0.0,0.3794013809595487,0.0515952580137115,0.4285714285714285,0.4285714285714285,0.4285714285714285,0.0,0.714285714285714,0.714285714285714,4.7142857142857135,4.7142857142857135,0.0,2.0,-1.0,4.0,0,1,0,1,0.0515952580137115,0.5692801498668038,0.24520026083443328,0.3298887146739339,0.5540536308281153,0.2470782049942978,0.35247937194074397,0.46315617002470605,0.24864253219275156,0.3383276222380621,0.5714302889123501,0.24489771382589817,0.28762103051089793,0.4505650797864652,0.24755618866348145,0.3205973438443235,0.5062641230187572,0.24996076076280585,0.2952082329060246,0.527128714253174,0.2492640328629696,0.27832663805378743,0.5432852469257602,0.24812638739857598,0.32160677758666356,0.5602400577776435,0.24637113543894618,0.28310991240989125,0.5718058881249649,0.24484391443058504,0.3708725311804658,0.5667897411492415,0.24553913047721734,0.3542815038449656
16.0,0.0,16.0,0.0,1.0,0.0,1.0,0.0,,,,left,0.9397070000122768,539.5859655999811,xs3,539.5859655999811,,534.6208771999809,536.6352642999846,True,3.0,['r'],True,0.345679012345679,0.4444444444444444,0.2222222222222222,2.0,2.0,0.9685033186841367,0.0688188688757238,unsucc_cost,0.0,1.0,536.6352642999846,,xs3,1,2023-03-31_15h28.58.026,threat_forest,2021.2.3,59.9660951699188,True,52.0,0.4365079365079364,0.486111111111111,-0.5626102292768962,-0.4445704207608971,0,0,1.0,-0.0621871544218879,0.0688188688757238,0.345679012345679,0.345679012345679,0.4444444444444444,0.2222222222222222,0.111111111111111,0.1604938271604937,3.1604938271604937,3.1604938271604937,1.0,2.0,-1.0,3.0,0,1,0,0,0.0688188688757238,0.5692801498668038,0.24520026083443328,0.3298887146739339,0.5540536308281153,0.2470782049942978,0.35247937194074397,0.46315617002470605,0.24864253219275156,0.3383276222380621,0.46744664447631273,0.24894027904414848,0.35251993816673455,0.5271843081183639,0.24926101339212584,0.318605164330351,0.5137722057708564,0.2498103263482052,0.2959534232591987,0.5182402778906725,0.24966729226247103,0.32535701302719033,0.5146981261713319,0.24978396508705158,0.345937627401006,0.47133645554708287,0.24917840121939566,0.3622500814574092,0.48805600859544906,0.24985734106932808,0.37795927311394906,0.5980400573748912,0.24038814714992804,0.34644681452802023
16.0,0.0,16.0,0.0,2.0,0.0,2.0,0.0,,,,right,2.014984200010076,545.9770120999892,xs3,545.9770120999892,,534.6208771999809,536.6352642999846,False,1.0,['r'],True,0.345679012345679,0.4444444444444444,0.2222222222222222,2.0,2.0,0.9685033186841367,0.1728580921228106,wait_cost,0.0,0.0,542.5630630999804,,xs3,1,2023-03-31_15h28.58.026,threat_forest,2021.2.3,59.9660951699188,False,52.0,0.4365079365079364,0.486111111111111,-0.5626102292768962,-0.4445704207608971,0,0,0.0,0.7006113541818376,0.1728580921228106,1.0,0.345679012345679,0.4444444444444444,0.2222222222222222,0.111111111111111,0.1604938271604937,1.1604938271604937,1.1604938271604937,1.0,2.0,-1.0,1.0,1,1,0,0,0.625,0.5692801498668038,0.24520026083443328,0.3298887146739339,0.5540536308281153,0.2470782049942978,0.35247937194074397,0.9210493308935233,0.07271746095411644,0.19595094502653665,0.46744664447631273,0.24894027904414848,0.35251993816673455,0.5271843081183639,0.24926101339212584,0.318605164330351,0.5137722057708564,0.2498103263482052,0.2959534232591987,0.5182402778906725,0.24966729226247103,0.32535701302719033,0.5146981261713319,0.24978396508705158,0.345937627401006,0.47133645554708287,0.24917840121939566,0.3622500814574092,0.9316570966741022,0.06367215089088488,0.1147767255855545,0.7638224851774654,0.18039769631478605,0.2552008301376645
17.0,0.0,17.0,0.0,0.0,0.0,0.0,0.0,550.7134116000088,554.2188296999957,,left,1.2342844999802765,556.8672232999816,xs3,556.8672232999816,,550.7134116000088,554.2188296999957,True,4.0,['p'],True,0.2448979591836734,0.2857142857142857,0.1428571428571428,1.0,2.0,0.8400769154957735,0.0036753268254111,unsucc_cost,0.0,2.0,,,xs3,1,2023-03-31_15h28.58.026,threat_forest,2021.2.3,59.9660951699188,True,42.0,0.3928571428571428,0.4146825396825396,-0.9566326530612244,-0.7596214411690603,0,0,1.0,0.2104914499478909,0.0036753268254111,0.2448979591836734,0.2448979591836734,0.2857142857142857,0.1428571428571428,-0.2857142857142856,-0.1632653061224489,3.836734693877551,3.836734693877551,1.0,2.0,-1.0,4.0,0,1,0,0,0.0036753268254111,0.5692801498668038,0.24520026083443328,0.3298887146739339,0.5540536308281153,0.2470782049942978,0.35247937194074397,0.46315617002470605,0.24864253219275156,0.3383276222380621,0.46744664447631273,0.24894027904414848,0.35251993816673455,0.49977967944701585,0.24999995145885395,0.31774167540160897,0.4389691346049914,0.24627523346913638,0.31346482261585296,0.5123859687158938,0.24984658777896893,0.34626746268408937,0.4798300229155653,0.24959317202441336,0.343137060414044,0.47133645554708287,0.24917840121939566,0.3622500814574092,0.3875740198668028,0.23736039899108996,0.36029418896137333,0.47779910412578497,0.2495071202223822,0.36031684989267876
17.0,0.0,17.0,0.0,1.0,0.0,1.0,0.0,,,,right,1.6033965999959037,561.2959869999904,xs3,561.2959869999904,,550.7134116000088,554.2188296999957,False,2.0,['p'],True,0.2448979591836734,0.2857142857142857,0.1428571428571428,1.0,2.0,0.8400769154957735,-0.0140542306037918,wait_cost,0.0,1.0,560.1466265000054,,xs3,1,2023-03-31_15h28.58.026,threat_forest,2021.2.3,59.9660951699188,False,42.0,0.3928571428571428,0.4146825396825396,-0.9566326530612244,-0.7596214411690603,0,0,0.0,0.4721242541279608,-0.0140542306037918,0.2448979591836734,0.2448979591836734,0.2857142857142857,0.1428571428571428,-0.2857142857142856,-0.1632653061224489,1.836734693877551,1.836734693877551,1.0,2.0,-1.0,2.0,0,1,0,0,-0.0140542306037918,0.5692801498668038,0.24520026083443328,0.3298887146739339,0.5540536308281153,0.2470782049942978,0.35247937194074397,0.46315617002470605,0.24864253219275156,0.3383276222380621,0.46744664447631273,0.24894027904414848,0.35251993816673455,0.49977967944701585,0.24999995145885395,0.31774167540160897,0.4389691346049914,0.24627523346913638,0.31346482261585296,0.5123859687158938,0.24984658777896893,0.34626746268408937,0.4798300229155653,0.24959317202441336,0.343137060414044,0.47133645554708287,0.24917840121939566,0.3622500814574092,0.3875740198668028,0.23736039899108996,0.36029418896137333,0.4449298219179503,0.24696727548601133,0.3564537245128464
17.0,0.0,17.0,0.0,2.0,0.0,2.0,0.0,,,,left,1.8205481999902984,567.073845899984,xs3,567.073845899984,,550.7134116000088,554.2188296999957,True,1.0,['p'],True,0.2448979591836734,0.2857142857142857,0.1428571428571428,1.0,2.0,0.8400769154957735,0.0944428399033169,figh_cost,0.0,0.0,564.9425038000045,,xs3,1,2023-03-31_15h28.58.026,threat_forest,2021.2.3,59.9660951699188,True,42.0,0.3928571428571428,0.4146825396825396,-0.9566326530612244,-0.7596214411690603,0,0,1.0,0.599137664520323,0.0944428399033169,1.0,0.2448979591836734,0.2857142857142857,0.1428571428571428,-0.2857142857142856,-0.1632653061224489,0.8367346938775511,1.0,1.0,2.0,-1.0,1.0,1,1,0,0,0.625,0.5692801498668038,0.24520026083443328,0.3298887146739339,0.5540536308281153,0.2470782049942978,0.35247937194074397,0.9210493308935233,0.07271746095411644,0.19595094502653665,0.46744664447631273,0.24894027904414848,0.35251993816673455,0.49977967944701585,0.24999995145885395,0.31774167540160897,0.4389691346049914,0.24627523346913638,0.31346482261585296,0.5123859687158938,0.24984658777896893,0.34626746268408937,0.4798300229155653,0.24959317202441336,0.343137060414044,0.47133645554708287,0.24917840121939566,0.3622500814574092,0.9316570966741022,0.06367215089088488,0.1147767255855545,0.6430294893517723,0.22954256517577123,0.3299505923836365
0.0,0.0,0.0,0.0,0.0,0.0,0.0,0.0,25.707862900017066,29.217594899993856,,right,1.4266306000063196,32.09441930000321,xs3,32.09441930000321,,25.707862900017066,29.217594899993856,False,5.0,['p'],True,0.3333333333333333,0.3333333333333333,0.0,0.0,1.0,0.5793801642856949,0.0363479425877699,wait_cost,0.0,4.0,,,xs3,2,2023-03-31_15h43.22.540,threat_forest,2021.2.3,59.91694313573705,False,43.0,0.4166666666666666,0.4047619047619047,-1.375,-1.1658163265306123,1,0,0.0,0.3553154402366396,0.0363479425877699,0.3333333333333333,0.3333333333333333,0.3333333333333333,0.0,-2.220446049250313e-16,-2.220446049250313e-16,5.0,5.0,1.0,1.0,-1.0,5.0,0,1,0,1,0.0363479425877699,0.5692801498668038,0.24520026083443328,0.3298887146739339,0.5540536308281153,0.2470782049942978,0.35247937194074397,0.46315617002470605,0.24864253219275156,0.3383276222380621,0.46744664447631273,0.24894027904414848,0.35251993816673455,0.4505650797864652,0.24755618866348145,0.3205973438443235,0.46127472574071243,0.24850035313354296,0.3024424929649183,0.5166015068055398,0.2497243899717856,0.3320160684205824,0.510427646778242,0.24989126418266824,0.34751262337182176,0.5602400577776435,0.24637113543894618,0.28310991240989125,0.4755251414151181,0.24940098129725,0.37731418460132415,0.5386662060508645,0.2485049245096321,0.3587925017157834
0.0,0.0,0.0,0.0,1.0,0.0,1.0,0.0,,,,left,1.5311212000087835,38.87793360001524,xs3,33.547232500015525,35.56166050001048,38.87793360001524,,False,4.0,['p'],False,0.25,0.5,0.5,2.0,1.0,0.9463946303571862,0.004766142417374,wait_cost,1.0,3.0,35.56166050001048,,xs3,2,2023-03-31_15h43.22.540,threat_forest,2021.2.3,59.91694313573705,False,43.0,0.4166666666666666,0.4047619047619047,-1.375,-1.1658163265306123,0,0,0.0,0.4260002774931175,0.004766142417374,0.25,0.25,0.5,0.5,-1.0,-0.75,3.25,3.25,0.0,1.0,-1.0,4.0,0,1,0,0,0.004766142417374,0.5692801498668038,0.24520026083443328,0.3298887146739339,0.5540536308281153,0.2470782049942978,0.35247937194074397,0.46315617002470605,0.24864253219275156,0.3383276222380621,0.5714302889123501,0.24489771382589817,0.28762103051089793,0.6207858341741499,0.23541078226285472,0.3347899053514751,0.5399794981871311,0.24840163972470516,0.3029314786813193,0.5018407239484064,0.24999661173534574,0.363764098676004,0.481593359640321,0.24966119559066943,0.3441355482592412,0.47133645554708287,0.24917840121939566,0.3622500814574092,0.3925088928761266,0.23844566188928398,0.361828265082095,0.4798306412612069,0.24959319696806592,0.3604477733527243
