miniblock.thisRepN,miniblock.thisTrialN,miniblock.thisN,miniblock.thisIndex,day.thisRepN,day.thisTrialN,day.thisN,day.thisIndex,forest.started,fixation_forest.started,fixation_forest.stopped,key_resp.keys,key_resp.rt,key_resp.started,Subject_ID,weather_left.started,weather_left.stopped,weather_right.started,weather_right.stopped,foraging T/F,in_LP,p/r heuristic,good_weather.T/F,p_succ_correct,p_succ_uncorrected,r_threat,n_oponents,gain_if_succ,weather_entropy,OP_value_difference,action_outcome,forest_side_L=0_R=1,out_LP,fixation_day.started,fixation_day.stopped,participant,session,date,expName,psychopyVersion,frameRate,foraging T/F NaNs,fora_NR,forest_mean_p,mvt_cutoff_p,forest_mean_ev,mvt_cutoff_ev,mvt_policy_eg,mvt_policy_p,fora_response,logRT,optimal policy,$\mathit{p}$ success cor + cap,$\mathit{p}$ success cor,$\mathit{p}$ success,risk threat encounter,expected gain naive,expected gain correct,expected state no bounds,expected state with bounds,weather type,gain magnitude,win stay lose shift,continuous energy state,binary energy state,$\mathit{p}$ success based MVT,expected gain based MVT,weather type fit,weather type_uncertain,weather type_uncertain_fit,risk threat encounter fit,risk threat encounter_uncertain,risk threat encounter_uncertain_fit,win stay lose shift fit,win stay lose shift_uncertain,win stay lose shift_uncertain_fit,$\mathit{p}$ success fit,$\mathit{p}$ success_uncertain,$\mathit{p}$ success_uncertain_fit,expected gain naive fit,expected gain naive_uncertain,expected gain naive_uncertain_fit,expected gain based MVT fit,expected gain based MVT_uncertain,expected gain based MVT_uncertain_fit,$\mathit{p}$ success cor fit,$\mathit{p}$ success cor_uncertain,$\mathit{p}$ success cor_uncertain_fit,binary energy state fit,binary energy state_uncertain,binary energy state_uncertain_fit,$\mathit{p}$ success cor + cap fit,$\mathit{p}$ success cor + cap_uncertain,$\mathit{p}$ success cor + cap_uncertain_fit,optimal policy fit,optimal policy_uncertain,optimal policy_uncertain_fit
0.0,0.0,0.0,0.0,0.0,0.0,0.0,0.0,25.68084250018001,29.189737300388515,None,left,1.5764535004273057,30.02876350004226,ti14,30.02876350004226,None,25.68084250018001,29.189737300388515,True,5.0,['r'],True,0.625,0.625,0.0,0.0,2.0,0.6021808102656677,0.0512514556375116,succ_gain,0.0,6.0,,,ti14,1,2022-05-05_11h29.17.852,threat_forest,2021.2.3,59.99196104394372,True,60.0,0.6458333333333333,0.6458333333333333,0.1759259259259258,0.1759259259259258,1,0,1,0.4551777041206628,0.0512514556375116,0.625,0.625,0.625,1.0,0.5,0.5,5.5,5.5,1.0,2.0,,5.0,0,0,1,0.4923051804478794,0.2499407897520603,-0.009484854710617996,0.5437950554040444,0.24808199312215667,-0.03837111109612401,,,,0.6946322069415487,0.2121183040210622,-0.0190445104928599,0.8156398651576479,0.15037147552326183,-0.04407086876117664,0.6446685768597562,0.22907100286937285,-0.03431204337836763,0.867059228945138,0.1152675224462009,-0.053209028825905794,0.5246360907029952,0.24939306303487382,-0.01109080414653249,0.8813048733135108,0.10460659358736747,-0.08069443948588483,0.6331500002386398,0.23227107743645026,-0.012464610112290164
0.0,0.0,0.0,0.0,1.0,0.0,1.0,0.0,,,,left,1.0233017997816205,35.85933759994805,ti14,35.85933759994805,None,25.68084250018001,29.189737300388515,True,6.0,['r'],True,0.625,0.625,0.0,0.0,2.0,0.6021808102656677,0.0055837052896026,succ_gain,0.0,6.0,33.63684380007908,None,ti14,1,2022-05-05_11h29.17.852,threat_forest,2021.2.3,59.99196104394372,True,60.0,0.6458333333333333,0.6458333333333333,0.1759259259259258,0.1759259259259258,1,0,1,0.0230344579105705,0.0055837052896026,0.625,0.625,0.625,1.0,0.5,0.5,6.5,6.0,1.0,2.0,1.0,6.0,0,0,1,0.4923051804478794,0.2499407897520603,-0.009484854710617996,0.5437950554040444,0.24808199312215667,-0.03837111109612401,0.551282483867748,0.24737010684835417,0.0328955528466679,0.6946322069415487,0.2121183040210622,-0.0190445104928599,0.8156398651576479,0.15037147552326183,-0.04407086876117664,0.6446685768597562,0.22907100286937285,-0.03431204337836763,0.867059228945138,0.1152675224462009,-0.053209028825905794,0.5246360907029952,0.24939306303487382,-0.01109080414653249,0.8813048733135108,0.10460659358736747,-0.08069443948588483,0.5712234726912155,0.24492721693780364,-0.004262166979360049
0.0,0.0,0.0,0.0,2.0,0.0,2.0,0.0,,,,right,1.8997348002158103,40.49963360000402,ti14,36.90398790035397,38.903662899974734,40.49963360000402,None,True,6.0,['r'],False,0.5185185185185185,0.6666666666666666,0.2222222222222222,2.0,2.0,0.9327883776363328,0.0086858794239948,succ_gain,1.0,6.0,38.903662899974734,None,ti14,1,2022-05-05_11h29.17.852,threat_forest,2021.2.3,59.99196104394372,True,60.0,0.6458333333333333,0.6458333333333333,0.1759259259259258,0.1759259259259258,0,0,1,0.6417142975965788,0.0086858794239948,0.5185185185185185,0.5185185185185185,0.6666666666666666,0.7777777777777778,-1.1102230246251563e-16,-0.1481481481481482,5.851851851851852,5.851851851851852,0.0,2.0,-1.0,6.0,0,0,0,0.6187839297299427,0.23589037803791207,-0.03532581195041157,0.5542802893987224,0.24705365018279096,-0.021004085965504515,0.5521885308183362,0.24727635725102357,-0.03792777595208463,0.7246137834411782,0.19954864828823946,-0.016925215184056583,0.7420475574313432,0.19141297994152065,-0.03302444323269227,0.4525116308136306,0.2477448547920191,-0.008290760257300966,0.7761215838822086,0.1737568709143804,-0.03607126177657912,0.5246360907029952,0.24939306303487382,-0.01109080414653249,0.803816318983718,0.15769564431918373,-0.04481270658866615,0.575525637409351,0.24429587809391118,-0.00467133764029376
0.0,0.0,0.0,0.0,3.0,0.0,3.0,0.0,,,,right,1.094325799960643,47.81424490036443,ti14,36.90398790035397,38.903662899974734,47.81424490036443,None,True,6.0,['r'],False,0.5185185185185185,0.6666666666666666,0.2222222222222222,2.0,2.0,0.9327883776363328,-0.1002277703157547,succ_gain,1.0,6.0,44.43705700011924,None,ti14,1,2022-05-05_11h29.17.852,threat_forest,2021.2.3,59.99196104394372,True,60.0,0.6458333333333333,0.6458333333333333,0.1759259259259258,0.1759259259259258,0,0,1,0.0901384658440779,-0.1002277703157547,0.0,0.5185185185185185,0.6666666666666666,0.7777777777777778,-1.1102230246251563e-16,-0.1481481481481482,5.851851851851852,5.851851851851852,0.0,2.0,-1.0,6.0,0,0,0,0.6187839297299427,0.23589037803791207,-0.03532581195041157,0.5542802893987224,0.24705365018279096,-0.021004085965504515,0.5521885308183362,0.24727635725102357,-0.03792777595208463,0.7246137834411782,0.19954864828823946,-0.016925215184056583,0.7420475574313432,0.19141297994152065,-0.03302444323269227,0.4525116308136306,0.2477448547920191,-0.008290760257300966,0.7761215838822086,0.1737568709143804,-0.03607126177657912,0.5246360907029952,0.24939306303487382,-0.01109080414653249,0.1847089963457085,0.15059158301466954,-0.04961418686944427,0.4223716354603736,0.24397383701890285,-0.004880052438668181
0.0,0.0,0.0,0.0,4.0,0.0,4.0,0.0,,,,right,1.0552936000749469,52.04324690019712,ti14,36.90398790035397,38.903662899974734,52.04324690019712,None,True,6.0,['r'],False,0.5185185185185185,0.6666666666666666,0.2222222222222222,2.0,2.0,0.9327883776363328,-0.0548708752476756,unsucc_cost,1.0,4.0,50.937207700219005,None,ti14,1,2022-05-05_11h29.17.852,threat_forest,2021.2.3,59.99196104394372,True,60.0,0.6458333333333333,0.6458333333333333,0.1759259259259258,0.1759259259259258,0,0,1,0.0538190221213648,-0.0548708752476756,0.0,0.5185185185185185,0.6666666666666666,0.7777777777777778,-1.1102230246251563e-16,-0.1481481481481482,5.851851851851852,5.851851851851852,0.0,2.0,-1.0,6.0,0,0,0,0.6187839297299427,0.23589037803791207,-0.03532581195041157,0.5542802893987224,0.24705365018279096,-0.021004085965504515,0.5521885308183362,0.24727635725102357,-0.03792777595208463,0.7246137834411782,0.19954864828823946,-0.016925215184056583,0.7420475574313432,0.19141297994152065,-0.03302444323269227,0.4525116308136306,0.2477448547920191,-0.008290760257300966,0.7761215838822086,0.1737568709143804,-0.03607126177657912,0.5246360907029952,0.24939306303487382,-0.01109080414653249,0.1847089963457085,0.15059158301466954,-0.04961418686944427,0.48602918672563655,0.24980481637645285,-0.0011009951215076863
0.0,0.0,0.0,0.0,5.0,0.0,5.0,0.0,,,,left,1.0335554997436702,56.87846560031176,ti14,56.87846560031176,None,53.12103200005368,55.12048610020429,True,4.0,['r'],True,0.625,0.625,0.0,0.0,2.0,0.6021808102656677,-0.1506076388888889,unsucc_cost,0.0,2.0,55.12048610020429,None,ti14,1,2022-05-05_11h29.17.852,threat_forest,2021.2.3,59.99196104394372,True,60.0,0.6458333333333333,0.6458333333333333,0.1759259259259258,0.1759259259259258,1,0,1,0.0330047994657953,-0.1506076388888889,0.0,0.625,0.625,1.0,0.5,0.5,4.5,4.5,1.0,2.0,-1.0,4.0,0,0,1,0.4923051804478794,0.2499407897520603,-0.009484854710617996,0.5437950554040444,0.24808199312215667,-0.03837111109612401,0.5521885308183362,0.24727635725102357,-0.03792777595208463,0.6946322069415487,0.2121183040210622,-0.0190445104928599,0.8156398651576479,0.15037147552326183,-0.04407086876117664,0.6446685768597562,0.22907100286937285,-0.03431204337836763,0.867059228945138,0.1152675224462009,-0.053209028825905794,0.5246360907029952,0.24939306303487382,-0.01109080414653249,0.1847089963457085,0.15059158301466954,-0.04961418686944427,0.3546480871694264,0.22887282143649335,-0.01466701959014119
0.0,0.0,0.0,0.0,6.0,0.0,6.0,0.0,,,,right,0.6332030999474227,61.8129559000954,ti14,57.94320420036093,59.95433880016208,61.8129559000954,None,True,2.0,['r'],False,0.5185185185185185,0.6666666666666666,0.2222222222222222,2.0,2.0,0.9327883776363328,-0.0532407407407407,succ_gain,1.0,4.0,59.95433880016208,None,ti14,1,2022-05-05_11h29.17.852,threat_forest,2021.2.3,59.99196104394372,True,60.0,0.6458333333333333,0.6458333333333333,0.1759259259259258,0.1759259259259258,0,0,1,-0.456964055302768,-0.0532407407407407,0.5185185185185185,0.5185185185185185,0.6666666666666666,0.7777777777777778,-1.1102230246251563e-16,-0.1481481481481482,1.851851851851852,1.851851851851852,0.0,2.0,-1.0,2.0,0,0,0,0.6187839297299427,0.23589037803791207,-0.03532581195041157,0.5542802893987224,0.24705365018279096,-0.021004085965504515,0.5521885308183362,0.24727635725102357,-0.03792777595208463,0.7246137834411782,0.19954864828823946,-0.016925215184056583,0.7420475574313432,0.19141297994152065,-0.03302444323269227,0.4525116308136306,0.2477448547920191,-0.008290760257300966,0.7761215838822086,0.1737568709143804,-0.03607126177657912,0.5246360907029952,0.24939306303487382,-0.01109080414653249,0.803816318983718,0.15769564431918373,-0.04481270658866615,0.4883381440505908,0.24986400111581522,-0.0010626374960323037
0.0,0.0,0.0,0.0,7.0,0.0,7.0,0.0,,,,right,1.47049369988963,65.89388660015538,ti14,65.89388660015538,None,62.47127630002797,64.4708525002934,False,4.0,['r'],True,0.625,0.625,0.0,0.0,2.0,0.6021808102656677,0.0,wait_cost,0.0,3.0,64.4708525002934,None,ti14,1,2022-05-05_11h29.17.852,threat_forest,2021.2.3,59.99196104394372,False,60.0,0.6458333333333333,0.6458333333333333,0.1759259259259258,0.1759259259259258,1,0,0,0.3855981946706234,0.0,0.0,0.625,0.625,1.0,0.5,0.5,4.5,4.5,1.0,2.0,1.0,4.0,0,0,1,0.4923051804478794,0.2499407897520603,-0.009484854710617996,0.5437950554040444,0.24808199312215667,-0.03837111109612401,0.551282483867748,0.24737010684835417,0.0328955528466679,0.6946322069415487,0.2121183040210622,-0.0190445104928599,0.8156398651576479,0.15037147552326183,-0.04407086876117664,0.6446685768597562,0.22907100286937285,-0.03431204337836763,0.867059228945138,0.1152675224462009,-0.053209028825905794,0.5246360907029952,0.24939306303487382,-0.01109080414653249,0.1847089963457085,0.15059158301466954,-0.04961418686944427,0.5634530944790684,0.24597370480103037,-0.003583938267792769
1.0,0.0,1.0,0.0,0.0,0.0,0.0,0.0,70.64038750017062,74.15430340031162,None,left,1.5412213001400232,75.97969070030376,ti14,70.64038750017062,74.15430340031162,75.97969070030376,None,False,4.0,['r'],False,0.4081632653061224,0.5714285714285714,0.2857142857142857,2.0,1.0,0.9885754083994552,0.0257810571799274,wait_cost,1.0,3.0,,,ti14,1,2022-05-05_11h29.17.852,threat_forest,2021.2.3,59.99196104394372,False,35.0,0.5357142857142857,0.5907738095238095,-0.7806122448979592,-0.3023431594860166,0,0,0,0.4325751541649053,0.0257810571799274,0.4081632653061224,0.4081632653061224,0.5714285714285714,0.7142857142857143,-1.1428571428571428,-1.0612244897959184,2.9387755102040813,2.9387755102040813,0.0,1.0,-1.0,4.0,0,0,0,0.6187839297299427,0.23589037803791207,-0.03532581195041157,0.5572676331726631,0.2467204181908013,-0.015376344326338831,0.5521885308183362,0.24727635725102357,-0.03792777595208463,0.6535469962023285,0.22642331995724205,-0.021456394621614368,0.5181836623945609,0.24966935442192068,-0.01734459154648213,0.4525116308136306,0.2477448547920191,-0.008290760257300966,0.6429558516726672,0.22956362447254236,-0.019719512829003083,0.5246360907029952,0.24939306303487382,-0.01109080414653249,0.6887248806049281,0.2143829194406556,-0.006499012210235605,0.5990124293626365,0.24019653883170888,-0.00732811913177514
1.0,0.0,1.0,0.0,1.0,0.0,1.0,0.0,,,,left,1.6979684997349975,80.67549009993672,ti14,80.67549009993672,None,77.53803870035335,79.5386331002228,True,3.0,['r'],True,0.5,0.5,0.0,0.0,1.0,0.6309297535714574,0.0991686602835485,unsucc_cost,0.0,1.0,79.5386331002228,None,ti14,1,2022-05-05_11h29.17.852,threat_forest,2021.2.3,59.99196104394372,True,35.0,0.5357142857142857,0.5907738095238095,-0.7806122448979592,-0.3023431594860166,0,0,1,0.5294325363242598,0.0991686602835485,0.5,0.5,0.5,1.0,-0.5,-0.5,2.5,2.5,1.0,1.0,-1.0,3.0,0,0,0,0.4923051804478794,0.2499407897520603,-0.009484854710617996,0.5437950554040444,0.24808199312215667,-0.03837111109612401,0.5521885308183362,0.24727635725102357,-0.03792777595208463,0.5950952250193806,0.24095689817851337,-0.023906815285406842,0.6516260492204307,0.22700954119780348,-0.023443538035349536,0.4525116308136306,0.2477448547920191,-0.008290760257300966,0.7564461825612244,0.18423535544977518,-0.03300099630601631,0.5246360907029952,0.24939306303487382,-0.01109080414653249,0.786997906953049,0.16763220140456891,-0.03809680411271395,0.6936877872048702,0.21248504108768093,-0.025287938897463086
1.0,0.0,1.0,0.0,2.0,0.0,2.0,0.0,,,,left,1.5856800000183284,87.40689490037039,ti14,87.40689490037039,None,77.53803870035335,79.5386331002228,True,1.0,['r'],True,0.5,0.5,0.0,0.0,1.0,0.6309297535714574,0.1232092107003671,unsucc_cost,0.0,0.0,84.40450170030817,None,ti14,1,2022-05-05_11h29.17.852,threat_forest,2021.2.3,59.99196104394372,True,35.0,0.5357142857142857,0.5907738095238095,-0.7806122448979592,-0.3023431594860166,0,0,1,0.4610133374191616,0.1232092107003671,1.0,0.5,0.5,1.0,-0.5,-0.5,0.5,0.5,1.0,1.0,-1.0,1.0,1,0,0,0.4923051804478794,0.2499407897520603,-0.009484854710617996,0.5437950554040444,0.24808199312215667,-0.03837111109612401,0.5521885308183362,0.24727635725102357,-0.03792777595208463,0.5950952250193806,0.24095689817851337,-0.023906815285406842,0.6516260492204307,0.22700954119780348,-0.023443538035349536,0.4525116308136306,0.2477448547920191,-0.008290760257300966,0.7564461825612244,0.18423535544977518,-0.03300099630601631,0.8709652402352304,0.11238479053721782,-0.14249003874327262,0.9836752059642927,0.01605829513539896,-0.14054230547254487,0.7218612969112067,0.2007775649328774,-0.03287555338129855
2.0,0.0,2.0,0.0,0.0,0.0,0.0,0.0,92.19641009997576,95.6976012000814,None,right,1.2529768999665976,96.51517150038852,ti14,96.51517150038852,None,92.19641009997576,95.69760120008141,False,4.0,['p'],True,0.2962962962962963,0.3333333333333333,0.1111111111111111,1.0,1.0,0.8325252476189534,0.0071317107376875,wait_cost,0.0,3.0,,,ti14,1,2022-05-05_11h29.17.852,threat_forest,2021.2.3,59.99196104394372,False,4.0,0.4666666666666667,0.5011904761904762,-0.9911111111111112,-0.8858616780045352,0,0,0,0.2255222399631422,0.0071317107376875,0.2962962962962963,0.2962962962962963,0.3333333333333333,0.8888888888888888,-1.3333333333333337,-1.2222222222222223,2.7777777777777777,2.7777777777777777,1.0,1.0,-1.0,4.0,0,0,0,0.4923051804478794,0.2499407897520603,-0.009484854710617996,0.5490431165802258,0.24759477271609837,-0.030142757779103135,0.5521885308183362,0.24727635725102357,-0.03792777595208463,0.45082814131814314,0.2475821283137715,-0.025023856153020316,0.4772128414900948,0.24948074540704446,-0.017395356143598203,0.4525116308136306,0.2477448547920191,-0.008290760257300966,0.4810727282624373,0.2496417583845725,-0.013836486418531802,0.5246360907029952,0.24939306303487382,-0.01109080414653249,0.5422911095568657,0.24821146205244912,0.016364962819762602,0.5733716693391362,0.24461659813838846,-0.004463479001714871
2.0,0.0,2.0,0.0,1.0,0.0,1.0,0.0,,,,right,0.9334936998784542,102.11560390004888,ti14,97.7886161999777,99.78833530005068,102.11560390004888,None,True,3.0,['p'],False,0.48,0.6,0.2,1.0,1.0,0.9455672104350704,0.0733394424822562,unsucc_cost,1.0,1.0,99.78833530005068,None,ti14,1,2022-05-05_11h29.17.852,threat_forest,2021.2.3,59.99196104394372,True,4.0,0.4666666666666667,0.5011904761904762,-0.9911111111111112,-0.8858616780045352,1,0,1,-0.0688210649481962,0.0733394424822562,0.48,0.48,0.6,0.8,-0.8000000000000002,-0.7600000000000002,2.24,2.24,0.0,1.0,-1.0,3.0,0,0,1,0.6187839297299427,0.23589037803791207,-0.03532581195041157,0.5532337805973153,0.24716616460331686,-0.02290426993529593,0.5521885308183362,0.24727635725102357,-0.03792777595208463,0.6757933835483234,0.21909668630063203,-0.020221094254777097,0.590958251241729,0.24172659653104653,-0.019482405078806955,0.6446685768597562,0.22907100286937285,-0.03431204337836763,0.733917035518828,0.19528282049408335,-0.029764015772407948,0.5246360907029952,0.24939306303487382,-0.01109080414653249,0.7676797974363999,0.17834752604440796,-0.030854549611386645,0.6617226529649908,0.2238457835179652,-0.01792504251643723
2.0,0.0,2.0,0.0,2.0,0.0,2.0,0.0,,,,right,0.7296815002337098,105.60767689999192,ti14,97.7886161999777,99.78833530005068,105.60767689999192,None,True,1.0,['p'],False,0.48,0.6,0.2,1.0,1.0,0.9455672104350704,0.0961925945942385,succ_gain,1.0,2.0,105.07153660012408,None,ti14,1,2022-05-05_11h29.17.852,threat_forest,2021.2.3,59.99196104394372,True,4.0,0.4666666666666667,0.5011904761904762,-0.9911111111111112,-0.8858616780045352,1,0,1,-0.3151471410964094,0.0961925945942385,1.0,0.48,0.6,0.8,-0.8000000000000002,-0.7600000000000002,0.2399999999999997,0.2399999999999997,0.0,1.0,-1.0,1.0,1,0,1,0.6187839297299427,0.23589037803791207,-0.03532581195041157,0.5532337805973153,0.24716616460331686,-0.02290426993529593,0.5521885308183362,0.24727635725102357,-0.03792777595208463,0.6757933835483234,0.21909668630063203,-0.020221094254777097,0.590958251241729,0.24172659653104653,-0.019482405078806955,0.6446685768597562,0.22907100286937285,-0.03431204337836763,0.733917035518828,0.19528282049408335,-0.029764015772407948,0.8709652402352304,0.11238479053721782,-0.14249003874327262,0.9836752059642927,0.01605829513539896,-0.14054230547254487,0.6900909497536848,0.2138654308217421,-0.024393308406569197
2.0,0.0,2.0,0.0,3.0,0.0,3.0,0.0,,,,right,1.2290012002922597,112.12532800016923,ti14,97.7886161999777,99.78833530005068,112.12532800016923,None,True,2.0,['p'],False,0.48,0.6,0.2,1.0,1.0,0.9455672104350704,0.0638323814540466,succ_gain,1.0,3.0,108.35489790001884,None,ti14,1,2022-05-05_11h29.17.852,threat_forest,2021.2.3,59.99196104394372,True,4.0,0.4666666666666667,0.5011904761904762,-0.9911111111111112,-0.8858616780045352,1,0,1,0.2062018072248038,0.0638323814540466,0.48,0.48,0.6,0.8,-0.8000000000000002,-0.7600000000000002,1.2399999999999998,1.2399999999999998,0.0,1.0,1.0,2.0,0,0,1,0.6187839297299427,0.23589037803791207,-0.03532581195041157,0.5532337805973153,0.24716616460331686,-0.02290426993529593,0.551282483867748,0.24737010684835417,0.0328955528466679,0.6757933835483234,0.21909668630063203,-0.020221094254777097,0.590958251241729,0.24172659653104653,-0.019482405078806955,0.6446685768597562,0.22907100286937285,-0.03431204337836763,0.733917035518828,0.19528282049408335,-0.029764015772407948,0.5246360907029952,0.24939306303487382,-0.01109080414653249,0.7676797974363999,0.17834752604440796,-0.030854549611386645,0.6495543485435065,0.22763349683172737,-0.015470225780523872
2.0,0.0,2.0,0.0,4.0,0.0,4.0,0.0,,,,right,1.2866412000730634,118.34752070019022,ti14,118.34752070019022,None,113.37217540014537,115.37158770021051,False,3.0,['p'],True,0.2962962962962963,0.3333333333333333,0.1111111111111111,1.0,1.0,0.8325252476189534,-0.0379347863638673,wait_cost,0.0,2.0,115.37158770021053,None,ti14,1,2022-05-05_11h29.17.852,threat_forest,2021.2.3,59.99196104394372,False,4.0,0.4666666666666667,0.5011904761904762,-0.9911111111111112,-0.8858616780045352,0,0,0,0.2520351019234229,-0.0379347863638673,0.2962962962962963,0.2962962962962963,0.3333333333333333,0.8888888888888888,-1.3333333333333337,-1.2222222222222223,1.7777777777777777,1.7777777777777777,1.0,1.0,1.0,3.0,0,0,0,0.4923051804478794,0.2499407897520603,-0.009484854710617996,0.5490431165802258,0.24759477271609837,-0.030142757779103135,0.551282483867748,0.24737010684835417,0.0328955528466679,0.45082814131814314,0.2475821283137715,-0.025023856153020316,0.4772128414900948,0.24948074540704446,-0.017395356143598203,0.4525116308136306,0.2477448547920191,-0.008290760257300966,0.4810727282624373,0.2496417583845725,-0.013836486418531802,0.5246360907029952,0.24939306303487382,-0.01109080414653249,0.5422911095568657,0.24821146205244912,0.016364962819762602,0.5100286564838976,0.249899426049128,-0.0010396785992095592
2.0,0.0,2.0,0.0,5.0,0.0,5.0,0.0,,,,right,1.128880700096488,122.44580370001496,ti14,119.6555034001358,121.65498120011762,122.44580370001496,None,True,2.0,['p'],False,0.48,0.6,0.2,1.0,1.0,0.9455672104350704,0.0918518518518518,unsucc_cost,1.0,0.0,121.65498120011762,None,ti14,1,2022-05-05_11h29.17.852,threat_forest,2021.2.3,59.99196104394372,True,4.0,0.4666666666666667,0.5011904761904762,-0.9911111111111112,-0.8858616780045352,1,0,1,0.1212266109362709,0.0918518518518518,0.48,0.48,0.6,0.8,-0.8000000000000002,-0.7600000000000002,1.2399999999999998,1.2399999999999998,0.0,1.0,-1.0,2.0,0,0,1,0.6187839297299427,0.23589037803791207,-0.03532581195041157,0.5532337805973153,0.24716616460331686,-0.02290426993529593,0.5521885308183362,0.24727635725102357,-0.03792777595208463,0.6757933835483234,0.21909668630063203,-0.020221094254777097,0.590958251241729,0.24172659653104653,-0.019482405078806955,0.6446685768597562,0.22907100286937285,-0.03431204337836763,0.733917035518828,0.19528282049408335,-0.029764015772407948,0.5246360907029952,0.24939306303487382,-0.01109080414653249,0.7676797974363999,0.17834752604440796,-0.030854549611386645,0.6848033605872459,0.21584771791566035,-0.023108588278502734
3.0,0.0,3.0,0.0,0.0,0.0,0.0,0.0,129.16729910019785,132.6720440001227,None,right,0.9028960997238756,136.0794083001092,ti14,129.16729910019785,132.6720440001227,136.0794083001092,None,True,4.0,['p'],False,0.4444444444444445,0.6666666666666666,0.3333333333333333,1.0,1.0,0.9656336071428248,0.0433478243421047,succ_gain,1.0,5.0,,,ti14,1,2022-05-05_11h29.17.852,threat_forest,2021.2.3,59.99196104394372,True,13.0,0.4761904761904761,0.4714285714285714,-1.2040816326530612,-1.0975963718820865,1,0,1,-0.1021477933990706,0.0433478243421047,0.4444444444444445,0.4444444444444445,0.6666666666666666,0.6666666666666667,-1.0,-1.0,3.0,3.0,0.0,1.0,-1.0,4.0,0,0,1,0.6187839297299427,0.23589037803791207,-0.03532581195041157,0.5595054374582059,0.24645910291290757,-0.01096315800058445,0.5521885308183362,0.24727635725102357,-0.03792777595208463,0.7246137834411782,0.19954864828823946,-0.016925215184056583,0.5487819941784332,0.2476203170439753,-0.01789609517972819,0.6446685768597562,0.22907100286937285,-0.03431204337836763,0.6907345482857356,0.21362033209023643,-0.024391003245688325,0.5246360907029952,0.24939306303487382,-0.01109080414653249,0.7304163810322636,0.19690829135199472,-0.018309732667887185,0.622681456206058,0.23494926030316113,-0.010728879982147832
3.0,0.0,3.0,0.0,1.0,0.0,1.0,0.0,,,,right,0.7030215999111533,141.9753295001574,ti14,129.16729910019785,132.6720440001227,141.9753295001574,None,True,5.0,['p'],False,0.4444444444444445,0.6666666666666666,0.3333333333333333,1.0,1.0,0.9656336071428248,0.0601653029098273,succ_gain,1.0,6.0,139.0055007999763,None,ti14,1,2022-05-05_11h29.17.852,threat_forest,2021.2.3,59.99196104394372,True,13.0,0.4761904761904761,0.4714285714285714,-1.2040816326530612,-1.0975963718820865,1,0,1,-0.3523676623075634,0.0601653029098273,0.4444444444444445,0.4444444444444445,0.6666666666666666,0.6666666666666667,-1.0,-1.0,4.0,4.0,0.0,1.0,1.0,5.0,0,0,1,0.6187839297299427,0.23589037803791207,-0.03532581195041157,0.5595054374582059,0.24645910291290757,-0.01096315800058445,0.551282483867748,0.24737010684835417,0.0328955528466679,0.7246137834411782,0.19954864828823946,-0.016925215184056583,0.5487819941784332,0.2476203170439753,-0.01789609517972819,0.6446685768597562,0.22907100286937285,-0.03431204337836763,0.6907345482857356,0.21362033209023643,-0.024391003245688325,0.5246360907029952,0.24939306303487382,-0.01109080414653249,0.7304163810322636,0.19690829135199472,-0.018309732667887185,0.6448072111382279,0.2290308716023687,-0.01456458728860055
3.0,0.0,3.0,0.0,2.0,0.0,2.0,0.0,,,,right,0.697492599952966,146.27555390028283,ti14,129.16729910019785,132.6720440001227,146.27555390028283,None,True,6.0,['p'],False,0.4444444444444445,0.6666666666666666,0.3333333333333333,1.0,1.0,0.9656336071428248,0.0618863686432212,unsucc_cost,1.0,4.0,144.70527550019324,None,ti14,1,2022-05-05_11h29.17.852,threat_forest,2021.2.3,59.99196104394372,True,13.0,0.4761904761904761,0.4714285714285714,-1.2040816326530612,-1.0975963718820865,1,0,1,-0.360263374729325,0.0618863686432212,0.4444444444444445,0.4444444444444445,0.6666666666666666,0.6666666666666667,-1.0,-1.0,5.0,5.0,0.0,1.0,1.0,6.0,0,0,1,0.6187839297299427,0.23589037803791207,-0.03532581195041157,0.5595054374582059,0.24645910291290757,-0.01096315800058445,0.551282483867748,0.24737010684835417,0.0328955528466679,0.7246137834411782,0.19954864828823946,-0.016925215184056583,0.5487819941784332,0.2476203170439753,-0.01789609517972819,0.6446685768597562,0.22907100286937285,-0.03431204337836763,0.6907345482857356,0.21362033209023643,-0.024391003245688325,0.5246360907029952,0.24939306303487382,-0.01109080414653249,0.7304163810322636,0.19690829135199472,-0.018309732667887185,0.6470387965376645,0.22837959231275534,-0.014986681351022796
3.0,0.0,3.0,0.0,3.0,0.0,3.0,0.0,,,,right,1.0095556997694075,151.87427810020745,ti14,129.16729910019785,132.6720440001227,151.87427810020745,None,True,4.0,['p'],False,0.4444444444444445,0.6666666666666666,0.3333333333333333,1.0,1.0,0.9656336071428248,0.0943966661251811,succ_gain,1.0,5.0,149.00532740028575,None,ti14,1,2022-05-05_11h29.17.852,threat_forest,2021.2.3,59.99196104394372,True,13.0,0.4761904761904761,0.4714285714285714,-1.2040816326530612,-1.0975963718820865,1,0,1,0.0095103328498337,0.0943966661251811,0.4444444444444445,0.4444444444444445,0.6666666666666666,0.6666666666666667,-1.0,-1.0,3.0,3.0,0.0,1.0,-1.0,4.0,0,0,1,0.6187839297299427,0.23589037803791207,-0.03532581195041157,0.5595054374582059,0.24645910291290757,-0.01096315800058445,0.5521885308183362,0.24727635725102357,-0.03792777595208463,0.7246137834411782,0.19954864828823946,-0.016925215184056583,0.5487819941784332,0.2476203170439753,-0.01789609517972819,0.6446685768597562,0.22907100286937285,-0.03431204337836763,0.6907345482857356,0.21362033209023643,-0.024391003245688325,0.5246360907029952,0.24939306303487382,-0.01109080414653249,0.7304163810322636,0.19690829135199472,-0.018309732667887185,0.6879091950478717,0.21469013441646093,-0.02385881806403775
3.0,0.0,3.0,0.0,4.0,0.0,4.0,0.0,,,,right,1.068516300059855,157.58652260014787,ti14,157.58652260014787,None,152.90585820004344,154.90561630018055,False,5.0,['p'],True,0.2448979591836734,0.2857142857142857,0.1428571428571428,1.0,1.0,0.8400769154957735,-0.3996674980788742,wait_cost,0.0,4.0,154.90561630018055,None,ti14,1,2022-05-05_11h29.17.852,threat_forest,2021.2.3,59.99196104394372,False,13.0,0.4761904761904761,0.4714285714285714,-1.2040816326530612,-1.0975963718820865,0,0,0,0.0662710507471418,-0.3996674980788742,0.0,0.2448979591836734,0.2857142857142857,0.8571428571428572,-1.5714285714285712,-1.4081632653061225,3.591836734693877,3.591836734693877,1.0,1.0,1.0,5.0,0,0,0,0.4923051804478794,0.2499407897520603,-0.009484854710617996,0.5505406126136776,0.24744564647663414,-0.027624260253357846,0.551282483867748,0.24737010684835417,0.0328955528466679,0.4100584568936725,0.2419105188236526,-0.0240675996221126,0.426490351055382,0.24459633151203897,-0.01871000859375227,0.4525116308136306,0.2477448547920191,-0.008290760257300966,0.40593182506790043,0.2411511784649439,-0.016324282651301397,0.5246360907029952,0.24939306303487382,-0.01109080414653249,0.1847089963457085,0.15059158301466954,-0.04961418686944427,0.1180845964049823,0.10414062449685474,-0.09550594777463375
3.0,0.0,3.0,0.0,5.0,0.0,5.0,0.0,,,,right,1.8206906002014875,163.70786660024896,ti14,163.70786660024896,None,152.90585820004344,154.90561630018055,False,4.0,['p'],True,0.2448979591836734,0.2857142857142857,0.1428571428571428,1.0,1.0,0.8400769154957735,-0.464297283539266,wait_cost,0.0,3.0,160.67230990016833,None,ti14,1,2022-05-05_11h29.17.852,threat_forest,2021.2.3,59.99196104394372,False,13.0,0.4761904761904761,0.4714285714285714,-1.2040816326530612,-1.0975963718820865,0,0,0,0.5992158797756665,-0.464297283539266,0.0,0.2448979591836734,0.2857142857142857,0.8571428571428572,-1.5714285714285712,-1.4081632653061225,2.591836734693877,2.591836734693877,1.0,1.0,-1.0,4.0,0,0,0,0.4923051804478794,0.2499407897520603,-0.009484854710617996,0.5505406126136776,0.24744564647663414,-0.027624260253357846,0.5521885308183362,0.24727635725102357,-0.03792777595208463,0.4100584568936725,0.2419105188236526,-0.0240675996221126,0.426490351055382,0.24459633151203897,-0.01871000859375227,0.4525116308136306,0.2477448547920191,-0.008290760257300966,0.40593182506790043,0.2411511784649439,-0.016324282651301397,0.5246360907029952,0.24939306303487382,-0.01109080414653249,0.1847089963457085,0.15059158301466954,-0.04961418686944427,0.08493504355670362,0.07772108193272449,-0.11262845147784686
3.0,0.0,3.0,0.0,6.0,0.0,6.0,0.0,,,,right,0.8875033003278077,168.14751660032198,ti14,165.5561970002018,167.55629280023277,168.14751660032198,None,True,3.0,['p'],False,0.4444444444444445,0.6666666666666666,0.3333333333333333,1.0,1.0,0.9656336071428248,-0.4789619551524313,unsucc_cost,1.0,1.0,167.55629280023277,None,ti14,1,2022-05-05_11h29.17.852,threat_forest,2021.2.3,59.99196104394372,True,13.0,0.4761904761904761,0.4714285714285714,-1.2040816326530612,-1.0975963718820865,1,0,1,-0.1193430389602605,-0.4789619551524313,0.0,0.4444444444444445,0.6666666666666666,0.6666666666666667,-1.0,-1.0,2.0,2.0,0.0,1.0,-1.0,3.0,0,0,1,0.6187839297299427,0.23589037803791207,-0.03532581195041157,0.5595054374582059,0.24645910291290757,-0.01096315800058445,0.5521885308183362,0.24727635725102357,-0.03792777595208463,0.7246137834411782,0.19954864828823946,-0.016925215184056583,0.5487819941784332,0.2476203170439753,-0.01789609517972819,0.6446685768597562,0.22907100286937285,-0.03431204337836763,0.6907345482857356,0.21362033209023643,-0.024391003245688325,0.5246360907029952,0.24939306303487382,-0.01109080414653249,0.1847089963457085,0.15059158301466954,-0.04961418686944427,0.07869232105922544,0.07249983966553723,-0.11601233822903785
3.0,0.0,3.0,0.0,7.0,0.0,7.0,0.0,,,,right,1.1994449002668262,173.02819250011817,ti14,173.02819250011817,None,169.0561279002577,171.05579830007628,False,1.0,['p'],True,0.2448979591836734,0.2857142857142857,0.1428571428571428,1.0,1.0,0.8400769154957735,0.2448979591836735,wait_cost,0.0,0.0,171.05579830007628,None,ti14,1,2022-05-05_11h29.17.852,threat_forest,2021.2.3,59.99196104394372,False,13.0,0.4761904761904761,0.4714285714285714,-1.2040816326530612,-1.0975963718820865,0,0,0,0.1818588666584027,0.2448979591836735,1.0,0.2448979591836734,0.2857142857142857,0.8571428571428572,-1.5714285714285712,-1.4081632653061225,-0.4081632653061224,0.0,1.0,1.0,-1.0,1.0,1,0,0,0.4923051804478794,0.2499407897520603,-0.009484854710617996,0.5505406126136776,0.24744564647663414,-0.027624260253357846,0.5521885308183362,0.24727635725102357,-0.03792777595208463,0.4100584568936725,0.2419105188236526,-0.0240675996221126,0.426490351055382,0.24459633151203897,-0.01871000859375227,0.4525116308136306,0.2477448547920191,-0.008290760257300966,0.40593182506790043,0.2411511784649439,-0.016324282651301397,0.8709652402352304,0.11238479053721782,-0.14249003874327262,0.9836752059642927,0.01605829513539896,-0.14054230547254487,0.8380266080035645,0.13573801228160443,-0.0750276829431
4.0,0.0,4.0,0.0,0.0,0.0,0.0,0.0,179.46696210000664,182.9729394000024,None,left,1.0135457003489137,184.13262790022412,ti14,184.13262790022412,None,179.46696210000664,182.97293940000236,True,4.0,['r'],True,0.6,0.6,0.0,0.0,2.0,0.6126016192893442,0.1103326303155006,unsucc_cost,0.0,2.0,,,ti14,1,2022-05-05_11h29.17.852,threat_forest,2021.2.3,59.99196104394372,True,47.0,0.6333333333333333,0.5547619047619048,-0.0777777777777778,-0.6409297052154195,1,1,1,0.0134547775054711,0.1103326303155006,0.6,0.6,0.6,1.0,0.3999999999999999,0.3999999999999999,4.4,4.4,1.0,2.0,-1.0,4.0,0,1,1,0.4923051804478794,0.2499407897520603,-0.009484854710617996,0.5437950554040444,0.24808199312215667,-0.03837111109612401,0.5521885308183362,0.24727635725102357,-0.03792777595208463,0.6757933835483234,0.21909668630063203,-0.020221094254777097,0.8023414269300291,0.15858966156191392,-0.04185892304081429,0.6446685768597562,0.22907100286937285,-0.03431204337836763,0.8490054117507632,0.12819522256868024,-0.04942112694317007,0.5246360907029952,0.24939306303487382,-0.01109080414653249,0.8659089850045121,0.11611061469296778,-0.07291912222432123,0.706969399497042,0.2071636676718339,-0.028736720639154834
4.0,0.0,4.0,0.0,1.0,0.0,1.0,0.0,,,,right,1.5382469999603927,188.0126650002785,ti14,185.1731305001304,187.17270060023293,188.0126650002785,None,True,2.0,['r'],False,0.4444444444444445,0.6666666666666666,0.3333333333333333,2.0,2.0,0.9656336071428248,-0.0246986785550983,figh_cost,1.0,0.0,187.17270060023293,None,ti14,1,2022-05-05_11h29.17.852,threat_forest,2021.2.3,59.99196104394372,True,47.0,0.6333333333333333,0.5547619047619048,-0.0777777777777778,-0.6409297052154195,1,0,1,0.4306434563426506,-0.0246986785550983,0.4444444444444445,0.4444444444444445,0.6666666666666666,0.6666666666666667,-0.3333333333333335,-0.5555555555555556,1.4444444444444444,1.4444444444444444,0.0,2.0,-1.0,2.0,0,0,1,0.6187839297299427,0.23589037803791207,-0.03532581195041157,0.5595054374582059,0.24645910291290757,-0.01096315800058445,0.5521885308183362,0.24727635725102357,-0.03792777595208463,0.7246137834411782,0.19954864828823946,-0.016925215184056583,0.6834507193842294,0.21634583355740872,-0.02631370212842661,0.6446685768597562,0.22907100286937285,-0.03431204337836763,0.6907345482857356,0.21362033209023643,-0.024391003245688325,0.5246360907029952,0.24939306303487382,-0.01109080414653249,0.7304163810322636,0.19690829135199472,-0.018309732667887185,0.5287584908567116,0.2491729492036445,-0.0015105081923751373
5.0,0.0,5.0,0.0,0.0,0.0,0.0,0.0,192.6511666001752,196.1568162003532,None,right,1.0476957000792029,197.31707570003343,ti14,192.6511666001752,196.1568162003532,197.31707570003343,None,True,4.0,['r'],False,0.25,0.5,0.5,2.0,1.0,0.9463946303571862,0.0015300455080301,succ_gain,1.0,5.0,,,ti14,1,2022-05-05_11h29.17.852,threat_forest,2021.2.3,59.99196104394372,True,43.0,0.4166666666666666,0.5249999999999999,-1.375,-0.726388888888889,0,0,1,0.0465931812156474,0.0015300455080301,0.25,0.25,0.5,0.5,-2.0,-1.75,2.25,2.25,0.0,1.0,-1.0,4.0,0,0,0,0.6187839297299427,0.23589037803791207,-0.03532581195041157,0.5673181535421693,0.24546826620367293,0.005770448436419606,0.5521885308183362,0.24727635725102357,-0.03792777595208463,0.5950952250193806,0.24095689817851337,-0.023906815285406842,0.339586651640865,0.2242675576682108,-0.024181549891623036,0.4525116308136306,0.2477448547920191,-0.008290760257300966,0.41325467634232055,0.24247524882352445,-0.01593632125394344,0.5246360907029952,0.24939306303487382,-0.01109080414653249,0.47778464586853225,0.2495064780408134,0.01724023591565671,0.5655855991956757,0.24569852917814416,-0.003762279569897664
5.0,0.0,5.0,0.0,1.0,0.0,1.0,0.0,,,,right,1.1922779995948076,203.81155040021983,ti14,192.6511666001752,196.1568162003532,203.81155040021983,None,True,5.0,['r'],False,0.25,0.5,0.5,2.0,1.0,0.9463946303571862,-0.0155667591487427,figh_cost,1.0,2.0,200.3894899003208,None,ti14,1,2022-05-05_11h29.17.852,threat_forest,2021.2.3,59.99196104394372,True,43.0,0.4166666666666666,0.5249999999999999,-1.375,-0.726388888888889,0,0,1,0.17586576258792,-0.0155667591487427,0.25,0.25,0.5,0.5,-2.0,-1.75,3.25,3.25,0.0,1.0,1.0,5.0,0,0,0,0.6187839297299427,0.23589037803791207,-0.03532581195041157,0.5673181535421693,0.24546826620367293,0.005770448436419606,0.551282483867748,0.24737010684835417,0.0328955528466679,0.5950952250193806,0.24095689817851337,-0.023906815285406842,0.339586651640865,0.2242675576682108,-0.024181549891623036,0.4525116308136306,0.2477448547920191,-0.008290760257300966,0.41325467634232055,0.24247524882352445,-0.01593632125394344,0.5246360907029952,0.24939306303487382,-0.01109080414653249,0.47778464586853225,0.2495064780408134,0.01724023591565671,0.5416367939904964,0.24826637738619298,-0.0020980573243808143
5.0,0.0,5.0,0.0,2.0,0.0,2.0,0.0,,,,left,1.0264448001980782,208.9956678999588,ti14,208.9956678999588,None,205.02329490007835,207.02337460033596,True,2.0,['r'],True,0.3333333333333333,0.3333333333333333,0.0,0.0,1.0,0.5793801642856949,0.0247486255787037,unsucc_cost,0.0,0.0,207.023374600336,None,ti14,1,2022-05-05_11h29.17.852,threat_forest,2021.2.3,59.99196104394372,True,43.0,0.4166666666666666,0.5249999999999999,-1.375,-0.726388888888889,0,0,1,0.0261011812604329,0.0247486255787037,0.3333333333333333,0.3333333333333333,0.3333333333333333,1.0,-1.0000000000000002,-1.0000000000000002,0.9999999999999998,0.9999999999999998,1.0,1.0,-1.0,2.0,0,0,0,0.4923051804478794,0.2499407897520603,-0.009484854710617996,0.5437950554040444,0.24808199312215667,-0.03837111109612401,0.5521885308183362,0.24727635725102357,-0.03792777595208463,0.45082814131814314,0.2475821283137715,-0.025023856153020316,0.5487819941784332,0.24762031704397533,-0.01789609517972819,0.4525116308136306,0.2477448547920191,-0.008290760257300966,0.5359578034247529,0.24870703637286687,-0.014110366167785701,0.5246360907029952,0.24939306303487382,-0.01109080414653249,0.5929951759844461,0.24135189724362194,0.011728732394305219,0.5976056783637278,0.24047313155115652,-0.007148859409487063
6.0,0.0,6.0,0.0,0.0,0.0,0.0,0.0,213.8014237000607,217.306266900152,None,right,0.8616450000554323,220.01405810005963,ti14,220.01405810005963,None,213.8014237000607,217.30626690015197,False,4.0,['r'],True,0.2222222222222222,0.6666666666666666,0.6666666666666666,2.0,2.0,0.77250688571426,-0.0834227138822206,wait_cost,0.0,3.0,,,ti14,1,2022-05-05_11h29.17.852,threat_forest,2021.2.3,59.99196104394372,False,49.0,0.5833333333333333,0.4999999999999999,-0.888888888888889,-1.1319444444444444,0,0,0,-0.1489119260272249,-0.0834227138822206,0.2222222222222222,0.2222222222222222,0.6666666666666666,0.3333333333333333,-1.3333333333333337,-1.777777777777778,2.2222222222222223,2.2222222222222223,1.0,2.0,-1.0,4.0,0,0,0,0.4923051804478794,0.2499407897520603,-0.009484854710617996,0.5750975335969868,0.24436036044764942,0.024481159008406195,0.5521885308183362,0.24727635725102357,-0.03792777595208463,0.7246137834411782,0.19954864828823946,-0.016925215184056583,0.4772128414900948,0.24948074540704446,-0.017395356143598203,0.4525116308136306,0.2477448547920191,-0.008290760257300966,0.37392949455162716,0.2341062276559918,-0.018388499966074043,0.5246360907029952,0.24939306303487382,-0.01109080414653249,0.4392974788159191,0.24631520392189626,0.015083323257428144,0.4457715950443874,0.24705928009597009,-0.002880376994443601
6.0,0.0,6.0,0.0,1.0,0.0,1.0,0.0,,,,right,1.4986091000027957,223.7763311001472,ti14,223.7763311001472,None,213.8014237000607,217.30626690015197,False,3.0,['r'],True,0.2222222222222222,0.6666666666666666,0.6666666666666666,2.0,2.0,0.77250688571426,-0.0836893670934308,wait_cost,0.0,2.0,222.92328520026052,None,ti14,1,2022-05-05_11h29.17.852,threat_forest,2021.2.3,59.99196104394372,False,49.0,0.5833333333333333,0.4999999999999999,-0.888888888888889,-1.1319444444444444,0,0,0,0.4045374112656808,-0.0836893670934308,0.2222222222222222,0.2222222222222222,0.6666666666666666,0.3333333333333333,-1.3333333333333337,-1.777777777777778,1.222222222222222,1.222222222222222,1.0,2.0,-1.0,3.0,0,0,0,0.4923051804478794,0.2499407897520603,-0.009484854710617996,0.5750975335969868,0.24436036044764942,0.024481159008406195,0.5521885308183362,0.24727635725102357,-0.03792777595208463,0.7246137834411782,0.19954864828823946,-0.016925215184056583,0.4772128414900948,0.24948074540704446,-0.017395356143598203,0.4525116308136306,0.2477448547920191,-0.008290760257300966,0.37392949455162716,0.2341062276559918,-0.018388499966074043,0.5246360907029952,0.24939306303487382,-0.01109080414653249,0.4392974788159191,0.24631520392189626,0.015083323257428144,0.44539812912567595,0.2470186356970236,-0.0029067186265815115
6.0,0.0,6.0,0.0,2.0,0.0,2.0,0.0,,,,right,0.912655099760741,230.5276754000224,ti14,225.3075958001428,227.30675690015778,230.5276754000224,None,True,2.0,['r'],False,0.5,0.5,0.0,0.0,2.0,0.6309297535714574,0.1170910493827159,unsucc_cost,1.0,0.0,227.30675690015772,None,ti14,1,2022-05-05_11h29.17.852,threat_forest,2021.2.3,59.99196104394372,True,49.0,0.5833333333333333,0.4999999999999999,-0.888888888888889,-1.1319444444444444,1,1,1,-0.091397235628614,0.1170910493827159,0.5,0.5,0.5,1.0,0.0,0.0,2.0,2.0,0.0,2.0,-1.0,2.0,0,1,1,0.6187839297299427,0.23589037803791207,-0.03532581195041157,0.5437950554040444,0.24808199312215667,-0.03837111109612401,0.5521885308183362,0.24727635725102357,-0.03792777595208463,0.5950952250193806,0.24095689817851337,-0.023906815285406842,0.7420475574313432,0.19141297994152065,-0.03302444323269227,0.6446685768597562,0.22907100286937285,-0.03431204337836763,0.7564461825612244,0.18423535544977518,-0.03300099630601631,0.5246360907029952,0.24939306303487382,-0.01109080414653249,0.786997906953049,0.16763220140456891,-0.03809680411271395,0.7148437395356634,0.20384216758233203,-0.03088938461676413
7.0,0.0,7.0,0.0,0.0,0.0,0.0,0.0,234.8681705002673,238.37370060011744,None,right,0.7369703003205359,240.8137427000329,ti14,234.8681705002673,238.37370060011744,240.8137427000329,None,True,5.0,['r'],False,0.3333333333333333,0.3333333333333333,0.0,0.0,2.0,0.5793801642856949,0.0388172421765338,unsucc_cost,1.0,3.0,,,ti14,1,2022-05-05_11h29.17.852,threat_forest,2021.2.3,59.99196104394372,True,40.0,0.3541666666666666,0.4687499999999999,-0.8958333333333335,-0.8923611111111112,1,0,1,-0.3052076856773325,0.0388172421765338,0.3333333333333333,0.3333333333333333,0.3333333333333333,1.0,-0.6666666666666669,-0.6666666666666669,4.333333333333333,4.333333333333333,0.0,2.0,-1.0,5.0,0,0,1,0.6187839297299427,0.23589037803791207,-0.03532581195041157,0.5437950554040444,0.24808199312215667,-0.03837111109612401,0.5521885308183362,0.24727635725102357,-0.03792777595208463,0.45082814131814314,0.2475821283137715,-0.025023856153020316,0.6183883381881993,0.23598420138103654,-0.021027985370729557,0.6446685768597562,0.22907100286937285,-0.03431204337836763,0.5359578034247529,0.24870703637286687,-0.014110366167785701,0.5246360907029952,0.24939306303487382,-0.01109080414653249,0.5929951759844461,0.24135189724362194,0.011728732394305219,0.6166278591755032,0.23639794246413895,-0.009789989174106395
7.0,0.0,7.0,0.0,1.0,0.0,1.0,0.0,,,,right,1.6987018999643624,245.7326567000709,ti14,245.7326567000709,None,241.5740622002632,243.5735088000074,False,3.0,['r'],True,0.28125,0.375,0.25,2.0,2.0,0.9634951148421658,0.0525198115612938,wait_cost,0.0,2.0,243.5735088000074,None,ti14,1,2022-05-05_11h29.17.852,threat_forest,2021.2.3,59.99196104394372,False,40.0,0.3541666666666666,0.4687499999999999,-0.8958333333333335,-0.8923611111111112,0,0,0,0.5298643711239077,0.0525198115612938,0.28125,0.28125,0.375,0.75,-1.25,-1.125,1.875,1.875,1.0,2.0,-1.0,3.0,0,0,0,0.4923051804478794,0.2499407897520603,-0.009484854710617996,0.5555877479001078,0.24691000228339408,-0.018578108615647793,0.5521885308183362,0.24727635725102357,-0.03792777595208463,0.4870712475455445,0.2498328473599714,-0.025403336579329062,0.4951323540834166,0.2499763060232308,-0.017261974740573505,0.4525116308136306,0.2477448547920191,-0.008290760257300966,0.4588310957017217,0.2483051213188792,-0.014228129944426252,0.5246360907029952,0.24939306303487382,-0.01109080414653249,0.5213770818093513,0.2495430203733163,0.017264934082156846,0.6348186202840915,0.23182393962469394,-0.012754400097073598
7.0,0.0,7.0,0.0,2.0,0.0,2.0,0.0,,,,left,1.7053112001158297,250.61432310007515,ti14,250.61432310007515,None,241.5740622002632,243.5735088000074,True,2.0,['r'],True,0.28125,0.375,0.25,2.0,2.0,0.9634951148421658,-0.0033863208912037,unsucc_cost,0.0,0.0,249.4568885001354,None,ti14,1,2022-05-05_11h29.17.852,threat_forest,2021.2.3,59.99196104394372,True,40.0,0.3541666666666666,0.4687499999999999,-0.8958333333333335,-0.8923611111111112,0,0,1,0.5337476161424254,-0.0033863208912037,0.28125,0.28125,0.375,0.75,-1.25,-1.125,0.875,0.875,1.0,2.0,-1.0,2.0,0,0,0,0.4923051804478794,0.2499407897520603,-0.009484854710617996,0.5555877479001078,0.24691000228339408,-0.018578108615647793,0.5521885308183362,0.24727635725102357,-0.03792777595208463,0.4870712475455445,0.2498328473599714,-0.025403336579329062,0.4951323540834166,0.2499763060232308,-0.017261974740573505,0.4525116308136306,0.2477448547920191,-0.008290760257300966,0.4588310957017217,0.2483051213188792,-0.014228129944426252,0.5246360907029952,0.24939306303487382,-0.01109080414653249,0.5213770818093513,0.2495430203733163,0.017264934082156846,0.5587251595659278,0.24655135563395636,-0.003209562803042354
8.0,0.0,8.0,0.0,0.0,0.0,0.0,0.0,255.310937799979,258.8093138001859,None,left,0.9720242000184952,260.7351906001568,ti14,260.7351906001568,None,255.310937799979,258.8093138001859,True,4.0,['p'],True,0.2,0.2,0.0,0.0,2.0,0.4554859150035951,-0.0032236882400512,succ_gain,0.0,6.0,,,ti14,1,2022-05-05_11h29.17.852,threat_forest,2021.2.3,59.99196104394372,True,45.0,0.35,0.3520833333333333,-0.975,-0.9354166666666668,0,0,1,-0.028374577693257,-0.0032236882400512,0.2,0.2,0.2,1.0,-1.2000000000000002,-1.2000000000000002,2.8,2.8,1.0,2.0,-1.0,4.0,0,0,0,0.4923051804478794,0.2499407897520603,-0.009484854710617996,0.5437950554040444,0.24808199312215667,-0.03837111109612401,0.5521885308183362,0.24727635725102357,-0.03792777595208463,0.34001193697360765,0.22440381968906312,-0.021115898625904427,0.5058930203724429,0.24996527231089002,-0.017264944492374826,0.4525116308136306,0.2477448547920191,-0.008290760257300966,0.34360029393546554,0.22553913194292724,-0.020898715833834333,0.5246360907029952,0.24939306303487382,-0.01109080414653249,0.40900294676682925,0.2417195363028795,0.011977211625804424,0.5589524757001999,0.24652460560881737,-0.0032268994924794236
8.0,0.0,8.0,0.0,1.0,0.0,1.0,0.0,,,,right,1.4493848998099566,265.1310649001971,ti14,261.72445270000026,263.72400910034776,265.1310649001971,None,True,6.0,['p'],False,0.375,0.5,0.25,1.0,2.0,0.9850568223215076,-0.0734960487365723,unsucc_cost,1.0,4.0,263.72400910034776,None,ti14,1,2022-05-05_11h29.17.852,threat_forest,2021.2.3,59.99196104394372,True,45.0,0.35,0.3520833333333333,-0.975,-0.9354166666666668,1,1,1,0.371139259403612,-0.0734960487365723,0.375,0.375,0.5,0.75,-0.75,-0.75,5.25,5.25,0.0,2.0,1.0,6.0,0,1,1,0.6187839297299427,0.23589037803791207,-0.03532581195041157,0.5555877479001078,0.24691000228339408,-0.018578108615647793,0.551282483867748,0.24737010684835417,0.0328955528466679,0.5950952250193806,0.24095689817851337,-0.023906815285406842,0.6013210479270134,0.2397340452469719,-0.02001870533590533,0.6446685768597562,0.22907100286937285,-0.03431204337836763,0.5966156615347427,0.24066541394620405,-0.01646661487727108,0.5246360907029952,0.24939306303487382,-0.01109080414653249,0.6477130698230522,0.22818084900345015,0.0028267078070206286,0.45971457823253054,0.24837708479301704,-0.002026307861697385
8.0,0.0,8.0,0.0,2.0,0.0,2.0,0.0,,,,right,1.570329399779439,270.7114069000818,ti14,261.72445270000026,263.72400910034776,270.7114069000818,None,True,4.0,['p'],False,0.375,0.5,0.25,1.0,2.0,0.9850568223215076,0.0911043701171874,unsucc_cost,1.0,2.0,268.6072041001171,None,ti14,1,2022-05-05_11h29.17.852,threat_forest,2021.2.3,59.99196104394372,True,45.0,0.35,0.3520833333333333,-0.975,-0.9354166666666668,1,1,1,0.4512854061301461,0.0911043701171874,0.375,0.375,0.5,0.75,-0.75,-0.75,3.25,3.25,0.0,2.0,-1.0,4.0,0,1,1,0.6187839297299427,0.23589037803791207,-0.03532581195041157,0.5555877479001078,0.24691000228339408,-0.018578108615647793,0.5521885308183362,0.24727635725102357,-0.03792777595208463,0.5950952250193806,0.24095689817851337,-0.023906815285406842,0.6013210479270134,0.2397340452469719,-0.02001870533590533,0.6446685768597562,0.22907100286937285,-0.03431204337836763,0.5966156615347427,0.24066541394620405,-0.01646661487727108,0.5246360907029952,0.24939306303487382,-0.01109080414653249,0.6477130698230522,0.22818084900345015,0.0028267078070206286,0.6838879280996558,0.21618522989921585,-0.022889846785372037
8.0,0.0,8.0,0.0,3.0,0.0,3.0,0.0,,,,right,1.5645924001000822,276.5589483999647,ti14,261.72445270000026,263.72400910034776,276.5589483999647,None,True,2.0,['p'],False,0.375,0.5,0.25,1.0,2.0,0.9850568223215076,0.0630507812499999,succ_gain,1.0,4.0,274.3072858001105,None,ti14,1,2022-05-05_11h29.17.852,threat_forest,2021.2.3,59.99196104394372,True,45.0,0.35,0.3520833333333333,-0.975,-0.9354166666666668,1,1,1,0.4476253428494543,0.0630507812499999,0.375,0.375,0.5,0.75,-0.75,-0.75,1.25,1.25,0.0,2.0,-1.0,2.0,0,1,1,0.6187839297299427,0.23589037803791207,-0.03532581195041157,0.5555877479001078,0.24691000228339408,-0.018578108615647793,0.5521885308183362,0.24727635725102357,-0.03792777595208463,0.5950952250193806,0.24095689817851337,-0.023906815285406842,0.6013210479270134,0.2397340452469719,-0.02001870533590533,0.6446685768597562,0.22907100286937285,-0.03431204337836763,0.5966156615347427,0.24066541394620405,-0.01646661487727108,0.5246360907029952,0.24939306303487382,-0.01109080414653249,0.6477130698230522,0.22818084900345015,0.0028267078070206286,0.6485449871261847,0.2279343867996816,-0.01527521901316406
8.0,0.0,8.0,0.0,4.0,0.0,4.0,0.0,,,,right,1.5698384996503592,280.7178438003175,ti14,280.7178438003175,None,278.1413968000561,280.1409035003744,False,4.0,['p'],True,0.2,0.2,0.0,0.0,2.0,0.4554859150035951,0.00859375,wait_cost,0.0,3.0,280.1409035003744,None,ti14,1,2022-05-05_11h29.17.852,threat_forest,2021.2.3,59.99196104394372,False,45.0,0.35,0.3520833333333333,-0.975,-0.9354166666666668,0,0,0,0.4509727476043597,0.00859375,0.2,0.2,0.2,1.0,-1.2000000000000002,-1.2000000000000002,2.8,2.8,1.0,2.0,1.0,4.0,0,0,0,0.4923051804478794,0.2499407897520603,-0.009484854710617996,0.5437950554040444,0.24808199312215667,-0.03837111109612401,0.551282483867748,0.24737010684835417,0.0328955528466679,0.34001193697360765,0.22440381968906312,-0.021115898625904427,0.5058930203724429,0.24996527231089002,-0.017264944492374826,0.4525116308136306,0.2477448547920191,-0.008290760257300966,0.34360029393546554,0.22553913194292724,-0.020898715833834333,0.5246360907029952,0.24939306303487382,-0.01109080414653249,0.40900294676682925,0.2417195363028795,0.011977211625804424,0.5753980316462388,0.2443151368238728,-0.004658856058741528
8.0,0.0,8.0,0.0,5.0,0.0,5.0,0.0,,,,right,1.2683898000977931,287.4288527001627,ti14,282.3081864002161,284.30753570003435,287.4288527001627,None,True,3.0,['p'],False,0.375,0.5,0.25,1.0,2.0,0.9850568223215076,0.1515624999999999,succ_gain,1.0,5.0,284.30753570003435,None,ti14,1,2022-05-05_11h29.17.852,threat_forest,2021.2.3,59.99196104394372,True,45.0,0.35,0.3520833333333333,-0.975,-0.9354166666666668,1,1,1,0.2377482220995744,0.1515624999999999,0.375,0.375,0.5,0.75,-0.75,-0.75,2.25,2.25,0.0,2.0,-1.0,3.0,0,1,1,0.6187839297299427,0.23589037803791207,-0.03532581195041157,0.5555877479001078,0.24691000228339408,-0.018578108615647793,0.5521885308183362,0.24727635725102357,-0.03792777595208463,0.5950952250193806,0.24095689817851337,-0.023906815285406842,0.6013210479270134,0.2397340452469719,-0.02001870533590533,0.6446685768597562,0.22907100286937285,-0.03431204337836763,0.5966156615347427,0.24066541394620405,-0.01646661487727108,0.5246360907029952,0.24939306303487382,-0.01109080414653249,0.6477130698230522,0.22818084900345015,0.0028267078070206286,0.7529596225879707,0.18601142934015139,-0.042445484834686756
8.0,0.0,8.0,0.0,6.0,0.0,6.0,0.0,,,,right,1.4822172997519374,294.1485033002682,ti14,294.1485033002682,None,288.72448820015416,290.7247562003322,False,5.0,['p'],True,0.2,0.2,0.0,0.0,2.0,0.4554859150035951,0.0,wait_cost,0.0,4.0,290.7247562003322,None,ti14,1,2022-05-05_11h29.17.852,threat_forest,2021.2.3,59.99196104394372,False,45.0,0.35,0.3520833333333333,-0.975,-0.9354166666666668,0,0,0,0.3935391421388049,0.0,0.0,0.2,0.2,1.0,-1.2000000000000002,-1.2000000000000002,3.8,3.8,1.0,2.0,1.0,5.0,0,0,0,0.4923051804478794,0.2499407897520603,-0.009484854710617996,0.5437950554040444,0.24808199312215667,-0.03837111109612401,0.551282483867748,0.24737010684835417,0.0328955528466679,0.34001193697360765,0.22440381968906312,-0.021115898625904427,0.5058930203724429,0.24996527231089002,-0.017264944492374826,0.4525116308136306,0.2477448547920191,-0.008290760257300966,0.34360029393546554,0.22553913194292724,-0.020898715833834333,0.5246360907029952,0.24939306303487382,-0.01109080414653249,0.1847089963457085,0.15059158301466954,-0.04961418686944427,0.5634530944790684,0.24597370480103037,-0.003583938267792769
8.0,0.0,8.0,0.0,7.0,0.0,7.0,0.0,,,,right,1.7399687999859452,299.2790151000954,ti14,295.6579158999957,297.6576408999972,299.2790151000954,None,True,4.0,['p'],False,0.375,0.5,0.25,1.0,2.0,0.9850568223215076,0.0,succ_gain,1.0,6.0,297.6576408999972,None,ti14,1,2022-05-05_11h29.17.852,threat_forest,2021.2.3,59.99196104394372,True,45.0,0.35,0.3520833333333333,-0.975,-0.9354166666666668,1,1,1,0.5538671820231144,0.0,0.0,0.375,0.5,0.75,-0.75,-0.75,3.25,3.25,0.0,2.0,-1.0,4.0,0,1,1,0.6187839297299427,0.23589037803791207,-0.03532581195041157,0.5555877479001078,0.24691000228339408,-0.018578108615647793,0.5521885308183362,0.24727635725102357,-0.03792777595208463,0.5950952250193806,0.24095689817851337,-0.023906815285406842,0.6013210479270134,0.2397340452469719,-0.02001870533590533,0.6446685768597562,0.22907100286937285,-0.03431204337836763,0.5966156615347427,0.24066541394620405,-0.01646661487727108,0.5246360907029952,0.24939306303487382,-0.01109080414653249,0.1847089963457085,0.15059158301466954,-0.04961418686944427,0.5634530944790684,0.24597370480103037,-0.003583938267792769
9.0,0.0,9.0,0.0,0.0,0.0,0.0,0.0,304.9060380002484,308.40767300035805,None,left,1.92389259999618,309.6839939001948,ti14,309.6839939001948,None,304.9060380002484,308.40767300035805,True,4.0,['r'],True,0.3333333333333333,0.3333333333333333,0.0,0.0,2.0,0.5793801642856949,0.0326749431231451,succ_gain,0.0,6.0,,,ti14,1,2022-05-05_11h29.17.852,threat_forest,2021.2.3,59.99196104394372,True,10.0,0.3541666666666666,0.3520833333333333,-0.8958333333333335,-0.9354166666666668,1,0,1,0.6543505294776463,0.0326749431231451,0.3333333333333333,0.3333333333333333,0.3333333333333333,1.0,-0.6666666666666669,-0.6666666666666669,3.333333333333333,3.333333333333333,1.0,2.0,1.0,4.0,0,0,1,0.4923051804478794,0.2499407897520603,-0.009484854710617996,0.5437950554040444,0.24808199312215667,-0.03837111109612401,0.551282483867748,0.24737010684835417,0.0328955528466679,0.45082814131814314,0.2475821283137715,-0.025023856153020316,0.6183883381881993,0.23598420138103654,-0.021027985370729557,0.6446685768597562,0.22907100286937285,-0.03431204337836763,0.5359578034247529,0.24870703637286687,-0.014110366167785701,0.5246360907029952,0.24939306303487382,-0.01109080414653249,0.5929951759844461,0.24135189724362194,0.011728732394305219,0.6083629768087963,0.2382574652571363,-0.008584832580951163
9.0,0.0,9.0,0.0,1.0,0.0,1.0,0.0,,,,left,0.8992210002616048,316.0008994000964,ti14,311.62499239994213,313.6244389000349,316.0008994000964,None,False,6.0,['r'],False,0.28125,0.375,0.25,2.0,2.0,0.9634951148421658,-0.1073108765070514,wait_cost,1.0,5.0,313.6244389000349,None,ti14,1,2022-05-05_11h29.17.852,threat_forest,2021.2.3,59.99196104394372,False,10.0,0.3541666666666666,0.3520833333333333,-0.8958333333333335,-0.9354166666666668,0,0,0,-0.1062264457319625,-0.1073108765070514,0.28125,0.28125,0.375,0.75,-1.25,-1.125,4.875,4.875,0.0,2.0,1.0,6.0,0,0,0,0.6187839297299427,0.23589037803791207,-0.03532581195041157,0.5555877479001078,0.24691000228339408,-0.018578108615647793,0.551282483867748,0.24737010684835417,0.0328955528466679,0.4870712475455445,0.2498328473599714,-0.025403336579329062,0.4951323540834166,0.2499763060232308,-0.017261974740573505,0.4525116308136306,0.2477448547920191,-0.008290760257300966,0.4588310957017217,0.2483051213188792,-0.014228129944426252,0.5246360907029952,0.24939306303487382,-0.01109080414653249,0.5213770818093513,0.2495430203733163,0.017264934082156846,0.41260610651025925,0.24236230738070386,-0.005924484685400688
9.0,0.0,9.0,0.0,2.0,0.0,2.0,0.0,,,,left,0.9117216998711228,320.1636085002683,ti14,320.1636085002683,None,316.9251149003394,318.9247524002567,True,5.0,['r'],True,0.3333333333333333,0.3333333333333333,0.0,0.0,2.0,0.5793801642856949,0.0799125393722283,unsucc_cost,0.0,3.0,318.9247524002567,None,ti14,1,2022-05-05_11h29.17.852,threat_forest,2021.2.3,59.99196104394372,True,10.0,0.3541666666666666,0.3520833333333333,-0.8958333333333335,-0.9354166666666668,1,0,1,-0.0924204891267393,0.0799125393722283,0.3333333333333333,0.3333333333333333,0.3333333333333333,1.0,-0.6666666666666669,-0.6666666666666669,4.333333333333333,4.333333333333333,1.0,2.0,-1.0,5.0,0,0,1,0.4923051804478794,0.2499407897520603,-0.009484854710617996,0.5437950554040444,0.24808199312215667,-0.03837111109612401,0.5521885308183362,0.24727635725102357,-0.03792777595208463,0.45082814131814314,0.2475821283137715,-0.025023856153020316,0.6183883381881993,0.23598420138103654,-0.021027985370729557,0.6446685768597562,0.22907100286937285,-0.03431204337836763,0.5359578034247529,0.24870703637286687,-0.014110366167785701,0.5246360907029952,0.24939306303487382,-0.01109080414653249,0.5929951759844461,0.24135189724362194,0.011728732394305219,0.6700134858540896,0.22109541462774132,-0.019707556403411153
9.0,0.0,9.0,0.0,3.0,0.0,3.0,0.0,,,,left,1.0723386998288331,325.2651860001497,ti14,321.0954483002424,323.10807189997286,325.2651860001497,None,False,3.0,['r'],False,0.28125,0.375,0.25,2.0,2.0,0.9634951148421658,0.0303292936748929,wait_cost,1.0,2.0,323.10807189997286,None,ti14,1,2022-05-05_11h29.17.852,threat_forest,2021.2.3,59.99196104394372,False,10.0,0.3541666666666666,0.3520833333333333,-0.8958333333333335,-0.9354166666666668,0,0,0,0.0698419640793654,0.0303292936748929,0.28125,0.28125,0.375,0.75,-1.25,-1.125,1.875,1.875,0.0,2.0,-1.0,3.0,0,0,0,0.6187839297299427,0.23589037803791207,-0.03532581195041157,0.5555877479001078,0.24691000228339408,-0.018578108615647793,0.5521885308183362,0.24727635725102357,-0.03792777595208463,0.4870712475455445,0.2498328473599714,-0.025403336579329062,0.4951323540834166,0.2499763060232308,-0.017261974740573505,0.4525116308136306,0.2477448547920191,-0.008290760257300966,0.4588310957017217,0.2483051213188792,-0.014228129944426252,0.5246360907029952,0.24939306303487382,-0.01109080414653249,0.5213770818093513,0.2495430203733163,0.017264934082156846,0.6051899906058457,0.2389350658763421,-0.008145679666645866
9.0,0.0,9.0,0.0,4.0,0.0,4.0,0.0,,,,left,0.9610663997009397,331.1625900003128,ti14,331.1625900003128,None,326.358668200206,328.3580567999743,True,2.0,['r'],True,0.3333333333333333,0.3333333333333333,0.0,0.0,2.0,0.5793801642856949,0.0260416666666666,unsucc_cost,0.0,0.0,328.3580567999743,None,ti14,1,2022-05-05_11h29.17.852,threat_forest,2021.2.3,59.99196104394372,True,10.0,0.3541666666666666,0.3520833333333333,-0.8958333333333335,-0.9354166666666668,1,0,1,-0.0397117780169203,0.0260416666666666,0.3333333333333333,0.3333333333333333,0.3333333333333333,1.0,-0.6666666666666669,-0.6666666666666669,1.333333333333333,1.333333333333333,1.0,2.0,-1.0,2.0,0,0,1,0.4923051804478794,0.2499407897520603,-0.009484854710617996,0.5437950554040444,0.24808199312215667,-0.03837111109612401,0.5521885308183362,0.24727635725102357,-0.03792777595208463,0.45082814131814314,0.2475821283137715,-0.025023856153020316,0.6183883381881993,0.23598420138103654,-0.021027985370729557,0.6446685768597562,0.22907100286937285,-0.03431204337836763,0.5359578034247529,0.24870703637286687,-0.014110366167785701,0.5246360907029952,0.24939306303487382,-0.01109080414653249,0.5929951759844461,0.24135189724362194,0.011728732394305219,0.599367268920228,0.2401261458673351,-0.00737374080710293
10.0,0.0,10.0,0.0,0.0,0.0,0.0,0.0,336.37017270037904,339.8750764001161,None,right,1.189521700143814,340.6705212001689,ti14,336.37017270037904,339.8750764001161,340.6705212001689,None,True,5.0,['p'],False,0.2448979591836734,0.2857142857142857,0.1428571428571428,1.0,2.0,0.8400769154957735,-0.0142294939424326,unsucc_cost,1.0,3.0,,,ti14,1,2022-05-05_11h29.17.852,threat_forest,2021.2.3,59.99196104394372,True,42.0,0.3928571428571428,0.3735119047619047,-0.9566326530612244,-0.926232993197279,0,0,1,0.1735512936746019,-0.0142294939424326,0.2448979591836734,0.2448979591836734,0.2857142857142857,0.8571428571428572,-1.2857142857142856,-1.163265306122449,3.836734693877551,3.836734693877551,0.0,2.0,-1.0,5.0,0,0,0,0.6187839297299427,0.23589037803791207,-0.03532581195041157,0.5505406126136776,0.24744564647663414,-0.027624260253357846,0.5521885308183362,0.24727635725102357,-0.03792777595208463,0.4100584568936725,0.2419105188236526,-0.0240675996221126,0.4874483429030344,0.2498424559041202,-0.017298000841314498,0.4525116308136306,0.2477448547920191,-0.008290760257300966,0.40593182506790043,0.2411511784649439,-0.016324282651301397,0.5246360907029952,0.24939306303487382,-0.01109080414653249,0.4706820289567145,0.24914045657390513,0.01699284997958872,0.5435184272089711,0.24810614649325746,-0.0022019029549778524
10.0,0.0,10.0,0.0,1.0,0.0,1.0,0.0,,,,left,1.726013499777764,346.46415190026164,ti14,346.46415190026164,None,341.8922280999832,343.89173889998347,True,3.0,['p'],True,0.375,0.5,0.25,1.0,2.0,0.9850568223215076,0.078614571109881,unsucc_cost,0.0,1.0,343.89173889998347,None,ti14,1,2022-05-05_11h29.17.852,threat_forest,2021.2.3,59.99196104394372,True,42.0,0.3928571428571428,0.3735119047619047,-0.9566326530612244,-0.926232993197279,1,1,1,0.5458144140546143,0.078614571109881,0.375,0.375,0.5,0.75,-0.75,-0.75,2.25,2.25,1.0,2.0,-1.0,3.0,0,1,1,0.4923051804478794,0.2499407897520603,-0.009484854710617996,0.5555877479001078,0.24691000228339408,-0.018578108615647793,0.5521885308183362,0.24727635725102357,-0.03792777595208463,0.5950952250193806,0.24095689817851337,-0.023906815285406842,0.6013210479270134,0.2397340452469719,-0.02001870533590533,0.6446685768597562,0.22907100286937285,-0.03431204337836763,0.5966156615347427,0.24066541394620405,-0.01646661487727108,0.5246360907029952,0.24939306303487382,-0.01109080414653249,0.6477130698230522,0.22818084900345015,0.0028267078070206286,0.668384474180896,0.22164666885482318,-0.019350288577077324
10.0,0.0,10.0,0.0,2.0,0.0,2.0,0.0,,,,right,1.945598800200969,352.2500820001587,ti14,348.2091066003777,350.20860240003094,352.2500820001587,None,True,1.0,['p'],False,0.2448979591836734,0.2857142857142857,0.1428571428571428,1.0,2.0,0.8400769154957735,0.0944428399033169,succ_gain,1.0,3.0,350.20860240003094,None,ti14,1,2022-05-05_11h29.17.852,threat_forest,2021.2.3,59.99196104394372,True,42.0,0.3928571428571428,0.3735119047619047,-0.9566326530612244,-0.926232993197279,0,0,1,0.665569796116499,0.0944428399033169,1.0,0.2448979591836734,0.2857142857142857,0.8571428571428572,-1.2857142857142856,-1.163265306122449,-0.1632653061224489,0.0,0.0,2.0,-1.0,1.0,1,0,0,0.6187839297299427,0.23589037803791207,-0.03532581195041157,0.5505406126136776,0.24744564647663414,-0.027624260253357846,0.5521885308183362,0.24727635725102357,-0.03792777595208463,0.4100584568936725,0.2419105188236526,-0.0240675996221126,0.4874483429030344,0.2498424559041202,-0.017298000841314498,0.4525116308136306,0.2477448547920191,-0.008290760257300966,0.40593182506790043,0.2411511784649439,-0.016324282651301397,0.8709652402352304,0.11238479053721782,-0.14249003874327262,0.9836752059642927,0.01605829513539896,-0.14054230547254487,0.6879653935584408,0.21466901082442053,-0.023872508262573866
10.0,0.0,10.0,0.0,3.0,0.0,3.0,0.0,,,,left,1.93016770016402,357.4282103003934,ti14,348.2091066003777,350.20860240003094,357.4282103003934,None,False,3.0,['p'],False,0.2448979591836734,0.2857142857142857,0.1428571428571428,1.0,2.0,0.8400769154957735,-0.0097255873504729,wait_cost,1.0,2.0,356.2251242999919,None,ti14,1,2022-05-05_11h29.17.852,threat_forest,2021.2.3,59.99196104394372,False,42.0,0.3928571428571428,0.3735119047619047,-0.9566326530612244,-0.926232993197279,0,0,0,0.6576068904186602,-0.0097255873504729,0.2448979591836734,0.2448979591836734,0.2857142857142857,0.8571428571428572,-1.2857142857142856,-1.163265306122449,1.836734693877551,1.836734693877551,0.0,2.0,1.0,3.0,0,0,0,0.6187839297299427,0.23589037803791207,-0.03532581195041157,0.5505406126136776,0.24744564647663414,-0.027624260253357846,0.551282483867748,0.24737010684835417,0.0328955528466679,0.4100584568936725,0.2419105188236526,-0.0240675996221126,0.4874483429030344,0.2498424559041202,-0.017298000841314498,0.4525116308136306,0.2477448547920191,-0.008290760257300966,0.40593182506790043,0.2411511784649439,-0.016324282651301397,0.5246360907029952,0.24939306303487382,-0.01109080414653249,0.4706820289567145,0.24914045657390513,0.01699284997958872,0.549846328111302,0.2475153435738204,-0.0025848022860837927
10.0,0.0,10.0,0.0,4.0,0.0,4.0,0.0,,,,right,1.1323231998831034,362.4107914003544,ti14,348.2091066003777,350.20860240003094,362.4107914003544,None,True,2.0,['p'],False,0.2448979591836734,0.2857142857142857,0.1428571428571428,1.0,2.0,0.8400769154957735,-0.0650510204081632,unsucc_cost,1.0,0.0,361.3754094000906,None,ti14,1,2022-05-05_11h29.17.852,threat_forest,2021.2.3,59.99196104394372,True,42.0,0.3928571428571428,0.3735119047619047,-0.9566326530612244,-0.926232993197279,0,0,1,0.1242714512943466,-0.0650510204081632,0.2448979591836734,0.2448979591836734,0.2857142857142857,0.8571428571428572,-1.2857142857142856,-1.163265306122449,0.8367346938775511,0.8367346938775511,0.0,2.0,-1.0,2.0,0,0,0,0.6187839297299427,0.23589037803791207,-0.03532581195041157,0.5505406126136776,0.24744564647663414,-0.027624260253357846,0.5521885308183362,0.24727635725102357,-0.03792777595208463,0.4100584568936725,0.2419105188236526,-0.0240675996221126,0.4874483429030344,0.2498424559041202,-0.017298000841314498,0.4525116308136306,0.2477448547920191,-0.008290760257300966,0.40593182506790043,0.2411511784649439,-0.016324282651301397,0.5246360907029952,0.24939306303487382,-0.01109080414653249,0.4706820289567145,0.24914045657390513,0.01699284997958872,0.47162718133382403,0.24919498316093636,-0.0014962279861826522
11.0,0.0,11.0,0.0,0.0,0.0,0.0,0.0,368.7543422002345,372.2590920999646,None,left,1.1084493002854288,373.70384080009535,ti14,368.7543422002345,372.2590920999646,373.70384080009535,None,False,4.0,['p'],False,0.27,0.3,0.1,1.0,1.0,0.7963326591781347,0.00800026338778,wait_cost,1.0,3.0,,,ti14,1,2022-05-05_11h29.17.852,threat_forest,2021.2.3,59.99196104394372,False,6.0,0.4833333333333333,0.4380952380952381,-1.145,-1.0508163265306123,0,0,0,0.102962011802656,0.00800026338778,0.27,0.27,0.3,0.9,-1.4,-1.29,2.71,2.71,0.0,1.0,-1.0,4.0,0,0,0,0.6187839297299427,0.23589037803791207,-0.03532581195041157,0.5485187816015175,0.24764592783190423,-0.03100668375919291,0.5521885308183362,0.24727635725102357,-0.03792777595208463,0.42218645538851624,0.2439450522749966,-0.02441063027392095,0.462917138775428,0.24862486140339912,-0.017625719504817575,0.4525116308136306,0.2477448547920191,-0.008290760257300966,0.4423028633209426,0.24667104041903823,-0.01470692648661144,0.5246360907029952,0.24939306303487382,-0.01109080414653249,0.5056866360857808,0.24996766217002794,0.01755194022215309,0.5745757705278858,0.24443845445017212,-0.00457893391369088
11.0,0.0,11.0,0.0,1.0,0.0,1.0,0.0,,,,right,0.7186598000116646,377.3799842000008,ti14,368.7543422002345,372.2590920999646,377.3799842000008,None,True,3.0,['p'],False,0.27,0.3,0.1,1.0,1.0,0.7963326591781347,0.0245610646182661,unsucc_cost,1.0,1.0,376.8588601001538,None,ti14,1,2022-05-05_11h29.17.852,threat_forest,2021.2.3,59.99196104394372,True,6.0,0.4833333333333333,0.4380952380952381,-1.145,-1.0508163265306123,0,0,1,-0.3303671903817579,0.0245610646182661,0.27,0.27,0.3,0.9,-1.4,-1.29,1.71,1.71,0.0,1.0,-1.0,3.0,0,0,0,0.6187839297299427,0.23589037803791207,-0.03532581195041157,0.5485187816015175,0.24764592783190423,-0.03100668375919291,0.5521885308183362,0.24727635725102357,-0.03792777595208463,0.42218645538851624,0.2439450522749966,-0.02441063027392095,0.462917138775428,0.24862486140339912,-0.017625719504817575,0.4525116308136306,0.2477448547920191,-0.008290760257300966,0.4423028633209426,0.24667104041903823,-0.01470692648661144,0.5246360907029952,0.24939306303487382,-0.01109080414653249,0.5056866360857808,0.24996766217002794,0.01755194022215309,0.5973499418650606,0.2405229888188693,-0.007116546917740774
11.0,0.0,11.0,0.0,2.0,0.0,2.0,0.0,,,,right,1.3152426001615822,382.3301449003629,ti14,368.7543422002345,372.2590920999646,382.3301449003629,None,True,1.0,['p'],False,0.27,0.3,0.1,1.0,1.0,0.7963326591781347,0.0456430979938271,unsucc_cost,1.0,0.0,380.1255574002862,None,ti14,1,2022-05-05_11h29.17.852,threat_forest,2021.2.3,59.99196104394372,True,6.0,0.4833333333333333,0.4380952380952381,-1.145,-1.0508163265306123,0,0,1,0.2740211354290196,0.0456430979938271,1.0,0.27,0.3,0.9,-1.4,-1.29,-0.29,0.0,0.0,1.0,-1.0,1.0,1,0,0,0.6187839297299427,0.23589037803791207,-0.03532581195041157,0.5485187816015175,0.24764592783190423,-0.03100668375919291,0.5521885308183362,0.24727635725102357,-0.03792777595208463,0.42218645538851624,0.2439450522749966,-0.02441063027392095,0.462917138775428,0.24862486140339912,-0.017625719504817575,0.4525116308136306,0.2477448547920191,-0.008290760257300966,0.4423028633209426,0.24667104041903823,-0.01470692648661144,0.8709652402352304,0.11238479053721782,-0.14249003874327262,0.9836752059642927,0.01605829513539896,-0.14054230547254487,0.625733904628629,0.2341909852268389,-0.011220318006514296
12.0,0.0,12.0,0.0,0.0,0.0,0.0,0.0,389.0429036002606,392.54171700030565,None,right,1.1139130997471511,393.28552479995415,ti14,389.0429036002606,392.54171700030565,393.28552479995415,None,True,4.0,['p'],False,0.2777777777777778,0.3333333333333333,0.1666666666666666,1.0,2.0,0.8929352898779304,0.0253296004142655,succ_gain,1.0,6.0,,,ti14,1,2022-05-05_11h29.17.852,threat_forest,2021.2.3,59.99196104394372,True,54.0,0.2777777777777778,0.3805555555555555,-1.1882716049382718,-1.166635802469136,1,0,1,0.1078791310540537,0.0253296004142655,0.2777777777777778,0.2777777777777778,0.3333333333333333,0.8333333333333334,-1.1666666666666663,-1.0555555555555556,2.9444444444444446,2.9444444444444446,0.0,2.0,-1.0,4.0,0,0,1,0.6187839297299427,0.23589037803791207,-0.03532581195041157,0.5516631352962094,0.24733092045136554,-0.025686725907855923,0.5521885308183362,0.24727635725102357,-0.03792777595208463,0.45082814131814314,0.2475821283137715,-0.025023856153020316,0.5130643809519726,0.24982932195034177,-0.01730153587845225,0.6446685768597562,0.22907100286937285,-0.03431204337836763,0.45371838983975504,0.24785801256097512,-0.014359135776075116,0.5246360907029952,0.24939306303487382,-0.01109080414653249,0.5165374079963742,0.24972651413676145,0.017388953519639455,0.5983974912386917,0.24031793371793164,-0.0072494431144347615
12.0,0.0,12.0,0.0,1.0,0.0,1.0,0.0,,,,right,1.0751673998311162,399.3545405999757,ti14,399.3545405999757,None,394.4265356003307,396.42632760014385,False,6.0,['p'],True,0.1975308641975308,0.2222222222222222,0.1111111111111111,1.0,2.0,0.7461067557824965,-0.0870428740192486,wait_cost,0.0,5.0,396.4263276001439,None,ti14,1,2022-05-05_11h29.17.852,threat_forest,2021.2.3,59.99196104394372,False,54.0,0.2777777777777778,0.3805555555555555,-1.1882716049382718,-1.166635802469136,0,0,0,0.0724763702295364,-0.0870428740192486,0.1975308641975308,0.1975308641975308,0.2222222222222222,0.8888888888888888,-1.4444444444444444,-1.3209876543209875,4.679012345679013,4.679012345679013,1.0,2.0,1.0,6.0,0,0,0,0.4923051804478794,0.2499407897520603,-0.009484854710617996,0.5490431165802258,0.24759477271609837,-0.030142757779103135,0.551282483867748,0.24737010684835417,0.0328955528466679,0.3576477214407398,0.2297358287889868,-0.022014897143616985,0.453418973098892,0.2478302079328383,-0.01783960251198133,0.4525116308136306,0.2477448547920191,-0.008290760257300966,0.34030263196706534,0.22449675064335345,-0.02120414046851614,0.5246360907029952,0.24939306303487382,-0.01109080414653249,0.4056748026970866,0.24110275715376647,0.01156034403484213,0.44070671344214735,0.24648430616916842,-0.003253017556520521
12.0,0.0,12.0,0.0,2.0,0.0,2.0,0.0,,,,right,1.0031723002903163,405.8808143003844,ti14,405.8808143003844,None,394.4265356003307,396.42632760014385,False,5.0,['p'],True,0.1975308641975308,0.2222222222222222,0.1111111111111111,1.0,2.0,0.7461067557824965,0.0020436001209005,wait_cost,0.0,4.0,402.4594256002456,None,ti14,1,2022-05-05_11h29.17.852,threat_forest,2021.2.3,59.99196104394372,False,54.0,0.2777777777777778,0.3805555555555555,-1.1882716049382718,-1.166635802469136,0,0,0,0.0031672791619658,0.0020436001209005,0.1975308641975308,0.1975308641975308,0.2222222222222222,0.8888888888888888,-1.4444444444444444,-1.3209876543209875,3.679012345679012,3.679012345679012,1.0,2.0,-1.0,5.0,0,0,0,0.4923051804478794,0.2499407897520603,-0.009484854710617996,0.5490431165802258,0.24759477271609837,-0.030142757779103135,0.5521885308183362,0.24727635725102357,-0.03792777595208463,0.3576477214407398,0.2297358287889868,-0.022014897143616985,0.453418973098892,0.2478302079328383,-0.01783960251198133,0.4525116308136306,0.2477448547920191,-0.008290760257300966,0.34030263196706534,0.22449675064335345,-0.02120414046851614,0.5246360907029952,0.24939306303487382,-0.01109080414653249,0.4056748026970866,0.24110275715376647,0.01156034403484213,0.5663008274000823,0.2456042002860645,-0.003823414118311358
12.0,0.0,12.0,0.0,3.0,0.0,3.0,0.0,,,,right,1.7568974997848272,411.2972760000266,ti14,411.2972760000266,None,394.4265356003307,396.42632760014385,False,4.0,['p'],True,0.1975308641975308,0.2222222222222222,0.1111111111111111,1.0,2.0,0.7461067557824965,7.141876729699348e-05,wait_cost,0.0,3.0,408.90963490027934,None,ti14,1,2022-05-05_11h29.17.852,threat_forest,2021.2.3,59.99196104394372,False,54.0,0.2777777777777778,0.3805555555555555,-1.1882716049382718,-1.166635802469136,0,0,0,0.5635494693044889,7.141876729699348e-05,0.1975308641975308,0.1975308641975308,0.2222222222222222,0.8888888888888888,-1.4444444444444444,-1.3209876543209875,2.6790123456790123,2.6790123456790123,1.0,2.0,-1.0,4.0,0,0,0,0.4923051804478794,0.2499407897520603,-0.009484854710617996,0.5490431165802258,0.24759477271609837,-0.030142757779103135,0.5521885308183362,0.24727635725102357,-0.03792777595208463,0.3576477214407398,0.2297358287889868,-0.022014897143616985,0.453418973098892,0.2478302079328383,-0.01783960251198133,0.4525116308136306,0.2477448547920191,-0.008290760257300966,0.34030263196706534,0.22449675064335345,-0.02120414046851614,0.5246360907029952,0.24939306303487382,-0.01109080414653249,0.4056748026970866,0.24110275715376647,0.01156034403484213,0.563552687415976,0.2459610559222073,-0.003592136005280605
12.0,0.0,12.0,0.0,4.0,0.0,4.0,0.0,,,,right,1.5241235997527838,416.1488689002581,ti14,413.0767100001685,415.076171700377,416.1488689002581,None,True,3.0,['p'],False,0.2777777777777778,0.3333333333333333,0.1666666666666666,1.0,2.0,0.8929352898779304,0.1520919067215363,unsucc_cost,1.0,1.0,415.076171700377,None,ti14,1,2022-05-05_11h29.17.852,threat_forest,2021.2.3,59.99196104394372,True,54.0,0.2777777777777778,0.3805555555555555,-1.1882716049382718,-1.166635802469136,1,0,1,0.4214195561758382,0.1520919067215363,0.2777777777777778,0.2777777777777778,0.3333333333333333,0.8333333333333334,-1.1666666666666663,-1.0555555555555556,1.9444444444444444,1.9444444444444444,0.0,2.0,-1.0,3.0,0,0,1,0.6187839297299427,0.23589037803791207,-0.03532581195041157,0.5516631352962094,0.24733092045136554,-0.025686725907855923,0.5521885308183362,0.24727635725102357,-0.03792777595208463,0.45082814131814314,0.2475821283137715,-0.025023856153020316,0.5130643809519726,0.24982932195034177,-0.01730153587845225,0.6446685768597562,0.22907100286937285,-0.03431204337836763,0.45371838983975504,0.24785801256097512,-0.014359135776075116,0.5246360907029952,0.24939306303487382,-0.01109080414653249,0.5165374079963742,0.24972651413676145,0.017388953519639455,0.7535174987665255,0.18572887781916472,-0.042628606455838935
12.0,0.0,12.0,0.0,5.0,0.0,5.0,0.0,,,,right,0.8160701999440789,421.94554580003023,ti14,413.0767100001685,415.076171700377,421.94554580003023,None,True,1.0,['p'],False,0.2777777777777778,0.3333333333333333,0.1666666666666666,1.0,2.0,0.8929352898779304,0.2777777777777777,unsucc_cost,1.0,0.0,419.692890400067,None,ti14,1,2022-05-05_11h29.17.852,threat_forest,2021.2.3,59.99196104394372,True,54.0,0.2777777777777778,0.3805555555555555,-1.1882716049382718,-1.166635802469136,1,0,1,-0.2032548983751078,0.2777777777777777,1.0,0.2777777777777778,0.3333333333333333,0.8333333333333334,-1.1666666666666663,-1.0555555555555556,-0.0555555555555555,0.0,0.0,2.0,-1.0,1.0,1,0,1,0.6187839297299427,0.23589037803791207,-0.03532581195041157,0.5516631352962094,0.24733092045136554,-0.025686725907855923,0.5521885308183362,0.24727635725102357,-0.03792777595208463,0.45082814131814314,0.2475821283137715,-0.025023856153020316,0.5130643809519726,0.24982932195034177,-0.01730153587845225,0.6446685768597562,0.22907100286937285,-0.03431204337836763,0.45371838983975504,0.24785801256097512,-0.014359135776075116,0.8709652402352304,0.11238479053721782,-0.14249003874327262,0.9836752059642927,0.01605829513539896,-0.14054230547254487,0.8617649784172277,0.11912610039078288,-0.08579386188725106
13.0,0.0,13.0,0.0,0.0,0.0,0.0,0.0,427.0842439001426,430.5931461001746,None,left,0.9686069004237652,433.1992744002491,ti14,433.1992744002491,None,427.0842439001426,430.59314610017464,True,4.0,['r'],True,0.3333333333333333,0.3333333333333333,0.0,0.0,2.0,0.5793801642856949,0.0501512138139916,unsucc_cost,0.0,2.0,,,ti14,1,2022-05-05_11h29.17.852,threat_forest,2021.2.3,59.99196104394372,True,46.0,0.3666666666666667,0.3222222222222222,-1.0533333333333337,-1.1208024691358025,1,1,1,-0.0318964249172148,0.0501512138139916,0.3333333333333333,0.3333333333333333,0.3333333333333333,1.0,-0.6666666666666669,-0.6666666666666669,3.333333333333333,3.333333333333333,1.0,2.0,-1.0,4.0,0,1,1,0.4923051804478794,0.2499407897520603,-0.009484854710617996,0.5437950554040444,0.24808199312215667,-0.03837111109612401,0.5521885308183362,0.24727635725102357,-0.03792777595208463,0.45082814131814314,0.2475821283137715,-0.025023856153020316,0.6183883381881993,0.23598420138103654,-0.021027985370729557,0.6446685768597562,0.22907100286937285,-0.03431204337836763,0.5359578034247529,0.24870703637286687,-0.014110366167785701,0.5246360907029952,0.24939306303487382,-0.01109080414653249,0.5929951759844461,0.24135189724362194,0.011728732394305219,0.6316999555030219,0.23265512172050207,-0.01221571103843555
13.0,0.0,13.0,0.0,1.0,0.0,1.0,0.0,,,,right,1.956227499991656,437.0001388001256,ti14,434.19362380029634,436.1931416001171,437.0001388001256,None,True,2.0,['r'],False,0.24,0.4,0.4,2.0,2.0,0.9801625908629508,-0.0088371924279834,succ_gain,1.0,4.0,436.1931416001171,None,ti14,1,2022-05-05_11h29.17.852,threat_forest,2021.2.3,59.99196104394372,True,46.0,0.3666666666666667,0.3222222222222222,-1.0533333333333337,-1.1208024691358025,0,0,1,0.6710178736384728,-0.0088371924279834,0.24,0.24,0.4,0.6,-1.6,-1.4400000000000002,0.5599999999999998,0.5599999999999998,0.0,2.0,-1.0,2.0,0,0,0,0.6187839297299427,0.23589037803791207,-0.03532581195041157,0.5626342856029876,0.24607694626700335,-0.004509159223342607,0.5521885308183362,0.24727635725102357,-0.03792777595208463,0.5089072254768455,0.2499206613343046,-0.02541814237415809,0.42048522856421955,0.2436774011235156,-0.01895734105016604,0.4525116308136306,0.2477448547920191,-0.008290760257300966,0.398940985676963,0.23978707562405624,-0.0167239738315028,0.5246360907029952,0.24939306303487382,-0.01109080414653249,0.4638746324087629,0.248694957816398,0.016691747074139063,0.5510926692397085,0.24738953914996173,-0.002666336124460128
13.0,0.0,13.0,0.0,2.0,0.0,2.0,0.0,,,,left,1.0784431998617947,442.4319540001452,ti14,442.4319540001452,None,438.97713140025735,440.976442000363,True,4.0,['r'],True,0.3333333333333333,0.3333333333333333,0.0,0.0,2.0,0.5793801642856949,0.0675703703703702,unsucc_cost,0.0,2.0,440.976442000363,None,ti14,1,2022-05-05_11h29.17.852,threat_forest,2021.2.3,59.99196104394372,True,46.0,0.3666666666666667,0.3222222222222222,-1.0533333333333337,-1.1208024691358025,1,1,1,0.0755185195925797,0.0675703703703702,0.3333333333333333,0.3333333333333333,0.3333333333333333,1.0,-0.6666666666666669,-0.6666666666666669,3.333333333333333,3.333333333333333,1.0,2.0,1.0,4.0,0,1,1,0.4923051804478794,0.2499407897520603,-0.009484854710617996,0.5437950554040444,0.24808199312215667,-0.03837111109612401,0.551282483867748,0.24737010684835417,0.0328955528466679,0.45082814131814314,0.2475821283137715,-0.025023856153020316,0.6183883381881993,0.23598420138103654,-0.021027985370729557,0.6446685768597562,0.22907100286937285,-0.03431204337836763,0.5359578034247529,0.24870703637286687,-0.014110366167785701,0.5246360907029952,0.24939306303487382,-0.01109080414653249,0.5929951759844461,0.24135189724362194,0.011728732394305219,0.6543629897766532,0.22617206738721288,-0.016417378102141222
13.0,0.0,13.0,0.0,3.0,0.0,3.0,0.0,,,,left,1.1117352000437677,446.4937214003876,ti14,446.4937214003876,None,438.97713140025735,440.976442000363,True,2.0,['r'],True,0.3333333333333333,0.3333333333333333,0.0,0.0,2.0,0.5793801642856949,0.0433487407407408,unsucc_cost,0.0,0.0,445.5432012001984,None,ti14,1,2022-05-05_11h29.17.852,threat_forest,2021.2.3,59.99196104394372,True,46.0,0.3666666666666667,0.3222222222222222,-1.0533333333333337,-1.1208024691358025,1,1,1,0.1059220380140261,0.0433487407407408,0.3333333333333333,0.3333333333333333,0.3333333333333333,1.0,-0.6666666666666669,-0.6666666666666669,1.333333333333333,1.333333333333333,1.0,2.0,-1.0,2.0,0,1,1,0.4923051804478794,0.2499407897520603,-0.009484854710617996,0.5437950554040444,0.24808199312215667,-0.03837111109612401,0.5521885308183362,0.24727635725102357,-0.03792777595208463,0.45082814131814314,0.2475821283137715,-0.025023856153020316,0.6183883381881993,0.23598420138103654,-0.021027985370729557,0.6446685768597562,0.22907100286937285,-0.03431204337836763,0.5359578034247529,0.24870703637286687,-0.014110366167785701,0.5246360907029952,0.24939306303487382,-0.01109080414653249,0.5929951759844461,0.24135189724362194,0.011728732394305219,0.6226826768722332,0.2349489607954632,-0.010729074093066088
14.0,0.0,14.0,0.0,0.0,0.0,0.0,0.0,450.2776085999794,453.7768727000803,None,right,0.9321705000475048,454.71976689994335,ti14,454.71976689994335,None,450.2776085999794,453.7768727000803,False,5.0,['r'],True,0.4081632653061224,0.5714285714285714,0.2857142857142857,2.0,2.0,0.9885754083994552,-0.0170150236195817,wait_cost,0.0,4.0,,,ti14,1,2022-05-05_11h29.17.852,threat_forest,2021.2.3,59.99196104394372,False,14.0,0.5357142857142857,0.4511904761904762,-0.326530612244898,-0.6899319727891158,1,0,0,-0.0702395410628868,-0.0170150236195817,0.4081632653061224,0.4081632653061224,0.5714285714285714,0.7142857142857143,-0.5714285714285715,-0.653061224489796,4.346938775510204,4.346938775510204,1.0,2.0,-1.0,5.0,0,0,1,0.4923051804478794,0.2499407897520603,-0.009484854710617996,0.5572676331726631,0.2467204181908013,-0.015376344326338831,0.5521885308183362,0.24727635725102357,-0.03792777595208463,0.6535469962023285,0.22642331995724205,-0.021456394621614368,0.6375398896834199,0.23108277874587269,-0.022347215766652308,0.6446685768597562,0.22907100286937285,-0.03431204337836763,0.6429558516726672,0.22956362447254236,-0.019719512829003083,0.5246360907029952,0.24939306303487382,-0.01109080414653249,0.6887248806049281,0.2143829194406556,-0.006499012210235605,0.5395976377034105,0.24843202708830942,-0.0019906997639294877
14.0,0.0,14.0,0.0,1.0,0.0,1.0,0.0,,,,left,0.8352286000736058,459.31488470034674,ti14,459.31488470034674,None,450.2776085999794,453.7768727000803,True,4.0,['r'],True,0.4081632653061224,0.5714285714285714,0.2857142857142857,2.0,2.0,0.9885754083994552,0.0323849776056033,succ_gain,0.0,6.0,457.6767415003851,None,ti14,1,2022-05-05_11h29.17.852,threat_forest,2021.2.3,59.99196104394372,True,14.0,0.5357142857142857,0.4511904761904762,-0.326530612244898,-0.6899319727891158,1,0,1,-0.1800498190569053,0.0323849776056033,0.4081632653061224,0.4081632653061224,0.5714285714285714,0.7142857142857143,-0.5714285714285715,-0.653061224489796,3.346938775510204,3.346938775510204,1.0,2.0,-1.0,4.0,0,0,1,0.4923051804478794,0.2499407897520603,-0.009484854710617996,0.5572676331726631,0.2467204181908013,-0.015376344326338831,0.5521885308183362,0.24727635725102357,-0.03792777595208463,0.6535469962023285,0.22642331995724205,-0.021456394621614368,0.6375398896834199,0.23108277874587269,-0.022347215766652308,0.6446685768597562,0.22907100286937285,-0.03431204337836763,0.6429558516726672,0.22956362447254236,-0.019719512829003083,0.5246360907029952,0.24939306303487382,-0.01109080414653249,0.6887248806049281,0.2143829194406556,-0.006499012210235605,0.6079712269773379,0.23834221414500822,-0.00852990683260002
14.0,0.0,14.0,0.0,2.0,0.0,2.0,0.0,,,,right,0.967633199878037,464.5494201001711,ti14,460.1788721000776,462.19329750025645,464.5494201001711,None,True,6.0,['r'],False,0.5,0.5,0.0,0.0,2.0,0.6309297535714574,0.0648838122295982,succ_gain,1.0,6.0,462.1932975002565,None,ti14,1,2022-05-05_11h29.17.852,threat_forest,2021.2.3,59.99196104394372,True,14.0,0.5357142857142857,0.4511904761904762,-0.326530612244898,-0.6899319727891158,1,1,1,-0.0329021892618911,0.0648838122295982,0.5,0.5,0.5,1.0,0.0,0.0,6.0,6.0,0.0,2.0,1.0,6.0,0,1,1,0.6187839297299427,0.23589037803791207,-0.03532581195041157,0.5437950554040444,0.24808199312215667,-0.03837111109612401,0.551282483867748,0.24737010684835417,0.0328955528466679,0.5950952250193806,0.24095689817851337,-0.023906815285406842,0.7420475574313432,0.19141297994152065,-0.03302444323269227,0.6446685768597562,0.22907100286937285,-0.03431204337836763,0.7564461825612244,0.18423535544977518,-0.03300099630601631,0.5246360907029952,0.24939306303487382,-0.01109080414653249,0.786997906953049,0.16763220140456891,-0.03809680411271395,0.6509100599260851,0.22722615381310537,-0.015734224762637306
14.0,0.0,14.0,0.0,3.0,0.0,3.0,0.0,,,,right,1.6432790998369455,470.2287219003774,ti14,460.1788721000776,462.19329750025645,470.2287219003774,None,True,6.0,['r'],False,0.5,0.5,0.0,0.0,2.0,0.6309297535714574,-0.1443864535610162,unsucc_cost,1.0,4.0,467.5434109000489,None,ti14,1,2022-05-05_11h29.17.852,threat_forest,2021.2.3,59.99196104394372,True,14.0,0.5357142857142857,0.4511904761904762,-0.326530612244898,-0.6899319727891158,1,1,1,0.4966936967142875,-0.1443864535610162,0.0,0.5,0.5,1.0,0.0,0.0,6.0,6.0,0.0,2.0,-1.0,6.0,0,1,1,0.6187839297299427,0.23589037803791207,-0.03532581195041157,0.5437950554040444,0.24808199312215667,-0.03837111109612401,0.5521885308183362,0.24727635725102357,-0.03792777595208463,0.5950952250193806,0.24095689817851337,-0.023906815285406842,0.7420475574313432,0.19141297994152065,-0.03302444323269227,0.6446685768597562,0.22907100286937285,-0.03431204337836763,0.7564461825612244,0.18423535544977518,-0.03300099630601631,0.5246360907029952,0.24939306303487382,-0.01109080414653249,0.1847089963457085,0.15059158301466954,-0.04961418686944427,0.3627613020678519,0.23116553978988857,-0.013181108984340856
14.0,0.0,14.0,0.0,4.0,0.0,4.0,0.0,,,,right,1.547858700156212,474.5790127003565,ti14,460.1788721000776,462.19329750025645,474.5790127003565,None,True,4.0,['r'],False,0.5,0.5,0.0,0.0,2.0,0.6309297535714574,0.1014160766347355,unsucc_cost,1.0,2.0,473.8936284002848,None,ti14,1,2022-05-05_11h29.17.852,threat_forest,2021.2.3,59.99196104394372,True,14.0,0.5357142857142857,0.4511904761904762,-0.326530612244898,-0.6899319727891158,1,1,1,0.4368724920325015,0.1014160766347355,0.5,0.5,0.5,1.0,0.0,0.0,4.0,4.0,0.0,2.0,-1.0,4.0,0,1,1,0.6187839297299427,0.23589037803791207,-0.03532581195041157,0.5437950554040444,0.24808199312215667,-0.03837111109612401,0.5521885308183362,0.24727635725102357,-0.03792777595208463,0.5950952250193806,0.24095689817851337,-0.023906815285406842,0.7420475574313432,0.19141297994152065,-0.03302444323269227,0.6446685768597562,0.22907100286937285,-0.03431204337836763,0.7564461825612244,0.18423535544977518,-0.03300099630601631,0.5246360907029952,0.24939306303487382,-0.01109080414653249,0.786997906953049,0.16763220140456891,-0.03809680411271395,0.6963884741192822,0.21143156723310005,-0.0259706952295424
14.0,0.0,14.0,0.0,5.0,0.0,5.0,0.0,,,,left,0.9509691996499896,481.1666295002215,ti14,481.1666295002215,None,476.14378810022026,478.1437357002869,True,2.0,['r'],True,0.4081632653061224,0.5714285714285714,0.2857142857142857,2.0,2.0,0.9885754083994552,-0.0459183673469387,unsucc_cost,0.0,0.0,478.1437357002869,None,ti14,1,2022-05-05_11h29.17.852,threat_forest,2021.2.3,59.99196104394372,True,14.0,0.5357142857142857,0.4511904761904762,-0.326530612244898,-0.6899319727891158,1,0,1,-0.0502736042903657,-0.0459183673469387,0.4081632653061224,0.4081632653061224,0.5714285714285714,0.7142857142857143,-0.5714285714285715,-0.653061224489796,1.346938775510204,1.346938775510204,1.0,2.0,-1.0,2.0,0,0,1,0.4923051804478794,0.2499407897520603,-0.009484854710617996,0.5572676331726631,0.2467204181908013,-0.015376344326338831,0.5521885308183362,0.24727635725102357,-0.03792777595208463,0.6535469962023285,0.22642331995724205,-0.021456394621614368,0.6375398896834199,0.23108277874587269,-0.022347215766652308,0.6446685768597562,0.22907100286937285,-0.03431204337836763,0.6429558516726672,0.22956362447254236,-0.019719512829003083,0.5246360907029952,0.24939306303487382,-0.01109080414653249,0.6887248806049281,0.2143829194406556,-0.006499012210235605,0.49871443501461277,0.24999834732266835,-0.0009755677286897579
15.0,0.0,15.0,0.0,0.0,0.0,0.0,0.0,486.1785714002326,489.6770072001964,None,left,0.746433800086379,490.8693946003914,ti14,490.8693946003914,None,486.1785714002326,489.6770072001964,True,4.0,['r'],True,0.3333333333333333,0.5,0.3333333333333333,2.0,2.0,1.0,0.0039043511659807,succ_gain,0.0,6.0,,,ti14,1,2022-05-05_11h29.17.852,threat_forest,2021.2.3,59.99196104394372,True,2.0,0.45,0.4928571428571429,-0.7,-0.513265306122449,0,0,1,-0.2924483463285607,0.0039043511659807,0.3333333333333333,0.3333333333333333,0.5,0.6666666666666667,-1.0,-1.0,3.0,3.0,1.0,2.0,-1.0,4.0,0,0,0,0.4923051804478794,0.2499407897520603,-0.009484854710617996,0.5595054374582059,0.24645910291290757,-0.01096315800058445,0.5521885308183362,0.24727635725102357,-0.03792777595208463,0.5950952250193806,0.24095689817851337,-0.023906815285406842,0.5487819941784332,0.2476203170439753,-0.01789609517972819,0.4525116308136306,0.2477448547920191,-0.008290760257300966,0.5359578034247529,0.24870703637286687,-0.014110366167785701,0.5246360907029952,0.24939306303487382,-0.01109080414653249,0.5929951759844461,0.24135189724362194,0.011728732394305219,0.5688899645367914,0.24525417278611966,-0.004050266916745843
15.0,0.0,15.0,0.0,1.0,0.0,1.0,0.0,,,,left,1.062239599879831,495.2815407002345,ti14,495.2815407002345,None,486.1785714002326,489.6770072001964,True,6.0,['r'],True,0.3333333333333333,0.5,0.3333333333333333,2.0,2.0,1.0,-0.1091590123456789,succ_gain,0.0,6.0,493.6438114000484,None,ti14,1,2022-05-05_11h29.17.852,threat_forest,2021.2.3,59.99196104394372,True,2.0,0.45,0.4928571428571429,-0.7,-0.513265306122449,0,0,1,0.060379509312778,-0.1091590123456789,0.3333333333333333,0.3333333333333333,0.5,0.6666666666666667,-1.0,-1.0,5.0,5.0,1.0,2.0,1.0,6.0,0,0,0,0.4923051804478794,0.2499407897520603,-0.009484854710617996,0.5595054374582059,0.24645910291290757,-0.01096315800058445,0.551282483867748,0.24737010684835417,0.0328955528466679,0.5950952250193806,0.24095689817851337,-0.023906815285406842,0.5487819941784332,0.2476203170439753,-0.01789609517972819,0.4525116308136306,0.2477448547920191,-0.008290760257300966,0.5359578034247529,0.24870703637286687,-0.014110366167785701,0.5246360907029952,0.24939306303487382,-0.01109080414653249,0.5929951759844461,0.24135189724362194,0.011728732394305219,0.41006901479662927,0.24191241790035115,-0.006216058026410565
15.0,0.0,15.0,0.0,2.0,0.0,2.0,0.0,,,,right,0.9883828000165522,499.00162840029225,ti14,499.00162840029225,None,486.1785714002326,489.6770072001964,False,6.0,['r'],True,0.3333333333333333,0.5,0.3333333333333333,2.0,2.0,1.0,-0.0006600823045267,wait_cost,0.0,5.0,498.3605351001024,None,ti14,1,2022-05-05_11h29.17.852,threat_forest,2021.2.3,59.99196104394372,False,2.0,0.45,0.4928571428571429,-0.7,-0.513265306122449,0,0,0,-0.0116852068639439,-0.0006600823045267,0.3333333333333333,0.3333333333333333,0.5,0.6666666666666667,-1.0,-1.0,5.0,5.0,1.0,2.0,-1.0,6.0,0,0,0,0.4923051804478794,0.2499407897520603,-0.009484854710617996,0.5595054374582059,0.24645910291290757,-0.01096315800058445,0.5521885308183362,0.24727635725102357,-0.03792777595208463,0.5950952250193806,0.24095689817851337,-0.023906815285406842,0.5487819941784332,0.2476203170439753,-0.01789609517972819,0.4525116308136306,0.2477448547920191,-0.008290760257300966,0.5359578034247529,0.24870703637286687,-0.014110366167785701,0.5246360907029952,0.24939306303487382,-0.01109080414653249,0.5929951759844461,0.24135189724362194,0.011728732394305219,0.5625323734203709,0.24608970227441523,-0.003508760313338244
15.0,0.0,15.0,0.0,3.0,0.0,3.0,0.0,,,,right,0.7906917999498546,504.3171227001585,ti14,500.0110582001507,502.01053460035473,504.3171227001585,None,True,5.0,['r'],False,0.4,0.4,0.0,0.0,2.0,0.6126016192893442,0.1159999999999999,unsucc_cost,1.0,3.0,502.01053460035473,None,ti14,1,2022-05-05_11h29.17.852,threat_forest,2021.2.3,59.99196104394372,True,2.0,0.45,0.4928571428571429,-0.7,-0.513265306122449,1,0,1,-0.2348470205801835,0.1159999999999999,0.4,0.4,0.4,1.0,-0.3999999999999999,-0.3999999999999999,4.6,4.6,0.0,2.0,-1.0,5.0,0,0,1,0.6187839297299427,0.23589037803791207,-0.03532581195041157,0.5437950554040444,0.24808199312215667,-0.03837111109612401,0.5521885308183362,0.24727635725102357,-0.03792777595208463,0.5089072254768455,0.2499206613343046,-0.02541814237415809,0.6709054501071177,0.2207913271236835,-0.02511718620355316,0.6446685768597562,0.22907100286937285,-0.03431204337836763,0.6317578302383664,0.23263987417087784,-0.018818151263241822,0.5246360907029952,0.24939306303487382,-0.01109080414653249,0.6788705556257163,0.2180053243301476,-0.004050707655932573,0.7135811759574642,0.20438308127662672,-0.03053881848901238
15.0,0.0,15.0,0.0,4.0,0.0,4.0,0.0,,,,left,0.7773040998727083,509.7682980000973,ti14,509.7682980000973,None,505.1277824002318,507.1273242002353,True,3.0,['r'],True,0.3333333333333333,0.5,0.3333333333333333,2.0,2.0,1.0,0.0722222222222223,succ_gain,0.0,5.0,507.1273242002353,None,ti14,1,2022-05-05_11h29.17.852,threat_forest,2021.2.3,59.99196104394372,True,2.0,0.45,0.4928571428571429,-0.7,-0.513265306122449,0,0,1,-0.2519236282549095,0.0722222222222223,0.3333333333333333,0.3333333333333333,0.5,0.6666666666666667,-1.0,-1.0,2.0,2.0,1.0,2.0,-1.0,3.0,0,0,0,0.4923051804478794,0.2499407897520603,-0.009484854710617996,0.5595054374582059,0.24645910291290757,-0.01096315800058445,0.5521885308183362,0.24727635725102357,-0.03792777595208463,0.5950952250193806,0.24095689817851337,-0.023906815285406842,0.5487819941784332,0.2476203170439753,-0.01789609517972819,0.4525116308136306,0.2477448547920191,-0.008290760257300966,0.5359578034247529,0.24870703637286687,-0.014110366167785701,0.5246360907029952,0.24939306303487382,-0.01109080414653249,0.5929951759844461,0.24135189724362194,0.011728732394305219,0.6603033665821533,0.22430283066242776,-0.017628830293814263
15.0,0.0,15.0,0.0,5.0,0.0,5.0,0.0,,,,right,1.598077000118792,515.0668010003865,ti14,510.5832394002937,512.5941345002502,515.0668010003865,None,True,5.0,['r'],False,0.4,0.4,0.0,0.0,2.0,0.6126016192893442,0.0,unsucc_cost,1.0,3.0,512.5941345002502,None,ti14,1,2022-05-05_11h29.17.852,threat_forest,2021.2.3,59.99196104394372,True,2.0,0.45,0.4928571428571429,-0.7,-0.513265306122449,1,0,1,0.4688010314890857,0.0,0.0,0.4,0.4,1.0,-0.3999999999999999,-0.3999999999999999,4.6,4.6,0.0,2.0,1.0,5.0,0,0,1,0.6187839297299427,0.23589037803791207,-0.03532581195041157,0.5437950554040444,0.24808199312215667,-0.03837111109612401,0.551282483867748,0.24737010684835417,0.0328955528466679,0.5089072254768455,0.2499206613343046,-0.02541814237415809,0.6709054501071177,0.2207913271236835,-0.02511718620355316,0.6446685768597562,0.22907100286937285,-0.03431204337836763,0.6317578302383664,0.23263987417087784,-0.018818151263241822,0.5246360907029952,0.24939306303487382,-0.01109080414653249,0.1847089963457085,0.15059158301466954,-0.04961418686944427,0.5634530944790684,0.24597370480103037,-0.003583938267792769
15.0,0.0,15.0,0.0,6.0,0.0,6.0,0.0,,,,right,0.7117792996577919,520.552034500055,ti14,520.552034500055,None,516.6944678002037,518.6944113001227,False,3.0,['r'],True,0.3333333333333333,0.5,0.3333333333333333,2.0,2.0,1.0,-0.5444444444444444,wait_cost,0.0,2.0,518.6944113001227,None,ti14,1,2022-05-05_11h29.17.852,threat_forest,2021.2.3,59.99196104394372,False,2.0,0.45,0.4928571428571429,-0.7,-0.513265306122449,0,0,0,-0.3399873880122745,-0.5444444444444444,0.0,0.3333333333333333,0.5,0.6666666666666667,-1.0,-1.0,2.0,2.0,1.0,2.0,-1.0,3.0,0,0,0,0.4923051804478794,0.2499407897520603,-0.009484854710617996,0.5595054374582059,0.24645910291290757,-0.01096315800058445,0.5521885308183362,0.24727635725102357,-0.03792777595208463,0.5950952250193806,0.24095689817851337,-0.023906815285406842,0.5487819941784332,0.2476203170439753,-0.01789609517972819,0.4525116308136306,0.2477448547920191,-0.008290760257300966,0.5359578034247529,0.24870703637286687,-0.014110366167785701,0.5246360907029952,0.24939306303487382,-0.01109080414653249,0.1847089963457085,0.15059158301466954,-0.04961418686944427,0.055645719260933875,0.05254927318886721,-0.12894229897869053
15.0,0.0,15.0,0.0,7.0,0.0,7.0,0.0,,,,right,0.644484399817884,526.7347020003945,ti14,521.2946777003817,523.2943426002748,526.7347020003945,None,True,2.0,['r'],False,0.4,0.4,0.0,0.0,2.0,0.6126016192893442,-0.6,unsucc_cost,1.0,0.0,523.2943426002748,None,ti14,1,2022-05-05_11h29.17.852,threat_forest,2021.2.3,59.99196104394372,True,2.0,0.45,0.4928571428571429,-0.7,-0.513265306122449,1,0,1,-0.4393046619883426,-0.6,0.0,0.4,0.4,1.0,-0.3999999999999999,-0.3999999999999999,1.6,1.6,0.0,2.0,-1.0,2.0,0,0,1,0.6187839297299427,0.23589037803791207,-0.03532581195041157,0.5437950554040444,0.24808199312215667,-0.03837111109612401,0.5521885308183362,0.24727635725102357,-0.03792777595208463,0.5089072254768455,0.2499206613343046,-0.02541814237415809,0.6709054501071177,0.2207913271236835,-0.02511718620355316,0.6446685768597562,0.22907100286937285,-0.03431204337836763,0.6317578302383664,0.23263987417087784,-0.018818151263241822,0.5246360907029952,0.24939306303487382,-0.01109080414653249,0.1847089963457085,0.15059158301466954,-0.04961418686944427,0.041230830884994775,0.039530849469527736,-0.13737953848816747
