miniblock.thisRepN,miniblock.thisTrialN,miniblock.thisN,miniblock.thisIndex,day.thisRepN,day.thisTrialN,day.thisN,day.thisIndex,forest.started,fixation_forest.started,fixation_forest.stopped,key_resp.keys,key_resp.rt,key_resp.started,Subject_ID,weather_left.started,weather_left.stopped,weather_right.started,weather_right.stopped,foraging T/F,in_LP,p/r heuristic,good_weather.T/F,p_succ_correct,p_succ_uncorrected,r_threat,n_oponents,gain_if_succ,weather_entropy,OP_value_difference,action_outcome,forest_side_L=0_R=1,out_LP,fixation_day.started,fixation_day.stopped,participant,session,date,expName,psychopyVersion,frameRate,foraging T/F NaNs,fora_NR,forest_mean_p,mvt_cutoff_p,forest_mean_ev,mvt_cutoff_ev,mvt_policy_eg,mvt_policy_p,fora_response,logRT,optimal policy values,multi-heuristic policy,** $\mathit{p}$ success,* $\mathit{p}$ gain,* $\mathit{r}$ predator,expected gain naive,expected gain correct,expected state no bounds,expected state with bounds,weather type,gain magnitude,win stay lose shift,continuous energy state,** binary energy state,** wait when safe,$\mathit{p}$ success based MVT,marginal value,$\mathit{OP}$ values + cap,win stay lose shift fit,win stay lose shift_uncertain,win stay lose shift_uncertain_fit,** wait when safe fit,** wait when safe_uncertain,** wait when safe_uncertain_fit,** binary energy state fit,** binary energy state_uncertain,** binary energy state_uncertain_fit,weather type fit,weather type_uncertain,weather type_uncertain_fit,* $\mathit{r}$ predator fit,* $\mathit{r}$ predator_uncertain,* $\mathit{r}$ predator_uncertain_fit,* $\mathit{p}$ gain fit,* $\mathit{p}$ gain_uncertain,* $\mathit{p}$ gain_uncertain_fit,expected gain naive fit,expected gain naive_uncertain,expected gain naive_uncertain_fit,** $\mathit{p}$ success fit,** $\mathit{p}$ success_uncertain,** $\mathit{p}$ success_uncertain_fit,marginal value fit,marginal value_uncertain,marginal value_uncertain_fit,multi-heuristic policy fit,multi-heuristic policy_uncertain,multi-heuristic policy_uncertain_fit,optimal policy values fit,optimal policy values_uncertain,optimal policy values_uncertain_fit
0.0,0.0,0.0,0.0,0.0,0.0,0.0,0.0,23.40261750016361,26.915409500245005,,right,0.8391558998264372,28.01119070034474,ox19,23.40261750016361,26.915409500245005,28.01119070034474,,True,4.0,['p'],False,0.375,0.5,0.25,1.0,1.0,0.9850568223215076,0.0300347076439857,unsucc_cost,1.0,2.0,,,ox19,1,2022-05-11_14h35.22.606,threat_forest,2021.2.3,60.05461373201944,True,50.0,0.35,0.35,-1.2625000000000002,-1.2625000000000002,1,1,1.0,-0.1753587735353463,0.0300347076439857,0.375,0.375,0.5,0.25,-0.25,-0.125,3.875,3.875,0.0,1.0,,4.0,0,1,1,1,0.0300347076439857,,,,0.6523194701730486,0.22679877900620168,0.3558426887639173,0.46945111770102244,0.2490667657902832,0.3153501878610251,0.4216839900167997,0.24386660258031123,0.28702243072950306,0.5803073382977375,0.2435507314155327,0.3078825434221335,0.5712699772090081,0.24492059034862748,0.29609302116675057,0.5150471098255233,0.24977358448589868,0.3590510367292268,0.5324046994493249,0.24894993545359895,0.3438991121348778,0.5789463644608339,0.24376747153841716,0.2284327167928062,0.6757592998891633,0.21910866850247115,0.42770730454986394,0.6393304902613034,0.2305870144835448,0.3948061843941397
0.0,0.0,0.0,0.0,1.0,0.0,1.0,0.0,,,,left,1.807318499777466,31.916043300181627,ox19,23.40261750016361,26.915409500245005,31.916043300181627,,False,2.0,['p'],False,0.375,0.5,0.25,1.0,1.0,0.9850568223215076,0.0197937602996826,wait_cost,1.0,1.0,30.88215640000999,,ox19,1,2022-05-11_14h35.22.606,threat_forest,2021.2.3,60.05461373201944,False,50.0,0.35,0.35,-1.2625000000000002,-1.2625000000000002,1,1,0.0,0.5918442549479767,0.0197937602996826,0.375,0.375,0.5,0.25,-0.25,-0.125,1.875,1.875,0.0,1.0,-1.0,2.0,0,1,1,1,0.0197937602996826,0.5587174474818984,0.2465522613612105,0.2805233357823236,0.6523194701730486,0.22679877900620168,0.3558426887639173,0.46945111770102244,0.2490667657902832,0.3153501878610251,0.4216839900167997,0.24386660258031123,0.28702243072950306,0.5803073382977375,0.2435507314155327,0.3078825434221335,0.5712699772090081,0.24492059034862748,0.29609302116675057,0.5150471098255233,0.24977358448589868,0.3590510367292268,0.5324046994493249,0.24894993545359895,0.3438991121348778,0.5789463644608339,0.24376747153841716,0.2284327167928062,0.6757592998891633,0.21910866850247115,0.42770730454986394,0.5956217212564602,0.2408564864239518,0.4106483638143653
0.0,0.0,0.0,0.0,2.0,0.0,2.0,0.0,,,,left,2.536435700021684,36.617549600079656,ox19,36.617549600079656,,33.74925110023469,35.748948600143194,True,1.0,['p'],True,0.2,0.2,0.0,0.0,1.0,0.4554859150035951,0.0234352416992187,succ_gain,0.0,2.0,35.748948600143194,,ox19,1,2022-05-11_14h35.22.606,threat_forest,2021.2.3,60.05461373201944,True,50.0,0.35,0.35,-1.2625000000000002,-1.2625000000000002,0,0,1.0,0.93075982782026,0.0234352416992187,1.0,0.2,0.2,0.0,-0.4000000000000001,-0.4000000000000001,0.5999999999999999,1.0,1.0,1.0,-1.0,1.0,1,1,0,0,0.625,0.5587174474818984,0.2465522613612105,0.2805233357823236,0.6523194701730486,0.22679877900620168,0.3558426887639173,0.948716011137856,0.04865394134853164,0.12421676542680053,0.6141280296957852,0.23697479283775796,0.3003947759528632,0.34064138905138375,0.22460483311652757,0.291731612479429,0.27028010196589636,0.19722876844720102,0.29098402749967367,0.511039378160651,0.24987813212982615,0.371297963162327,0.45155041579595356,0.24765263779045502,0.31762931324824795,0.45624888908416833,0.24808584029363062,0.3719759130361986,0.9982844583276018,0.00171259858916837,0.011646785634912431,0.6113784327464188,0.23759484471895145,0.40561679905670767
0.0,0.0,0.0,0.0,3.0,0.0,3.0,0.0,,,,right,2.0883315997198224,41.89917240012437,ox19,39.18257560022175,41.18235780019313,41.89917240012437,,True,2.0,['p'],False,0.375,0.5,0.25,1.0,1.0,0.9850568223215076,0.0438836669921876,succ_gain,1.0,3.0,41.18235780019313,,ox19,1,2022-05-11_14h35.22.606,threat_forest,2021.2.3,60.05461373201944,True,50.0,0.35,0.35,-1.2625000000000002,-1.2625000000000002,1,1,1.0,0.7363654695374333,0.0438836669921876,0.375,0.375,0.5,0.25,-0.25,-0.125,1.875,1.875,0.0,1.0,1.0,2.0,0,1,1,1,0.0438836669921876,0.36763879418749457,0.23248051119585955,0.3568627013989232,0.6523194701730486,0.22679877900620168,0.3558426887639173,0.46945111770102244,0.2490667657902832,0.3153501878610251,0.4216839900167997,0.24386660258031123,0.28702243072950306,0.5803073382977375,0.2435507314155327,0.3078825434221335,0.5712699772090081,0.24492059034862748,0.29609302116675057,0.5150471098255233,0.24977358448589868,0.3590510367292268,0.5324046994493249,0.24894993545359895,0.3438991121348778,0.5789463644608339,0.24376747153841716,0.2284327167928062,0.6757592998891633,0.21910866850247115,0.42770730454986394,0.6948544990006704,0.21203172421919772,0.36618190465824296
0.0,0.0,0.0,0.0,4.0,0.0,4.0,0.0,,,,right,1.9384313998743887,49.516093800310045,ox19,49.516093800310045,,44.01605400023982,46.01575730042532,False,3.0,['p'],True,0.2,0.2,0.0,0.0,1.0,0.4554859150035951,-0.0550625000000001,wait_cost,0.0,2.0,46.01575730042532,,ox19,1,2022-05-11_14h35.22.606,threat_forest,2021.2.3,60.05461373201944,False,50.0,0.35,0.35,-1.2625000000000002,-1.2625000000000002,0,0,0.0,0.6618790892511273,-0.0550625000000001,0.2,0.2,0.2,0.0,-0.4000000000000001,-0.4000000000000001,2.6,2.6,1.0,1.0,1.0,3.0,0,1,0,0,-0.0550625000000001,0.36763879418749457,0.23248051119585955,0.3568627013989232,0.6523194701730486,0.22679877900620168,0.3558426887639173,0.46945111770102244,0.2490667657902832,0.3153501878610251,0.6141280296957852,0.23697479283775796,0.3003947759528632,0.34064138905138375,0.22460483311652757,0.291731612479429,0.27028010196589636,0.19722876844720102,0.29098402749967367,0.511039378160651,0.24987813212982615,0.371297963162327,0.45155041579595356,0.24765263779045502,0.31762931324824795,0.45624888908416833,0.24808584029363062,0.3719759130361986,0.3009879821296564,0.21039421674317402,0.4110292692823524,0.27557905826737056,0.19963524091183973,0.3470584955993723
0.0,0.0,0.0,0.0,5.0,0.0,5.0,0.0,,,,right,1.3795872000046074,54.16608420014381,ox19,51.482851800043136,53.482390800025314,54.16608420014381,,True,2.0,['p'],False,0.375,0.5,0.25,1.0,1.0,0.9850568223215076,0.0875,figh_cost,1.0,0.0,53.482390800025314,,ox19,1,2022-05-11_14h35.22.606,threat_forest,2021.2.3,60.05461373201944,True,50.0,0.35,0.35,-1.2625000000000002,-1.2625000000000002,1,1,1.0,0.3217843239892379,0.0875,0.375,0.375,0.5,0.25,-0.25,-0.125,1.875,1.875,0.0,1.0,-1.0,2.0,0,1,1,1,0.0875,0.5587174474818984,0.2465522613612105,0.2805233357823236,0.6523194701730486,0.22679877900620168,0.3558426887639173,0.46945111770102244,0.2490667657902832,0.3153501878610251,0.4216839900167997,0.24386660258031123,0.28702243072950306,0.5803073382977375,0.2435507314155327,0.3078825434221335,0.5712699772090081,0.24492059034862748,0.29609302116675057,0.5150471098255233,0.24977358448589868,0.3590510367292268,0.5324046994493249,0.24894993545359895,0.3438991121348778,0.5789463644608339,0.24376747153841716,0.2284327167928062,0.6757592998891633,0.21910866850247115,0.42770730454986394,0.8336475655247035,0.13867930201943868,0.25302494389725283
1.0,0.0,1.0,0.0,0.0,0.0,0.0,0.0,59.46129730017856,62.95404590014368,,right,0.9476671000011264,65.2668207003735,ox19,59.46129730017856,62.95404590014368,65.2668207003735,,True,4.0,['r'],False,0.5,0.5,0.0,0.0,2.0,0.6309297535714574,0.0723560159877321,succ_gain,1.0,6.0,,,ox19,1,2022-05-11_14h35.22.606,threat_forest,2021.2.3,60.05461373201944,True,58.0,0.5357142857142857,0.4428571428571428,-0.326530612244898,-0.794515306122449,1,1,1.0,-0.0537519987347087,0.0723560159877321,0.5,0.5,0.5,0.0,1.0,1.0,5.0,5.0,0.0,2.0,-1.0,4.0,0,1,1,1,0.0723560159877321,0.5587174474818984,0.2465522613612105,0.2805233357823236,0.6523194701730486,0.22679877900620168,0.3558426887639173,0.46945111770102244,0.2490667657902832,0.3153501878610251,0.4216839900167997,0.24386660258031123,0.28702243072950306,0.34064138905138375,0.22460483311652757,0.291731612479429,0.5712699772090081,0.24492059034862748,0.29609302116675057,0.5483210576857501,0.24766507538413046,0.11205593590426588,0.5893741221868126,0.24201226628333666,0.20341387191399551,0.5789463644608339,0.24376747153841716,0.2284327167928062,0.8653834716209493,0.11649491866622297,0.23132137162244462,0.7921324757260195,0.16465861662618658,0.2931018792648057
1.0,0.0,1.0,0.0,1.0,0.0,1.0,0.0,,,,right,2.0093219000846148,69.31808930030093,ox19,69.31808930030093,,66.23306810017675,68.23267750022933,False,6.0,['r'],True,0.4081632653061224,0.5714285714285714,0.2857142857142857,2.0,2.0,0.9885754083994552,-0.0789184913550894,wait_cost,0.0,5.0,68.23267750022933,,ox19,1,2022-05-11_14h35.22.606,threat_forest,2021.2.3,60.05461373201944,False,58.0,0.5357142857142857,0.4428571428571428,-0.326530612244898,-0.794515306122449,1,0,0.0,0.6977973020092548,-0.0789184913550894,0.4081632653061224,0.4081632653061224,0.5714285714285714,0.2857142857142857,0.4285714285714285,0.346938775510204,6.346938775510204,6.346938775510204,1.0,2.0,1.0,6.0,0,1,0,1,-0.0789184913550894,0.36763879418749457,0.23248051119585955,0.3568627013989232,0.6523194701730486,0.22679877900620168,0.3558426887639173,0.46945111770102244,0.2490667657902832,0.3153501878610251,0.6141280296957852,0.23697479283775796,0.3003947759528632,0.6141224135236055,0.2369760747315472,0.30227780384213604,0.643790129833522,0.2293243985624589,0.2944222767521056,0.5331456314707473,0.24890136711440536,0.25687769660344273,0.5476647619572422,0.24772807046755946,0.31915679711976885,0.5789463644608339,0.24376747153841716,0.2284327167928062,0.7375337649067463,0.1935777105292266,0.37884522702021883,0.19814534224368843,0.15888376559082004,0.2841933173875991
1.0,0.0,1.0,0.0,2.0,0.0,2.0,0.0,,,,right,0.9865858997218312,76.95009120041505,ox19,71.34995960025117,73.34939109999686,76.95009120041505,,True,5.0,['r'],False,0.5,0.5,0.0,0.0,2.0,0.6309297535714574,0.0975307235914345,succ_gain,1.0,6.0,73.34939109999686,,ox19,1,2022-05-11_14h35.22.606,threat_forest,2021.2.3,60.05461373201944,True,58.0,0.5357142857142857,0.4428571428571428,-0.326530612244898,-0.794515306122449,1,1,1.0,-0.0135048820727574,0.0975307235914345,0.5,0.5,0.5,0.0,1.0,1.0,6.0,6.0,0.0,2.0,-1.0,5.0,0,1,1,1,0.0975307235914345,0.5587174474818984,0.2465522613612105,0.2805233357823236,0.6523194701730486,0.22679877900620168,0.3558426887639173,0.46945111770102244,0.2490667657902832,0.3153501878610251,0.4216839900167997,0.24386660258031123,0.28702243072950306,0.34064138905138375,0.22460483311652757,0.291731612479429,0.5712699772090081,0.24492059034862748,0.29609302116675057,0.5483210576857501,0.24766507538413046,0.11205593590426588,0.5893741221868126,0.24201226628333666,0.20341387191399551,0.5789463644608339,0.24376747153841716,0.2284327167928062,0.8653834716209493,0.11649491866622297,0.23132137162244462,0.8573075037052834,0.12233134779589883,0.2278058064902043
1.0,0.0,1.0,0.0,3.0,0.0,3.0,0.0,,,,right,1.1403760998509824,83.50035310024396,ox19,83.50035310024396,,77.96646330039948,79.96618990041316,False,6.0,['r'],True,0.4081632653061224,0.5714285714285714,0.2857142857142857,2.0,2.0,0.9885754083994552,-0.1920843462332871,wait_cost,0.0,5.0,79.96618990041316,,ox19,1,2022-05-11_14h35.22.606,threat_forest,2021.2.3,60.05461373201944,False,58.0,0.5357142857142857,0.4428571428571428,-0.326530612244898,-0.794515306122449,1,0,0.0,0.1313581201473418,-0.1920843462332871,0.0,0.4081632653061224,0.5714285714285714,0.2857142857142857,0.4285714285714285,0.346938775510204,6.346938775510204,6.346938775510204,1.0,2.0,1.0,6.0,0,0,0,1,-0.84,0.36763879418749457,0.23248051119585955,0.3568627013989232,0.014078259991121408,0.013880062586743801,0.05124298748297465,0.46945111770102244,0.2490667657902832,0.3153501878610251,0.6141280296957852,0.23697479283775796,0.3003947759528632,0.6141224135236055,0.2369760747315472,0.30227780384213604,0.643790129833522,0.2293243985624589,0.2944222767521056,0.5331456314707473,0.24890136711440536,0.25687769660344273,0.5476647619572422,0.24772807046755946,0.31915679711976885,0.5789463644608339,0.24376747153841716,0.2284327167928062,0.06630872569850155,0.061911878594742425,0.12685836092886382,0.03093338917118876,0.02997651460557255,0.08533481613973334
1.0,0.0,1.0,0.0,4.0,0.0,4.0,0.0,,,,left,2.4792776997201145,88.41647640010342,ox19,84.66668130038306,86.66637250036001,88.41647640010342,,False,5.0,['r'],False,0.5,0.5,0.0,0.0,2.0,0.6309297535714574,-0.1814478342357351,wait_cost,1.0,4.0,86.66637250036001,,ox19,1,2022-05-11_14h35.22.606,threat_forest,2021.2.3,60.05461373201944,False,58.0,0.5357142857142857,0.4428571428571428,-0.326530612244898,-0.794515306122449,1,1,0.0,0.9079672676424826,-0.1814478342357351,0.0,0.5,0.5,0.0,1.0,1.0,6.0,6.0,0.0,2.0,-1.0,5.0,0,0,1,1,-0.84,0.5587174474818984,0.2465522613612105,0.2805233357823236,0.014078259991121408,0.013880062586743801,0.05124298748297465,0.46945111770102244,0.2490667657902832,0.3153501878610251,0.4216839900167997,0.24386660258031123,0.28702243072950306,0.34064138905138375,0.22460483311652757,0.291731612479429,0.5712699772090081,0.24492059034862748,0.29609302116675057,0.5483210576857501,0.24766507538413046,0.11205593590426588,0.5893741221868126,0.24201226628333666,0.20341387191399551,0.5789463644608339,0.24376747153841716,0.2284327167928062,0.06630872569850155,0.061911878594742425,0.12685836092886382,0.03725009938258606,0.035862529478573525,0.0944148646786753
1.0,0.0,1.0,0.0,5.0,0.0,5.0,0.0,,,,left,2.105773599818349,93.68343470012768,ox19,84.66668130038306,86.66637250036001,93.68343470012768,,False,4.0,['r'],False,0.5,0.5,0.0,0.0,2.0,0.6309297535714574,-0.2614795918367347,wait_cost,1.0,3.0,92.91649090033025,,ox19,1,2022-05-11_14h35.22.606,threat_forest,2021.2.3,60.05461373201944,False,58.0,0.5357142857142857,0.4428571428571428,-0.326530612244898,-0.794515306122449,1,1,0.0,0.744682905472557,-0.2614795918367347,0.0,0.5,0.5,0.0,1.0,1.0,5.0,5.0,0.0,2.0,-1.0,4.0,0,0,1,1,-0.84,0.5587174474818984,0.2465522613612105,0.2805233357823236,0.014078259991121408,0.013880062586743801,0.05124298748297465,0.46945111770102244,0.2490667657902832,0.3153501878610251,0.4216839900167997,0.24386660258031123,0.28702243072950306,0.34064138905138375,0.22460483311652757,0.291731612479429,0.5712699772090081,0.24492059034862748,0.29609302116675057,0.5483210576857501,0.24766507538413046,0.11205593590426588,0.5893741221868126,0.24201226628333666,0.20341387191399551,0.5789463644608339,0.24376747153841716,0.2284327167928062,0.06630872569850155,0.061911878594742425,0.12685836092886382,0.009017859985606445,0.008936538186886446,0.05287754050215743
1.0,0.0,1.0,0.0,6.0,0.0,6.0,0.0,,,,right,1.9604870001785453,99.58488270035014,ox19,99.58488270035014,,95.81672280002384,97.81667540036142,False,3.0,['r'],True,0.4081632653061224,0.5714285714285714,0.2857142857142857,2.0,2.0,0.9885754083994552,-0.452832153269471,wait_cost,0.0,2.0,97.81667540036142,,ox19,1,2022-05-11_14h35.22.606,threat_forest,2021.2.3,60.05461373201944,False,58.0,0.5357142857142857,0.4428571428571428,-0.326530612244898,-0.794515306122449,1,0,0.0,0.6731929118578469,-0.452832153269471,0.0,0.4081632653061224,0.5714285714285714,0.2857142857142857,0.4285714285714285,0.346938775510204,3.346938775510204,3.346938775510204,1.0,2.0,-1.0,3.0,0,0,0,1,-0.84,0.5587174474818984,0.2465522613612105,0.2805233357823236,0.014078259991121408,0.013880062586743801,0.05124298748297465,0.46945111770102244,0.2490667657902832,0.3153501878610251,0.6141280296957852,0.23697479283775796,0.3003947759528632,0.6141224135236055,0.2369760747315472,0.30227780384213604,0.643790129833522,0.2293243985624589,0.2944222767521056,0.5331456314707473,0.24890136711440536,0.25687769660344273,0.5476647619572422,0.24772807046755946,0.31915679711976885,0.5789463644608339,0.24376747153841716,0.2284327167928062,0.06630872569850155,0.061911878594742425,0.12685836092886382,0.000285768328928919,0.0002856866653911003,0.03953232248739068
1.0,0.0,1.0,0.0,7.0,0.0,7.0,0.0,,,,left,2.4940813998691738,105.75032100034878,ox19,101.56698470003904,103.56693350011484,105.75032100034878,,False,2.0,['r'],False,0.5,0.5,0.0,0.0,2.0,0.6309297535714574,-0.5,wait_cost,1.0,1.0,103.56693350011484,,ox19,1,2022-05-11_14h35.22.606,threat_forest,2021.2.3,60.05461373201944,False,58.0,0.5357142857142857,0.4428571428571428,-0.326530612244898,-0.794515306122449,1,1,0.0,0.913920485004768,-0.5,0.0,0.5,0.5,0.0,1.0,1.0,3.0,3.0,0.0,2.0,-1.0,2.0,0,0,1,1,-0.84,0.5587174474818984,0.2465522613612105,0.2805233357823236,0.014078259991121408,0.013880062586743801,0.05124298748297465,0.46945111770102244,0.2490667657902832,0.3153501878610251,0.4216839900167997,0.24386660258031123,0.28702243072950306,0.34064138905138375,0.22460483311652757,0.291731612479429,0.5712699772090081,0.24492059034862748,0.29609302116675057,0.5483210576857501,0.24766507538413046,0.11205593590426588,0.5893741221868126,0.24201226628333666,0.20341387191399551,0.5789463644608339,0.24376747153841716,0.2284327167928062,0.06630872569850155,0.061911878594742425,0.12685836092886382,0.00012179375117302296,0.00012177891745519822,0.039279470542691486
2.0,0.0,2.0,0.0,0.0,0.0,0.0,0.0,111.24257560027765,114.74999140016736,,left,2.397460899781436,115.38415500009432,ox19,115.38415500009432,,111.24257560027765,114.74999140016736,True,4.0,['p'],True,0.24,0.4,0.4,2.0,2.0,0.9801625908629508,0.0188358143999999,succ_gain,0.0,6.0,,,ox19,1,2022-05-11_14h35.22.606,threat_forest,2021.2.3,60.05461373201944,True,65.0,0.3,0.4178571428571428,-1.5000000000000002,-0.9132653061224492,0,0,1.0,0.8744102188964552,0.0188358143999999,0.24,0.24,0.4,0.4,-0.6000000000000001,-0.4400000000000001,3.56,3.56,1.0,2.0,-1.0,4.0,0,1,0,0,0.0188358143999999,0.5587174474818984,0.2465522613612105,0.2805233357823236,0.6523194701730486,0.22679877900620168,0.3558426887639173,0.46945111770102244,0.2490667657902832,0.3153501878610251,0.6141280296957852,0.23697479283775796,0.3003947759528632,0.7139647718135791,0.20421907642276302,0.27435323625363384,0.46512896060671627,0.24878401061163205,0.2965068906493999,0.5056936165674485,0.2499675827303829,0.3817763908270848,0.46996037101770605,0.24909762069060612,0.3468896836782669,0.45624888908416833,0.24808584029363062,0.3719759130361986,0.38174403211433044,0.23601552605942347,0.4600642645039791,0.5914422647006546,0.24163831222641544,0.41185444575410524
2.0,0.0,2.0,0.0,1.0,0.0,1.0,0.0,,,,left,1.4727239003404975,123.43685570033269,ox19,117.80042010033505,119.79998980043456,123.43685570033269,,False,6.0,['p'],False,0.16,0.2,0.2,2.0,2.0,0.8198746470064713,-0.08017472,wait_cost,1.0,5.0,119.79998980043456,,ox19,1,2022-05-11_14h35.22.606,threat_forest,2021.2.3,60.05461373201944,False,65.0,0.3,0.4178571428571428,-1.5000000000000002,-0.9132653061224492,0,0,0.0,0.3871136795450912,-0.08017472,0.16,0.16,0.2,0.2,-0.8000000000000003,-0.5600000000000003,5.44,5.44,0.0,2.0,1.0,6.0,0,1,0,0,-0.08017472,0.36763879418749457,0.23248051119585955,0.3568627013989232,0.6523194701730486,0.22679877900620168,0.3558426887639173,0.46945111770102244,0.2490667657902832,0.3153501878610251,0.4216839900167997,0.24386660258031123,0.28702243072950306,0.5317424226309675,0.24899241860551702,0.312521453260568,0.27028010196589636,0.19722876844720102,0.29098402749967367,0.5003465528288814,0.2499998799011368,0.38555974795845316,0.4332721240840419,0.24554739057574457,0.2749988341313312,0.45624888908416833,0.24808584029363062,0.3719759130361986,0.23093433553768616,0.17760366820745355,0.3482735228481206,0.1945604764294432,0.15670669744099128,0.2808348677574929
2.0,0.0,2.0,0.0,2.0,0.0,2.0,0.0,,,,left,1.1934930002316833,130.1008690004237,ox19,117.80042010033505,119.79998980043456,130.1008690004237,,False,5.0,['p'],False,0.16,0.2,0.2,2.0,2.0,0.8198746470064713,0.0009920000000001,wait_cost,1.0,4.0,126.93354390002789,,ox19,1,2022-05-11_14h35.22.606,threat_forest,2021.2.3,60.05461373201944,False,65.0,0.3,0.4178571428571428,-1.5000000000000002,-0.9132653061224492,0,0,0.0,0.1768843018710306,0.0009920000000001,0.16,0.16,0.2,0.2,-0.8000000000000003,-0.5600000000000003,4.44,4.44,0.0,2.0,-1.0,5.0,0,1,0,0,0.0009920000000001,0.5587174474818984,0.2465522613612105,0.2805233357823236,0.6523194701730486,0.22679877900620168,0.3558426887639173,0.46945111770102244,0.2490667657902832,0.3153501878610251,0.4216839900167997,0.24386660258031123,0.28702243072950306,0.5317424226309675,0.24899241860551702,0.312521453260568,0.27028010196589636,0.19722876844720102,0.29098402749967367,0.5003465528288814,0.2499998799011368,0.38555974795845316,0.4332721240840419,0.24554739057574457,0.2749988341313312,0.45624888908416833,0.24808584029363062,0.3719759130361986,0.23093433553768616,0.17760366820745355,0.3482735228481206,0.5118055015422669,0.24986063013333554,0.4245385872842101
2.0,0.0,2.0,0.0,3.0,0.0,3.0,0.0,,,,left,1.427751800045371,135.0841382001527,ox19,117.80042010033505,119.79998980043456,135.0841382001527,,False,4.0,['p'],False,0.16,0.2,0.2,2.0,2.0,0.8198746470064713,0.0127999999999998,wait_cost,1.0,3.0,133.31693620001897,,ox19,1,2022-05-11_14h35.22.606,threat_forest,2021.2.3,60.05461373201944,False,65.0,0.3,0.4178571428571428,-1.5000000000000002,-0.9132653061224492,0,0,0.0,0.3561010393187353,0.0127999999999998,0.16,0.16,0.2,0.2,-0.8000000000000003,-0.5600000000000003,3.4399999999999995,3.4399999999999995,0.0,2.0,-1.0,4.0,0,1,0,0,0.0127999999999998,0.5587174474818984,0.2465522613612105,0.2805233357823236,0.6523194701730486,0.22679877900620168,0.3558426887639173,0.46945111770102244,0.2490667657902832,0.3153501878610251,0.4216839900167997,0.24386660258031123,0.28702243072950306,0.5317424226309675,0.24899241860551702,0.312521453260568,0.27028010196589636,0.19722876844720102,0.29098402749967367,0.5003465528288814,0.2499998799011368,0.38555974795845316,0.4332721240840419,0.24554739057574457,0.2749988341313312,0.45624888908416833,0.24808584029363062,0.3719759130361986,0.23093433553768616,0.17760366820745355,0.3482735228481206,0.5648267779115169,0.24579748886561087,0.41827059090167495
2.0,0.0,2.0,0.0,4.0,0.0,4.0,0.0,,,,right,1.7251201998442411,141.3010802003555,ox19,117.80042010033505,119.79998980043456,141.3010802003555,,True,3.0,['p'],False,0.16,0.2,0.2,2.0,2.0,0.8198746470064713,0.0679999999999999,unsucc_cost,1.0,1.0,138.53377120010555,,ox19,1,2022-05-11_14h35.22.606,threat_forest,2021.2.3,60.05461373201944,True,65.0,0.3,0.4178571428571428,-1.5000000000000002,-0.9132653061224492,0,0,1.0,0.5452967291248354,0.0679999999999999,0.16,0.16,0.2,0.2,-0.8000000000000003,-0.5600000000000003,2.4399999999999995,2.4399999999999995,0.0,2.0,-1.0,3.0,0,1,0,0,0.0679999999999999,0.5587174474818984,0.2465522613612105,0.2805233357823236,0.6523194701730486,0.22679877900620168,0.3558426887639173,0.46945111770102244,0.2490667657902832,0.3153501878610251,0.4216839900167997,0.24386660258031123,0.28702243072950306,0.5317424226309675,0.24899241860551702,0.312521453260568,0.27028010196589636,0.19722876844720102,0.29098402749967367,0.5003465528288814,0.2499998799011368,0.38555974795845316,0.4332721240840419,0.24554739057574457,0.2749988341313312,0.45624888908416833,0.24808584029363062,0.3719759130361986,0.23093433553768616,0.17760366820745355,0.3482735228481206,0.7788626003330053,0.1722356501355145,0.3047905741679515
2.0,0.0,2.0,0.0,5.0,0.0,5.0,0.0,,,,left,1.1610855995677412,147.60121680004522,ox19,147.60121680004522,,143.05075300019234,145.05047340039164,True,1.0,['p'],True,0.24,0.4,0.4,2.0,2.0,0.9801625908629508,0.24,figh_cost,0.0,0.0,145.05047340039164,,ox19,1,2022-05-11_14h35.22.606,threat_forest,2021.2.3,60.05461373201944,True,65.0,0.3,0.4178571428571428,-1.5000000000000002,-0.9132653061224492,0,0,1.0,0.1493554291690737,0.24,1.0,0.24,0.4,0.4,-0.6000000000000001,-0.4400000000000001,0.5599999999999998,1.0,1.0,2.0,-1.0,1.0,1,1,0,0,0.625,0.5587174474818984,0.2465522613612105,0.2805233357823236,0.6523194701730486,0.22679877900620168,0.3558426887639173,0.948716011137856,0.04865394134853164,0.12421676542680053,0.6141280296957852,0.23697479283775796,0.3003947759528632,0.7139647718135791,0.20421907642276302,0.27435323625363384,0.46512896060671627,0.24878401061163205,0.2965068906493999,0.5056936165674485,0.2499675827303829,0.3817763908270848,0.46996037101770605,0.24909762069060612,0.3468896836782669,0.45624888908416833,0.24808584029363062,0.3719759130361986,0.9982844583276018,0.00171259858916837,0.011646785634912431,0.9875021122456511,0.012341690556028654,0.05813049168584013
3.0,0.0,3.0,0.0,0.0,0.0,0.0,0.0,153.97764010028914,157.48047910025343,,left,1.7239247998222709,160.086870000232,ox19,153.97764010028914,157.48047910025343,160.086870000232,,False,5.0,['p'],False,0.27,0.3,0.1,1.0,1.0,0.7963326591781347,-0.0040169508903756,wait_cost,1.0,4.0,,,ox19,1,2022-05-11_14h35.22.606,threat_forest,2021.2.3,60.05461373201944,False,16.0,0.4,0.35,-1.1033333333333333,-1.3016666666666667,1,0,0.0,0.544603551697489,-0.0040169508903756,0.27,0.27,0.3,0.1,-0.3999999999999999,-0.29,4.71,4.71,0.0,1.0,-1.0,5.0,0,1,0,1,-0.0040169508903756,0.5587174474818984,0.2465522613612105,0.2805233357823236,0.6523194701730486,0.22679877900620168,0.3558426887639173,0.46945111770102244,0.2490667657902832,0.3153501878610251,0.4216839900167997,0.24386660258031123,0.28702243072950306,0.43373011663092803,0.24560830255824959,0.3096365742372079,0.3620548829030659,0.2309711446691131,0.2945986846789734,0.511039378160651,0.24987813212982618,0.37129796316233055,0.4838244704688122,0.24973835224438568,0.3598642611683056,0.5789463644608339,0.24376747153841716,0.2284327167928062,0.44724254916105594,0.2472166513809764,0.48150138623104277,0.48916304873156596,0.24988256048720553,0.42457241809876156
3.0,0.0,3.0,0.0,1.0,0.0,1.0,0.0,,,,left,1.2598843001760542,164.93532650033012,ox19,164.93532650033012,,161.83440440008417,163.83414790034294,True,4.0,['p'],True,0.4166666666666667,0.5,0.1666666666666666,1.0,1.0,0.9358932809493992,0.0652040051667182,succ_gain,0.0,5.0,163.83414790034294,,ox19,1,2022-05-11_14h35.22.606,threat_forest,2021.2.3,60.05461373201944,True,16.0,0.4,0.35,-1.1033333333333333,-1.3016666666666667,1,1,1.0,0.2310198914900898,0.0652040051667182,0.4166666666666667,0.4166666666666667,0.5,0.1666666666666666,2.220446049250313e-16,0.0833333333333334,4.083333333333334,4.083333333333334,1.0,1.0,-1.0,4.0,0,1,1,1,0.0652040051667182,0.5587174474818984,0.2465522613612105,0.2805233357823236,0.6523194701730486,0.22679877900620168,0.3558426887639173,0.46945111770102244,0.2490667657902832,0.3153501878610251,0.6141280296957852,0.23697479283775796,0.3003947759528632,0.4989694231669362,0.24999893791139122,0.31337948720253883,0.5712699772090081,0.24492059034862748,0.29609302116675057,0.5217221104714878,0.2495281499166645,0.33030032556412436,0.5515643617767281,0.24734111659455874,0.3113211240040883,0.5789463644608339,0.24376747153841716,0.2284327167928062,0.7520945663031354,0.18644832964043406,0.36520075813301084,0.7700309004015982,0.17708331282830217,0.31226881088679426
3.0,0.0,3.0,0.0,2.0,0.0,2.0,0.0,,,,left,1.954171400051564,171.0845355000347,ox19,171.0845355000347,,161.83440440008417,163.83414790034294,True,5.0,['p'],True,0.4166666666666667,0.5,0.1666666666666666,1.0,1.0,0.9358932809493992,0.0814839621913579,unsucc_cost,0.0,3.0,168.21782110026106,,ox19,1,2022-05-11_14h35.22.606,threat_forest,2021.2.3,60.05461373201944,True,16.0,0.4,0.35,-1.1033333333333333,-1.3016666666666667,1,1,1.0,0.6699662673025814,0.0814839621913579,0.4166666666666667,0.4166666666666667,0.5,0.1666666666666666,2.220446049250313e-16,0.0833333333333334,5.083333333333334,5.083333333333334,1.0,1.0,1.0,5.0,0,1,1,1,0.0814839621913579,0.36763879418749457,0.23248051119585955,0.3568627013989232,0.6523194701730486,0.22679877900620168,0.3558426887639173,0.46945111770102244,0.2490667657902832,0.3153501878610251,0.6141280296957852,0.23697479283775796,0.3003947759528632,0.4989694231669362,0.24999893791139122,0.31337948720253883,0.5712699772090081,0.24492059034862748,0.29609302116675057,0.5217221104714878,0.2495281499166645,0.33030032556412436,0.5515643617767281,0.24734111659455874,0.3113211240040883,0.5789463644608339,0.24376747153841716,0.2284327167928062,0.7520945663031354,0.18644832964043406,0.36520075813301084,0.8180071755070373,0.14887143632603642,0.2687478185783593
3.0,0.0,3.0,0.0,3.0,0.0,3.0,0.0,,,,left,1.505747300107032,176.15208480041474,ox19,173.0679170000367,175.06762640038505,176.15208480041474,,False,3.0,['p'],False,0.27,0.3,0.1,1.0,1.0,0.7963326591781347,0.0537938518518518,wait_cost,1.0,2.0,175.06762640038505,,ox19,1,2022-05-11_14h35.22.606,threat_forest,2021.2.3,60.05461373201944,False,16.0,0.4,0.35,-1.1033333333333333,-1.3016666666666667,1,0,0.0,0.4092893198848191,0.0537938518518518,0.27,0.27,0.3,0.1,-0.3999999999999999,-0.29,2.71,2.71,0.0,1.0,-1.0,3.0,0,1,0,1,0.0537938518518518,0.5587174474818984,0.2465522613612105,0.2805233357823236,0.6523194701730486,0.22679877900620168,0.3558426887639173,0.46945111770102244,0.2490667657902832,0.3153501878610251,0.4216839900167997,0.24386660258031123,0.28702243072950306,0.43373011663092803,0.24560830255824959,0.3096365742372079,0.3620548829030659,0.2309711446691131,0.2945986846789734,0.511039378160651,0.24987813212982618,0.37129796316233055,0.4838244704688122,0.24973835224438568,0.3598642611683056,0.5789463644608339,0.24376747153841716,0.2284327167928062,0.44724254916105594,0.2472166513809764,0.48150138623104277,0.7314784294165023,0.19641773671486937,0.34209501947620635
3.0,0.0,3.0,0.0,4.0,0.0,4.0,0.0,,,,right,1.428410999942571,181.06801190041008,ox19,173.0679170000367,175.06762640038505,181.06801190041008,,True,2.0,['p'],False,0.27,0.3,0.1,1.0,1.0,0.7963326591781347,0.0107463333333333,succ_gain,1.0,3.0,179.68433810025454,,ox19,1,2022-05-11_14h35.22.606,threat_forest,2021.2.3,60.05461373201944,True,16.0,0.4,0.35,-1.1033333333333333,-1.3016666666666667,1,0,1.0,0.3565626375924104,0.0107463333333333,0.27,0.27,0.3,0.1,-0.3999999999999999,-0.29,1.71,1.71,0.0,1.0,-1.0,2.0,0,1,0,1,0.0107463333333333,0.5587174474818984,0.2465522613612105,0.2805233357823236,0.6523194701730486,0.22679877900620168,0.3558426887639173,0.46945111770102244,0.2490667657902832,0.3153501878610251,0.4216839900167997,0.24386660258031123,0.28702243072950306,0.43373011663092803,0.24560830255824959,0.3096365742372079,0.3620548829030659,0.2309711446691131,0.2945986846789734,0.511039378160651,0.24987813212982618,0.37129796316233055,0.4838244704688122,0.24973835224438568,0.3598642611683056,0.5789463644608339,0.24376747153841716,0.2284327167928062,0.44724254916105594,0.2472166513809764,0.48150138623104277,0.555676893980727,0.24690008347665887,0.4199715061734006
3.0,0.0,3.0,0.0,5.0,0.0,5.0,0.0,,,,right,1.7769867000170052,188.25167390005663,ox19,173.0679170000367,175.06762640038505,188.25167390005663,,True,3.0,['p'],False,0.27,0.3,0.1,1.0,1.0,0.7963326591781347,0.1062999999999999,unsucc_cost,1.0,1.0,184.5177845000289,,ox19,1,2022-05-11_14h35.22.606,threat_forest,2021.2.3,60.05461373201944,True,16.0,0.4,0.35,-1.1033333333333333,-1.3016666666666667,1,0,1.0,0.5749190646295953,0.1062999999999999,0.27,0.27,0.3,0.1,-0.3999999999999999,-0.29,2.71,2.71,0.0,1.0,1.0,3.0,0,1,0,1,0.1062999999999999,0.36763879418749457,0.23248051119585955,0.3568627013989232,0.6523194701730486,0.22679877900620168,0.3558426887639173,0.46945111770102244,0.2490667657902832,0.3153501878610251,0.4216839900167997,0.24386660258031123,0.28702243072950306,0.43373011663092803,0.24560830255824959,0.3096365742372079,0.3620548829030659,0.2309711446691131,0.2945986846789734,0.511039378160651,0.24987813212982618,0.37129796316233055,0.4838244704688122,0.24973835224438568,0.3598642611683056,0.5789463644608339,0.24376747153841716,0.2284327167928062,0.44724254916105594,0.2472166513809764,0.48150138623104277,0.8756312890353724,0.10890113469762451,0.2070877163304201
3.0,0.0,3.0,0.0,6.0,0.0,6.0,0.0,,,,left,0.8591253999620676,194.36808430030945,ox19,194.36808430030945,,190.05168260028583,192.05124360043555,True,1.0,['p'],True,0.4166666666666667,0.5,0.1666666666666666,1.0,1.0,0.9358932809493992,0.4166666666666667,figh_cost,0.0,0.0,192.05124360043555,,ox19,1,2022-05-11_14h35.22.606,threat_forest,2021.2.3,60.05461373201944,True,16.0,0.4,0.35,-1.1033333333333333,-1.3016666666666667,1,1,1.0,-0.1518403839946386,0.4166666666666667,1.0,0.4166666666666667,0.5,0.1666666666666666,2.220446049250313e-16,0.0833333333333334,1.0833333333333337,1.0833333333333337,1.0,1.0,-1.0,1.0,1,1,1,1,0.625,0.5587174474818984,0.2465522613612105,0.2805233357823236,0.6523194701730486,0.22679877900620168,0.3558426887639173,0.948716011137856,0.04865394134853164,0.12421676542680053,0.6141280296957852,0.23697479283775796,0.3003947759528632,0.4989694231669362,0.24999893791139122,0.31337948720253883,0.5712699772090081,0.24492059034862748,0.29609302116675057,0.5217221104714878,0.2495281499166645,0.33030032556412436,0.5515643617767281,0.24734111659455874,0.3113211240040883,0.5789463644608339,0.24376747153841716,0.2284327167928062,0.9982844583276018,0.00171259858916837,0.011646785634912431,0.9994817750671009,0.0005179563758180186,0.039890632870613875
4.0,0.0,4.0,0.0,0.0,0.0,0.0,0.0,200.82869320036843,204.33479320025072,,right,1.0722444001585243,207.3523967000656,ox19,200.82869320036843,204.33479320025072,207.3523967000656,,True,4.0,['p'],False,0.4166666666666667,0.5,0.1666666666666666,1.0,2.0,0.9358932809493992,0.0524876732571487,succ_gain,1.0,6.0,,,ox19,1,2022-05-11_14h35.22.606,threat_forest,2021.2.3,60.05461373201944,True,22.0,0.4166666666666666,0.4083333333333333,-0.7129629629629629,-0.908148148148148,1,1,1.0,0.0697540218864327,0.0524876732571487,0.4166666666666667,0.4166666666666667,0.5,0.1666666666666666,0.5000000000000002,0.5000000000000002,4.5,4.5,0.0,2.0,-1.0,4.0,0,1,1,1,0.0524876732571487,0.5587174474818984,0.2465522613612105,0.2805233357823236,0.6523194701730486,0.22679877900620168,0.3558426887639173,0.46945111770102244,0.2490667657902832,0.3153501878610251,0.4216839900167997,0.24386660258031123,0.28702243072950306,0.4989694231669362,0.24999893791139122,0.31337948720253883,0.5712699772090081,0.24492059034862748,0.29609302116675057,0.5350465019538959,0.24877174270079555,0.24169322569834506,0.5515643617767281,0.24734111659455874,0.3113211240040883,0.5789463644608339,0.24376747153841716,0.2284327167928062,0.7520945663031354,0.18644832964043406,0.36520075813301084,0.726813387961597,0.19855568704138213,0.3453931240779511
4.0,0.0,4.0,0.0,1.0,0.0,1.0,0.0,,,,right,1.2897513997741044,213.1056050001644,ox19,213.1056050001644,,208.451741500292,210.451394900214,False,6.0,['p'],True,0.2962962962962963,0.3333333333333333,0.1111111111111111,1.0,2.0,0.8325252476189534,-0.0729659654773814,wait_cost,0.0,5.0,210.451394900214,,ox19,1,2022-05-11_14h35.22.606,threat_forest,2021.2.3,60.05461373201944,False,22.0,0.4166666666666666,0.4083333333333333,-0.7129629629629629,-0.908148148148148,0,0,0.0,0.2544494864485689,-0.0729659654773814,0.2962962962962963,0.2962962962962963,0.3333333333333333,0.1111111111111111,-2.220446049250313e-16,0.0740740740740739,6.074074074074074,6.074074074074074,1.0,2.0,1.0,6.0,0,1,0,0,-0.0729659654773814,0.36763879418749457,0.23248051119585955,0.3568627013989232,0.6523194701730486,0.22679877900620168,0.3558426887639173,0.46945111770102244,0.2490667657902832,0.3153501878610251,0.6141280296957852,0.23697479283775796,0.3003947759528632,0.44450607044979407,0.24692042378307677,0.3107551265991064,0.39551026365177017,0.23908189499787738,0.2954675500402202,0.5217221104714878,0.2495281499166645,0.33030032556412436,0.4959981916266083,0.24998398552974266,0.36483824454121283,0.45624888908416833,0.24808584029363062,0.3719759130361986,0.5062849705582695,0.2499604991450817,0.486752662047632,0.21580594576303835,0.1692337395363589,0.30015968305774954
4.0,0.0,4.0,0.0,2.0,0.0,2.0,0.0,,,,left,1.8093536999076605,219.1353399003856,ox19,219.1353399003856,,208.451741500292,210.451394900214,True,5.0,['p'],True,0.2962962962962963,0.3333333333333333,0.1111111111111111,1.0,2.0,0.8325252476189534,0.0111445756795599,figh_cost,0.0,2.0,216.41823710035533,,ox19,1,2022-05-11_14h35.22.606,threat_forest,2021.2.3,60.05461373201944,True,22.0,0.4166666666666666,0.4083333333333333,-0.7129629629629629,-0.908148148148148,0,0,1.0,0.5929697096381723,0.0111445756795599,0.2962962962962963,0.2962962962962963,0.3333333333333333,0.1111111111111111,-2.220446049250313e-16,0.0740740740740739,5.074074074074074,5.074074074074074,1.0,2.0,-1.0,5.0,0,1,0,0,0.0111445756795599,0.5587174474818984,0.2465522613612105,0.2805233357823236,0.6523194701730486,0.22679877900620168,0.3558426887639173,0.46945111770102244,0.2490667657902832,0.3153501878610251,0.6141280296957852,0.23697479283775796,0.3003947759528632,0.44450607044979407,0.24692042378307677,0.3107551265991064,0.39551026365177017,0.23908189499787738,0.2954675500402202,0.5217221104714878,0.2495281499166645,0.33030032556412436,0.4959981916266083,0.24998398552974266,0.36483824454121283,0.45624888908416833,0.24808584029363062,0.3719759130361986,0.5062849705582695,0.2499604991450817,0.486752662047632,0.55745437109012,0.24669899524263877,0.4196612978295705
4.0,0.0,4.0,0.0,3.0,0.0,3.0,0.0,,,,right,0.736252199858427,225.8201532000676,ox19,220.9684303002432,222.9682494001463,225.8201532000676,,True,2.0,['p'],False,0.4166666666666667,0.5,0.1666666666666666,1.0,2.0,0.9358932809493992,0.0592387386958288,figh_cost,1.0,0.0,222.9682494001463,,ox19,1,2022-05-11_14h35.22.606,threat_forest,2021.2.3,60.05461373201944,True,22.0,0.4166666666666666,0.4083333333333333,-0.7129629629629629,-0.908148148148148,1,1,1.0,-0.3061825560976437,0.0592387386958288,0.4166666666666667,0.4166666666666667,0.5,0.1666666666666666,0.5000000000000002,0.5000000000000002,2.5,2.5,0.0,2.0,-1.0,2.0,0,1,1,1,0.0592387386958288,0.5587174474818984,0.2465522613612105,0.2805233357823236,0.6523194701730486,0.22679877900620168,0.3558426887639173,0.46945111770102244,0.2490667657902832,0.3153501878610251,0.4216839900167997,0.24386660258031123,0.28702243072950306,0.4989694231669362,0.24999893791139122,0.31337948720253883,0.5712699772090081,0.24492059034862748,0.29609302116675057,0.5350465019538959,0.24877174270079555,0.24169322569834506,0.5515643617767281,0.24734111659455874,0.3113211240040883,0.5789463644608339,0.24376747153841716,0.2284327167928062,0.7520945663031354,0.18644832964043406,0.36520075813301084,0.7503735659613123,0.1873130774678164,0.3280497359223069
5.0,0.0,5.0,0.0,0.0,0.0,0.0,0.0,230.17698039999232,233.68526870012283,,right,1.236562700010836,237.0021025002934,ox19,230.17698039999232,233.68526870012283,237.0021025002934,,True,4.0,['p'],False,0.48,0.6,0.2,1.0,1.0,0.9455672104350704,0.0573042085319639,unsucc_cost,1.0,2.0,,,ox19,1,2022-05-11_14h35.22.606,threat_forest,2021.2.3,60.05461373201944,True,4.0,0.4666666666666667,0.4416666666666666,-0.9911111111111112,-0.8520370370370371,1,1,1.0,0.2123355143450471,0.0573042085319639,0.48,0.48,0.6,0.2,0.1999999999999998,0.2399999999999997,4.24,4.24,0.0,1.0,-1.0,4.0,0,1,1,1,0.0573042085319639,0.5587174474818984,0.2465522613612105,0.2805233357823236,0.6523194701730486,0.22679877900620168,0.3558426887639173,0.46945111770102244,0.2490667657902832,0.3153501878610251,0.4216839900167997,0.24386660258031123,0.28702243072950306,0.5317424226309675,0.24899241860551702,0.312521453260568,0.671235860086196,0.22067828022054073,0.2934960600111105,0.5270566458486259,0.24926793791542204,0.2998185555642472,0.5803782102131915,0.24353934332292396,0.23433661836921527,0.5789463644608339,0.24376747153841716,0.2284327167928062,0.84297335527019,0.1323692775747081,0.2617022980464616,0.7437631136384885,0.1905795444292694,0.33308874435174396
5.0,0.0,5.0,0.0,1.0,0.0,1.0,0.0,,,,right,1.94139500008896,241.7043868000619,ox19,241.7043868000619,,238.26887610042468,240.26859039999545,False,2.0,['p'],True,0.2962962962962963,0.3333333333333333,0.1111111111111111,1.0,1.0,0.8325252476189534,-0.0048282126636286,wait_cost,0.0,1.0,240.26859039999545,,ox19,1,2022-05-11_14h35.22.606,threat_forest,2021.2.3,60.05461373201944,False,4.0,0.4666666666666667,0.4416666666666666,-0.9911111111111112,-0.8520370370370371,0,0,0.0,0.6634067868774876,-0.0048282126636286,0.2962962962962963,0.2962962962962963,0.3333333333333333,0.1111111111111111,-0.3333333333333335,-0.2222222222222223,1.7777777777777777,1.7777777777777777,1.0,1.0,-1.0,2.0,0,1,0,0,-0.0048282126636286,0.5587174474818984,0.2465522613612105,0.2805233357823236,0.6523194701730486,0.22679877900620168,0.3558426887639173,0.46945111770102244,0.2490667657902832,0.3153501878610251,0.6141280296957852,0.23697479283775796,0.3003947759528632,0.44450607044979407,0.24692042378307677,0.3107551265991064,0.39551026365177017,0.23908189499787738,0.2954675500402202,0.5128207981146077,0.24983562713570454,0.3663188405681552,0.4959981916266083,0.24998398552974266,0.36483824454121283,0.45624888908416833,0.24808584029363062,0.3719759130361986,0.5062849705582695,0.2499604991450817,0.486752662047632,0.485497563637412,0.2497896793395491,0.4244291351905002
5.0,0.0,5.0,0.0,2.0,0.0,2.0,0.0,,,,right,1.087898500263691,248.85286070033908,ox19,248.85286070033908,,238.26887610042468,240.26859039999545,False,1.0,['p'],True,0.2962962962962963,0.3333333333333333,0.1111111111111111,1.0,1.0,0.8325252476189534,0.0593781448112584,wait_cost,0.0,0.0,245.6687174001709,,ox19,1,2022-05-11_14h35.22.606,threat_forest,2021.2.3,60.05461373201944,False,4.0,0.4666666666666667,0.4416666666666666,-0.9911111111111112,-0.8520370370370371,0,0,0.0,0.0842478538831361,0.0593781448112584,1.0,0.2962962962962963,0.3333333333333333,0.1111111111111111,-0.3333333333333335,-0.2222222222222223,0.7777777777777777,1.0,1.0,1.0,-1.0,1.0,1,1,0,0,0.625,0.5587174474818984,0.2465522613612105,0.2805233357823236,0.6523194701730486,0.22679877900620168,0.3558426887639173,0.948716011137856,0.04865394134853164,0.12421676542680053,0.6141280296957852,0.23697479283775796,0.3003947759528632,0.44450607044979407,0.24692042378307677,0.3107551265991064,0.39551026365177017,0.23908189499787738,0.2954675500402202,0.5128207981146077,0.24983562713570454,0.3663188405681552,0.4959981916266083,0.24998398552974266,0.36483824454121283,0.45624888908416833,0.24808584029363062,0.3719759130361986,0.9982844583276018,0.00171259858916837,0.011646785634912431,0.7508455061662928,0.18707653203617636,0.3276848296066929
6.0,0.0,6.0,0.0,0.0,0.0,0.0,0.0,254.1942816004157,257.70218520006165,,left,1.863594000227749,260.05364440009,ox19,254.1942816004157,257.70218520006165,260.05364440009,,False,5.0,['p'],False,0.21875,0.25,0.125,1.0,1.0,0.7908280489481783,-0.003347083026002,wait_cost,1.0,4.0,,,ox19,1,2022-05-11_14h35.22.606,threat_forest,2021.2.3,60.05461373201944,False,61.0,0.325,0.3958333333333333,-1.354375,-1.1727430555555558,0,0,0.0,0.6225068815025153,-0.003347083026002,0.21875,0.21875,0.25,0.125,-0.625,-0.46875,4.53125,4.53125,0.0,1.0,-1.0,5.0,0,1,0,0,-0.003347083026002,0.5587174474818984,0.2465522613612105,0.2805233357823236,0.6523194701730486,0.22679877900620168,0.3558426887639173,0.46945111770102244,0.2490667657902832,0.3153501878610251,0.4216839900167997,0.24386660258031123,0.28702243072950306,0.45804859556133837,0.24824007966562384,0.3118801020788001,0.3143567018842449,0.21553656586470488,0.2929452530795536,0.5050252797395401,0.24997474656353935,0.38261557700431936,0.4601666821875348,0.2484133067920512,0.3330325797914089,0.45624888908416833,0.24808584029363062,0.3719759130361986,0.337682523092644,0.22365303669042996,0.43640448195135406,0.49219057646149655,0.24993901290399625,0.42465950430150823
6.0,0.0,6.0,0.0,1.0,0.0,1.0,0.0,,,,right,2.6774810003116727,264.88638000003994,ox19,254.1942816004157,257.70218520006165,264.88638000003994,,True,4.0,['p'],False,0.21875,0.25,0.125,1.0,1.0,0.7908280489481783,0.0034652103126096,succ_gain,1.0,5.0,263.93566670035943,,ox19,1,2022-05-11_14h35.22.606,threat_forest,2021.2.3,60.05461373201944,True,61.0,0.325,0.3958333333333333,-1.354375,-1.1727430555555558,0,0,1.0,0.984876427259192,0.0034652103126096,0.21875,0.21875,0.25,0.125,-0.625,-0.46875,3.53125,3.53125,0.0,1.0,-1.0,4.0,0,1,0,0,0.0034652103126096,0.5587174474818984,0.2465522613612105,0.2805233357823236,0.6523194701730486,0.22679877900620168,0.3558426887639173,0.46945111770102244,0.2490667657902832,0.3153501878610251,0.4216839900167997,0.24386660258031123,0.28702243072950306,0.45804859556133837,0.24824007966562384,0.3118801020788001,0.3143567018842449,0.21553656586470488,0.2929452530795536,0.5050252797395401,0.24997474656353935,0.38261557700431936,0.4601666821875348,0.2484133067920512,0.3330325797914089,0.45624888908416833,0.24808584029363062,0.3719759130361986,0.337682523092644,0.22365303669042996,0.43640448195135406,0.522973326465765,0.2494722262710974,0.42393941687809855
6.0,0.0,6.0,0.0,2.0,0.0,2.0,0.0,,,,right,2.233612200245261,270.60270910011604,ox19,270.60270910011604,,267.5859530000016,269.5857549002394,False,5.0,['p'],True,0.32,0.4,0.2,1.0,1.0,0.9455672104350704,0.0597534657871093,wait_cost,0.0,4.0,269.5857549002394,,ox19,1,2022-05-11_14h35.22.606,threat_forest,2021.2.3,60.05461373201944,False,61.0,0.325,0.3958333333333333,-1.354375,-1.1727430555555558,0,0,0.0,0.8036200957151881,0.0597534657871093,0.32,0.32,0.4,0.2,-0.3999999999999999,-0.24,4.76,4.76,1.0,1.0,1.0,5.0,0,1,0,0,0.0597534657871093,0.36763879418749457,0.23248051119585955,0.3568627013989232,0.6523194701730486,0.22679877900620168,0.3558426887639173,0.46945111770102244,0.2490667657902832,0.3153501878610251,0.6141280296957852,0.23697479283775796,0.3003947759528632,0.5317424226309675,0.24899241860551702,0.312521453260568,0.46512896060671627,0.24878401061163205,0.2965068906493999,0.511039378160651,0.24987813212982618,0.37129796316233055,0.5069761614388528,0.24995133317157905,0.364177046339365,0.45624888908416833,0.24808584029363062,0.3719759130361986,0.5594027368386726,0.2464713148560754,0.48007493403510265,0.752113137599315,0.18643896584982889,0.32670128946217547
6.0,0.0,6.0,0.0,3.0,0.0,3.0,0.0,,,,right,2.823028600309044,276.4878773000092,ox19,272.85284110018983,274.8525086003356,276.4878773000092,,True,4.0,['p'],False,0.21875,0.25,0.125,1.0,1.0,0.7908280489481783,-0.0230494493331908,succ_gain,1.0,5.0,274.8525086003356,,ox19,1,2022-05-11_14h35.22.606,threat_forest,2021.2.3,60.05461373201944,True,61.0,0.325,0.3958333333333333,-1.354375,-1.1727430555555558,0,0,1.0,1.0378102803957474,-0.0230494493331908,0.21875,0.21875,0.25,0.125,-0.625,-0.46875,3.53125,3.53125,0.0,1.0,-1.0,4.0,0,1,0,0,-0.0230494493331908,0.5587174474818984,0.2465522613612105,0.2805233357823236,0.6523194701730486,0.22679877900620168,0.3558426887639173,0.46945111770102244,0.2490667657902832,0.3153501878610251,0.4216839900167997,0.24386660258031123,0.28702243072950306,0.45804859556133837,0.24824007966562384,0.3118801020788001,0.3143567018842449,0.21553656586470488,0.2929452530795536,0.5050252797395401,0.24997474656353935,0.38261557700431936,0.4601666821875348,0.2484133067920512,0.3330325797914089,0.45624888908416833,0.24808584029363062,0.3719759130361986,0.337682523092644,0.22365303669042996,0.43640448195135406,0.4043068329205212,0.24084281777429897,0.4106272779005532
6.0,0.0,6.0,0.0,4.0,0.0,4.0,0.0,,,,left,1.458066999912262,283.41960340039805,ox19,272.85284110018983,274.8525086003356,283.41960340039805,,False,5.0,['p'],False,0.21875,0.25,0.125,1.0,1.0,0.7908280489481783,-0.4672050903320312,wait_cost,1.0,4.0,281.3358615003526,,ox19,1,2022-05-11_14h35.22.606,threat_forest,2021.2.3,60.05461373201944,False,61.0,0.325,0.3958333333333333,-1.354375,-1.1727430555555558,0,0,0.0,0.377111585831237,-0.4672050903320312,0.0,0.21875,0.25,0.125,-0.625,-0.46875,4.53125,4.53125,0.0,1.0,1.0,5.0,0,0,0,0,-0.84,0.36763879418749457,0.23248051119585955,0.3568627013989232,0.014078259991121408,0.013880062586743801,0.05124298748297465,0.46945111770102244,0.2490667657902832,0.3153501878610251,0.4216839900167997,0.24386660258031123,0.28702243072950306,0.45804859556133837,0.24824007966562384,0.3118801020788001,0.3143567018842449,0.21553656586470488,0.2929452530795536,0.5050252797395401,0.24997474656353935,0.38261557700431936,0.4601666821875348,0.2484133067920512,0.3330325797914089,0.45624888908416833,0.24808584029363062,0.3719759130361986,0.06630872569850155,0.061911878594742425,0.12685836092886382,0.00022037190326219323,0.00022032333948644592,0.03943148988932788
6.0,0.0,6.0,0.0,5.0,0.0,5.0,0.0,,,,left,0.9953040000982584,289.119732900057,ox19,272.85284110018983,274.8525086003356,289.119732900057,,False,4.0,['p'],False,0.21875,0.25,0.125,1.0,1.0,0.7908280489481783,-0.554189453125,wait_cost,1.0,3.0,286.90266760019585,,ox19,1,2022-05-11_14h35.22.606,threat_forest,2021.2.3,60.05461373201944,False,61.0,0.325,0.3958333333333333,-1.354375,-1.1727430555555558,0,0,0.0,-0.0047070607506956,-0.554189453125,0.0,0.21875,0.25,0.125,-0.625,-0.46875,3.53125,3.53125,0.0,1.0,-1.0,4.0,0,0,0,0,-0.84,0.5587174474818984,0.2465522613612105,0.2805233357823236,0.014078259991121408,0.013880062586743801,0.05124298748297465,0.46945111770102244,0.2490667657902832,0.3153501878610251,0.4216839900167997,0.24386660258031123,0.28702243072950306,0.45804859556133837,0.24824007966562384,0.3118801020788001,0.3143567018842449,0.21553656586470488,0.2929452530795536,0.5050252797395401,0.24997474656353935,0.38261557700431936,0.4601666821875348,0.2484133067920512,0.3330325797914089,0.45624888908416833,0.24808584029363062,0.3719759130361986,0.06630872569850155,0.061911878594742425,0.12685836092886382,4.571402220441075e-05,4.5711932432584665e-05,0.039162125967266696
6.0,0.0,6.0,0.0,6.0,0.0,6.0,0.0,,,,left,1.509633700363338,295.4698813003488,ox19,272.85284110018983,274.8525086003356,295.4698813003488,,False,3.0,['p'],False,0.21875,0.25,0.125,1.0,1.0,0.7908280489481783,-0.60447265625,wait_cost,1.0,2.0,292.1360673001036,,ox19,1,2022-05-11_14h35.22.606,threat_forest,2021.2.3,60.05461373201944,False,61.0,0.325,0.3958333333333333,-1.354375,-1.1727430555555558,0,0,0.0,0.4118670388580934,-0.60447265625,0.0,0.21875,0.25,0.125,-0.625,-0.46875,2.53125,2.53125,0.0,1.0,-1.0,3.0,0,0,0,0,-0.84,0.5587174474818984,0.2465522613612105,0.2805233357823236,0.014078259991121408,0.013880062586743801,0.05124298748297465,0.46945111770102244,0.2490667657902832,0.3153501878610251,0.4216839900167997,0.24386660258031123,0.28702243072950306,0.45804859556133837,0.24824007966562384,0.3118801020788001,0.3143567018842449,0.21553656586470488,0.2929452530795536,0.5050252797395401,0.24997474656353935,0.38261557700431936,0.4601666821875348,0.2484133067920512,0.3330325797914089,0.45624888908416833,0.24808584029363062,0.3719759130361986,0.06630872569850155,0.061911878594742425,0.12685836092886382,1.8413345367037186e-05,1.841300631574959e-05,0.039120013335961795
6.0,0.0,6.0,0.0,7.0,0.0,7.0,0.0,,,,right,1.1908249002881348,301.2197937001474,ox19,301.2197937001474,,297.0042936000973,299.019462400116,False,2.0,['p'],True,0.32,0.4,0.2,1.0,1.0,0.9455672104350704,-0.6799999999999999,wait_cost,0.0,1.0,299.019462400116,,ox19,1,2022-05-11_14h35.22.606,threat_forest,2021.2.3,60.05461373201944,False,61.0,0.325,0.3958333333333333,-1.354375,-1.1727430555555558,0,0,0.0,0.1746462604952241,-0.6799999999999999,0.0,0.32,0.4,0.2,-0.3999999999999999,-0.24,1.76,1.76,1.0,1.0,-1.0,2.0,0,0,0,0,-0.84,0.5587174474818984,0.2465522613612105,0.2805233357823236,0.014078259991121408,0.013880062586743801,0.05124298748297465,0.46945111770102244,0.2490667657902832,0.3153501878610251,0.6141280296957852,0.23697479283775796,0.3003947759528632,0.5317424226309675,0.24899241860551702,0.312521453260568,0.46512896060671627,0.24878401061163205,0.2965068906493999,0.511039378160651,0.24987813212982618,0.37129796316233055,0.5069761614388528,0.24995133317157905,0.364177046339365,0.45624888908416833,0.24808584029363062,0.3719759130361986,0.06630872569850155,0.061911878594742425,0.12685836092886382,4.698296444742781e-06,4.6982743707533015e-06,0.03909885633339791
7.0,0.0,7.0,0.0,0.0,0.0,0.0,0.0,308.1570685002953,311.6696560001001,,left,2.380215500015765,312.6700838003308,ox19,308.1570685002953,311.6696560001001,312.6700838003308,,False,4.0,['p'],False,0.2448979591836734,0.2857142857142857,0.1428571428571428,1.0,1.0,0.8400769154957735,0.0039960293469888,wait_cost,1.0,3.0,,,ox19,1,2022-05-11_14h35.22.606,threat_forest,2021.2.3,60.05461373201944,False,13.0,0.4761904761904761,0.4005952380952381,-1.2040816326530612,-1.2792283163265306,0,0,0.0,0.8671910298094326,0.0039960293469888,0.2448979591836734,0.2448979591836734,0.2857142857142857,0.1428571428571428,-0.5714285714285712,-0.4081632653061224,3.591836734693877,3.591836734693877,0.0,1.0,-1.0,4.0,0,1,0,0,0.0039960293469888,0.5587174474818984,0.2465522613612105,0.2805233357823236,0.6523194701730486,0.22679877900620168,0.3558426887639173,0.46945111770102244,0.2490667657902832,0.3153501878610251,0.4216839900167997,0.24386660258031123,0.28702243072950306,0.47554911987108694,0.2494021544609215,0.3128707434024736,0.3480957555230577,0.22692510050988934,0.2941652515836953,0.5064574050304667,0.24995830192027246,0.3806892176073724,0.4722213017706081,0.24922834392468043,0.3495367809224099,0.45624888908416833,0.24808584029363062,0.3719759130361986,0.3922137983614507,0.23838213473633402,0.46459356641167554,0.5253676394442999,0.24935648286902398,0.423760865560855
7.0,0.0,7.0,0.0,1.0,0.0,1.0,0.0,,,,left,1.1373870000243187,320.6866987003013,ox19,320.6866987003013,,315.07003480009735,317.0697319000028,True,3.0,['p'],True,0.4444444444444445,0.6666666666666666,0.3333333333333333,1.0,1.0,0.9656336071428248,0.0524754383062191,figh_cost,0.0,0.0,317.0697319000028,,ox19,1,2022-05-11_14h35.22.606,threat_forest,2021.2.3,60.05461373201944,True,13.0,0.4761904761904761,0.4005952380952381,-1.2040816326530612,-1.2792283163265306,1,1,1.0,0.1287335262703988,0.0524754383062191,0.4444444444444445,0.4444444444444445,0.6666666666666666,0.3333333333333333,0.0,0.0,3.0,3.0,1.0,1.0,-1.0,3.0,0,1,1,1,0.0524754383062191,0.5587174474818984,0.2465522613612105,0.2805233357823236,0.6523194701730486,0.22679877900620168,0.3558426887639173,0.46945111770102244,0.2490667657902832,0.3153501878610251,0.6141280296957852,0.23697479283775796,0.3003947759528632,0.6575044023725496,0.22519236323326602,0.29223246803098135,0.7307196758951346,0.196768431154844,0.29093471379729025,0.5217221104714878,0.2495281499166645,0.33030032556412436,0.5642564893507933,0.2458711035763114,0.28155390292045546,0.5789463644608339,0.24376747153841716,0.2284327167928062,0.7957798472645177,0.16251428195217857,0.3193949056864509,0.7267694522476417,0.1985756155273046,0.3454238667150983
8.0,0.0,8.0,0.0,0.0,0.0,0.0,0.0,326.72493430040777,330.2366153001785,,left,1.85903050005436,332.47042130026966,ox19,326.72493430040777,330.2366153001785,332.47042130026966,,False,4.0,['r'],False,0.36,0.6,0.4,2.0,1.0,0.9801625908629508,0.0090639294214999,wait_cost,1.0,3.0,,,ox19,1,2022-05-11_14h35.22.606,threat_forest,2021.2.3,60.05461373201944,False,24.0,0.55,0.513095238095238,-0.91,-1.0570408163265306,0,0,0.0,0.6200551153042128,0.0090639294214999,0.36,0.36,0.6,0.4,-0.4000000000000003,-0.3200000000000003,3.68,3.68,0.0,1.0,-1.0,4.0,0,1,0,0,0.0090639294214999,0.5587174474818984,0.2465522613612105,0.2805233357823236,0.6523194701730486,0.22679877900620168,0.3558426887639173,0.46945111770102244,0.2490667657902832,0.3153501878610251,0.4216839900167997,0.24386660258031123,0.28702243072950306,0.7139647718135791,0.20421907642276302,0.27435323625363384,0.671235860086196,0.22067828022054073,0.2934960600111105,0.511039378160651,0.24987813212982615,0.371297963162327,0.5254807534951297,0.24935073120132045,0.35201507810505017,0.45624888908416833,0.24808584029363062,0.3719759130361986,0.6454695502965986,0.22883860993650534,0.44632882095386694,0.5481526026347381,0.24768132685950106,0.4211766896447291
8.0,0.0,8.0,0.0,1.0,0.0,1.0,0.0,,,,left,1.835975700058043,337.2870990000665,ox19,337.2870990000665,,334.35362160019577,336.35343560017645,True,3.0,['r'],True,0.5,0.5,0.0,0.0,1.0,0.6309297535714574,0.103973876875,succ_gain,0.0,4.0,336.35343560017645,,ox19,1,2022-05-11_14h35.22.606,threat_forest,2021.2.3,60.05461373201944,True,24.0,0.55,0.513095238095238,-0.91,-1.0570408163265306,1,0,1.0,0.607576056848208,0.103973876875,0.5,0.5,0.5,0.0,0.5,0.5,3.5,3.5,1.0,1.0,-1.0,3.0,0,1,0,1,0.103973876875,0.5587174474818984,0.2465522613612105,0.2805233357823236,0.6523194701730486,0.22679877900620168,0.3558426887639173,0.46945111770102244,0.2490667657902832,0.3153501878610251,0.6141280296957852,0.23697479283775796,0.3003947759528632,0.34064138905138375,0.22460483311652757,0.291731612479429,0.5712699772090081,0.24492059034862748,0.29609302116675057,0.5350465019538959,0.24877174270079555,0.24169322569834506,0.5893741221868126,0.24201226628333666,0.20341387191399551,0.5789463644608339,0.24376747153841716,0.2284327167928062,0.8653834716209493,0.11649491866622297,0.23132137162244462,0.8709772632099289,0.11237587018127122,0.21244800976022757
8.0,0.0,8.0,0.0,2.0,0.0,2.0,0.0,,,,left,1.8264191001653671,344.65388810029253,ox19,339.15372330043465,341.1535989004188,344.65388810029253,,False,4.0,['r'],False,0.36,0.6,0.4,2.0,1.0,0.9801625908629508,-0.001790475,wait_cost,1.0,3.0,341.1535989004188,,ox19,1,2022-05-11_14h35.22.606,threat_forest,2021.2.3,60.05461373201944,False,24.0,0.55,0.513095238095238,-0.91,-1.0570408163265306,0,0,0.0,0.6023572740003644,-0.001790475,0.36,0.36,0.6,0.4,-0.4000000000000003,-0.3200000000000003,3.68,3.68,0.0,1.0,1.0,4.0,0,1,0,0,-0.001790475,0.36763879418749457,0.23248051119585955,0.3568627013989232,0.6523194701730486,0.22679877900620168,0.3558426887639173,0.46945111770102244,0.2490667657902832,0.3153501878610251,0.4216839900167997,0.24386660258031123,0.28702243072950306,0.7139647718135791,0.20421907642276302,0.27435323625363384,0.671235860086196,0.22067828022054073,0.2934960600111105,0.511039378160651,0.24987813212982615,0.371297963162327,0.5254807534951297,0.24935073120132045,0.35201507810505017,0.45624888908416833,0.24808584029363062,0.3719759130361986,0.6454695502965986,0.22883860993650534,0.44632882095386694,0.4992276396067549,0.24999940345942295,0.424752665665589
8.0,0.0,8.0,0.0,3.0,0.0,3.0,0.0,,,,left,1.0958304000087082,350.537161400076,ox19,350.537161400076,,346.50384250003844,348.5036373003386,True,3.0,['r'],True,0.5,0.5,0.0,0.0,1.0,0.6309297535714574,0.1769,unsucc_cost,0.0,1.0,348.5036373003386,,ox19,1,2022-05-11_14h35.22.606,threat_forest,2021.2.3,60.05461373201944,True,24.0,0.55,0.513095238095238,-0.91,-1.0570408163265306,1,0,1.0,0.0915124320340536,0.1769,0.5,0.5,0.5,0.0,0.5,0.5,3.5,3.5,1.0,1.0,-1.0,3.0,0,1,0,1,0.1769,0.5587174474818984,0.2465522613612105,0.2805233357823236,0.6523194701730486,0.22679877900620168,0.3558426887639173,0.46945111770102244,0.2490667657902832,0.3153501878610251,0.6141280296957852,0.23697479283775796,0.3003947759528632,0.34064138905138375,0.22460483311652757,0.291731612479429,0.5712699772090081,0.24492059034862748,0.29609302116675057,0.5350465019538959,0.24877174270079555,0.24169322569834506,0.5893741221868126,0.24201226628333666,0.20341387191399551,0.5789463644608339,0.24376747153841716,0.2284327167928062,0.8653834716209493,0.11649491866622297,0.23132137162244462,0.9618918684768877,0.03665590183492947,0.09563875888563877
8.0,0.0,8.0,0.0,4.0,0.0,4.0,0.0,,,,left,0.834472400136292,356.1706374003552,ox19,356.1706374003552,,346.50384250003844,348.5036373003386,True,1.0,['r'],True,0.5,0.5,0.0,0.0,1.0,0.6309297535714574,0.2324999999999999,unsucc_cost,0.0,0.0,353.6536251003854,,ox19,1,2022-05-11_14h35.22.606,threat_forest,2021.2.3,60.05461373201944,True,24.0,0.55,0.513095238095238,-0.91,-1.0570408163265306,1,0,1.0,-0.1809556099606913,0.2324999999999999,1.0,0.5,0.5,0.0,0.5,0.5,1.5,1.5,1.0,1.0,-1.0,1.0,1,1,0,1,0.625,0.5587174474818984,0.2465522613612105,0.2805233357823236,0.6523194701730486,0.22679877900620168,0.3558426887639173,0.948716011137856,0.04865394134853164,0.12421676542680053,0.6141280296957852,0.23697479283775796,0.3003947759528632,0.34064138905138375,0.22460483311652757,0.291731612479429,0.5712699772090081,0.24492059034862748,0.29609302116675057,0.5350465019538959,0.24877174270079555,0.24169322569834506,0.5893741221868126,0.24201226628333666,0.20341387191399551,0.5789463644608339,0.24376747153841716,0.2284327167928062,0.9982844583276018,0.00171259858916837,0.011646785634912431,0.9857125567213479,0.014083312243211278,0.06081720074065933
9.0,0.0,9.0,0.0,0.0,0.0,0.0,0.0,360.660218000412,364.170486500021,,right,1.4462748002260923,367.2710669999942,ox19,360.660218000412,364.170486500021,367.2710669999942,,True,5.0,['p'],False,0.4444444444444445,0.6666666666666666,0.3333333333333333,1.0,2.0,0.9656336071428248,0.0229346088356386,unsucc_cost,1.0,3.0,,,ox19,1,2022-05-11_14h35.22.606,threat_forest,2021.2.3,60.05461373201944,True,29.0,0.4761904761904761,0.513095238095238,-0.8594104308390023,-0.8847052154195012,1,0,1.0,0.3689911473310791,0.0229346088356386,0.4444444444444445,0.4444444444444445,0.6666666666666666,0.3333333333333333,0.6666666666666665,0.4444444444444444,5.444444444444445,5.444444444444445,0.0,2.0,-1.0,5.0,0,1,0,1,0.0229346088356386,0.5587174474818984,0.2465522613612105,0.2805233357823236,0.6523194701730486,0.22679877900620168,0.3558426887639173,0.46945111770102244,0.2490667657902832,0.3153501878610251,0.4216839900167997,0.24386660258031123,0.28702243072950306,0.6575044023725496,0.22519236323326602,0.29223246803098135,0.7307196758951346,0.196768431154844,0.29093471379729025,0.5394778150627659,0.24844150211787003,0.20300816334420446,0.5642564893507933,0.2458711035763114,0.28155390292045546,0.5789463644608339,0.24376747153841716,0.2284327167928062,0.7957798472645177,0.16251428195217857,0.3193949056864509,0.6092251409175854,0.2380698685915336,0.4063495936406947
9.0,0.0,9.0,0.0,1.0,0.0,1.0,0.0,,,,right,1.007448500022292,373.4713020999916,ox19,360.660218000412,364.170486500021,373.4713020999916,,True,3.0,['p'],False,0.4444444444444445,0.6666666666666666,0.3333333333333333,1.0,2.0,0.9656336071428248,0.0857569121584442,figh_cost,1.0,0.0,370.7373919002712,,ox19,1,2022-05-11_14h35.22.606,threat_forest,2021.2.3,60.05461373201944,True,29.0,0.4761904761904761,0.513095238095238,-0.8594104308390023,-0.8847052154195012,1,0,1.0,0.0074208969290187,0.0857569121584442,0.4444444444444445,0.4444444444444445,0.6666666666666666,0.3333333333333333,0.6666666666666665,0.4444444444444444,3.4444444444444446,3.4444444444444446,0.0,2.0,-1.0,3.0,0,1,0,1,0.0857569121584442,0.5587174474818984,0.2465522613612105,0.2805233357823236,0.6523194701730486,0.22679877900620168,0.3558426887639173,0.46945111770102244,0.2490667657902832,0.3153501878610251,0.4216839900167997,0.24386660258031123,0.28702243072950306,0.6575044023725496,0.22519236323326602,0.29223246803098135,0.7307196758951346,0.196768431154844,0.29093471379729025,0.5394778150627659,0.24844150211787003,0.20300816334420446,0.5642564893507933,0.2458711035763114,0.28155390292045546,0.5789463644608339,0.24376747153841716,0.2284327167928062,0.7957798472645177,0.16251428195217857,0.3193949056864509,0.8292298488975105,0.14160770659492244,0.2575424410937041
10.0,0.0,10.0,0.0,0.0,0.0,0.0,0.0,379.27857750002295,382.7874825000763,,left,1.7408874998800457,383.8567596999928,ox19,379.27857750002295,382.7874825000763,383.8567596999928,,False,4.0,['p'],False,0.24,0.3,0.2,2.0,2.0,0.9003120349047065,0.0048924551776182,wait_cost,1.0,3.0,,,ox19,1,2022-05-11_14h35.22.606,threat_forest,2021.2.3,60.05461373201944,False,15.0,0.4833333333333333,0.4797619047619047,-0.8977777777777778,-0.87859410430839,0,0,0.0,0.5543950405937009,0.0048924551776182,0.24,0.24,0.3,0.2,-0.3999999999999999,-0.24,3.76,3.76,0.0,2.0,-1.0,4.0,0,1,0,0,0.0048924551776182,0.5587174474818984,0.2465522613612105,0.2805233357823236,0.6523194701730486,0.22679877900620168,0.3558426887639173,0.46945111770102244,0.2490667657902832,0.3153501878610251,0.4216839900167997,0.24386660258031123,0.28702243072950306,0.5317424226309675,0.24899241860551702,0.312521453260568,0.3620548829030659,0.2309711446691131,0.2945986846789734,0.511039378160651,0.24987813212982618,0.37129796316233055,0.46996037101770605,0.24909762069060612,0.3468896836782669,0.45624888908416833,0.24808584029363062,0.3719759130361986,0.38174403211433044,0.23601552605942347,0.4600642645039791,0.5294083550306213,0.24913514865439293,0.4234194247973604
10.0,0.0,10.0,0.0,1.0,0.0,1.0,0.0,,,,left,0.9612663998268544,388.1380453002639,ox19,388.1380453002639,,385.6212495001964,387.62094769999385,True,3.0,['p'],True,0.4444444444444445,0.6666666666666666,0.3333333333333333,1.0,2.0,0.9656336071428248,0.0878193674113966,unsucc_cost,0.0,1.0,387.62094769999385,,ox19,1,2022-05-11_14h35.22.606,threat_forest,2021.2.3,60.05461373201944,True,15.0,0.4833333333333333,0.4797619047619047,-0.8977777777777778,-0.87859410430839,1,0,1.0,-0.0395036973696094,0.0878193674113966,0.4444444444444445,0.4444444444444445,0.6666666666666666,0.3333333333333333,0.6666666666666665,0.4444444444444444,3.4444444444444446,3.4444444444444446,1.0,2.0,-1.0,3.0,0,1,0,1,0.0878193674113966,0.5587174474818984,0.2465522613612105,0.2805233357823236,0.6523194701730486,0.22679877900620168,0.3558426887639173,0.46945111770102244,0.2490667657902832,0.3153501878610251,0.6141280296957852,0.23697479283775796,0.3003947759528632,0.6575044023725496,0.22519236323326602,0.29223246803098135,0.7307196758951346,0.196768431154844,0.29093471379729025,0.5394778150627659,0.24844150211787003,0.20300816334420446,0.5642564893507933,0.2458711035763114,0.28155390292045546,0.5789463644608339,0.24376747153841716,0.2284327167928062,0.7957798472645177,0.16251428195217857,0.3193949056864509,0.834446987855957,0.1381452123140774,0.252201031529808
10.0,0.0,10.0,0.0,2.0,0.0,2.0,0.0,,,,left,1.2526631001383066,393.68772860011086,ox19,393.68772860011086,,385.6212495001964,387.62094769999385,True,1.0,['p'],True,0.4444444444444445,0.6666666666666666,0.3333333333333333,1.0,2.0,0.9656336071428248,0.1942183425968263,unsucc_cost,0.0,0.0,391.1209129001945,,ox19,1,2022-05-11_14h35.22.606,threat_forest,2021.2.3,60.05461373201944,True,15.0,0.4833333333333333,0.4797619047619047,-0.8977777777777778,-0.87859410430839,1,0,1.0,0.2252717651703401,0.1942183425968263,1.0,0.4444444444444445,0.6666666666666666,0.3333333333333333,0.6666666666666665,0.4444444444444444,1.4444444444444444,1.4444444444444444,1.0,2.0,-1.0,1.0,1,1,0,1,0.625,0.5587174474818984,0.2465522613612105,0.2805233357823236,0.6523194701730486,0.22679877900620168,0.3558426887639173,0.948716011137856,0.04865394134853164,0.12421676542680053,0.6141280296957852,0.23697479283775796,0.3003947759528632,0.6575044023725496,0.22519236323326602,0.29223246803098135,0.7307196758951346,0.196768431154844,0.29093471379729025,0.5394778150627659,0.24844150211787003,0.20300816334420446,0.5642564893507933,0.2458711035763114,0.28155390292045546,0.5789463644608339,0.24376747153841716,0.2284327167928062,0.9982844583276018,0.00171259858916837,0.011646785634912431,0.9718504728974681,0.0273571312264357,0.08129402984580844
11.0,0.0,11.0,0.0,0.0,0.0,0.0,0.0,399.5092143001966,403.02100670011714,,right,1.8537713000550864,404.8395906002261,ox19,399.5092143001966,403.02100670011714,404.8395906002261,,True,5.0,['r'],False,0.4081632653061224,0.5714285714285714,0.2857142857142857,2.0,1.0,0.9885754083994552,-0.0004231906775603,succ_gain,1.0,6.0,,,ox19,1,2022-05-11_14h35.22.606,threat_forest,2021.2.3,60.05461373201944,True,27.0,0.5357142857142857,0.5095238095238095,-0.7806122448979592,-0.8391950113378686,0,0,1.0,0.6172221046562305,-0.0004231906775603,0.4081632653061224,0.4081632653061224,0.5714285714285714,0.2857142857142857,-0.1428571428571428,-0.0612244897959184,4.938775510204081,4.938775510204081,0.0,1.0,-1.0,5.0,0,1,0,0,-0.0004231906775603,0.5587174474818984,0.2465522613612105,0.2805233357823236,0.6523194701730486,0.22679877900620168,0.3558426887639173,0.46945111770102244,0.2490667657902832,0.3153501878610251,0.4216839900167997,0.24386660258031123,0.28702243072950306,0.6141224135236055,0.2369760747315472,0.30227780384213604,0.643790129833522,0.2293243985624589,0.2944222767521056,0.5179086210032506,0.24967928129376196,0.34800416648788257,0.5476647619572422,0.24772807046755946,0.31915679711976885,0.45624888908416833,0.24808584029363062,0.3719759130361986,0.7375337649067463,0.1935777105292266,0.37884522702021883,0.5054091599716296,0.2499707409884013,0.4247084495645872
11.0,0.0,11.0,0.0,1.0,0.0,1.0,0.0,,,,left,1.5057274997234344,411.4718953003176,ox19,399.5092143001966,403.02100670011714,411.4718953003176,,False,6.0,['r'],False,0.4081632653061224,0.5714285714285714,0.2857142857142857,2.0,1.0,0.9885754083994552,-0.1076532809956411,wait_cost,1.0,5.0,408.7212171000429,,ox19,1,2022-05-11_14h35.22.606,threat_forest,2021.2.3,60.05461373201944,False,27.0,0.5357142857142857,0.5095238095238095,-0.7806122448979592,-0.8391950113378686,0,0,0.0,0.4092761699267992,-0.1076532809956411,0.4081632653061224,0.4081632653061224,0.5714285714285714,0.2857142857142857,-0.1428571428571428,-0.0612244897959184,5.938775510204081,5.938775510204081,0.0,1.0,1.0,6.0,0,1,0,0,-0.1076532809956411,0.36763879418749457,0.23248051119585955,0.3568627013989232,0.6523194701730486,0.22679877900620168,0.3558426887639173,0.46945111770102244,0.2490667657902832,0.3153501878610251,0.4216839900167997,0.24386660258031123,0.28702243072950306,0.6141224135236055,0.2369760747315472,0.30227780384213604,0.643790129833522,0.2293243985624589,0.2944222767521056,0.5179086210032506,0.24967928129376196,0.34800416648788257,0.5476647619572422,0.24772807046755946,0.31915679711976885,0.45624888908416833,0.24808584029363062,0.3719759130361986,0.7375337649067463,0.1935777105292266,0.37884522702021883,0.12813093012940177,0.11171339487357616,0.21142604361173653
11.0,0.0,11.0,0.0,2.0,0.0,2.0,0.0,,,,right,1.2167728003114462,416.88865830004215,ox19,399.5092143001966,403.02100670011714,416.88865830004215,,True,5.0,['r'],False,0.4081632653061224,0.5714285714285714,0.2857142857142857,2.0,1.0,0.9885754083994552,-0.0007263192497883,succ_gain,1.0,6.0,415.00455120019615,,ox19,1,2022-05-11_14h35.22.606,threat_forest,2021.2.3,60.05461373201944,True,27.0,0.5357142857142857,0.5095238095238095,-0.7806122448979592,-0.8391950113378686,0,0,1.0,0.1962021082543975,-0.0007263192497883,0.4081632653061224,0.4081632653061224,0.5714285714285714,0.2857142857142857,-0.1428571428571428,-0.0612244897959184,4.938775510204081,4.938775510204081,0.0,1.0,-1.0,5.0,0,1,0,0,-0.0007263192497883,0.5587174474818984,0.2465522613612105,0.2805233357823236,0.6523194701730486,0.22679877900620168,0.3558426887639173,0.46945111770102244,0.2490667657902832,0.3153501878610251,0.4216839900167997,0.24386660258031123,0.28702243072950306,0.6141224135236055,0.2369760747315472,0.30227780384213604,0.643790129833522,0.2293243985624589,0.2944222767521056,0.5179086210032506,0.24967928129376196,0.34800416648788257,0.5476647619572422,0.24772807046755946,0.31915679711976885,0.45624888908416833,0.24808584029363062,0.3719759130361986,0.7375337649067463,0.1935777105292266,0.37884522702021883,0.5040387857720416,0.24998368820948758,0.42472842256812937
11.0,0.0,11.0,0.0,3.0,0.0,3.0,0.0,,,,right,1.5183345000259578,420.82187930028886,ox19,420.82187930028886,,418.13813910027966,420.13797220028937,False,6.0,['r'],True,0.5,0.5,0.0,0.0,1.0,0.6309297535714574,-0.1560938150770512,wait_cost,0.0,5.0,420.13797220028937,,ox19,1,2022-05-11_14h35.22.606,threat_forest,2021.2.3,60.05461373201944,False,27.0,0.5357142857142857,0.5095238095238095,-0.7806122448979592,-0.8391950113378686,1,0,0.0,0.4176140104470016,-0.1560938150770512,0.0,0.5,0.5,0.0,0.5,0.5,6.5,6.5,1.0,1.0,1.0,6.0,0,0,0,1,-0.84,0.36763879418749457,0.23248051119585955,0.3568627013989232,0.014078259991121408,0.013880062586743801,0.05124298748297465,0.46945111770102244,0.2490667657902832,0.3153501878610251,0.6141280296957852,0.23697479283775796,0.3003947759528632,0.34064138905138375,0.22460483311652757,0.291731612479429,0.5712699772090081,0.24492059034862748,0.29609302116675057,0.5350465019538959,0.24877174270079555,0.24169322569834506,0.5893741221868126,0.24201226628333666,0.20341387191399551,0.5789463644608339,0.24376747153841716,0.2284327167928062,0.06630872569850155,0.061911878594742425,0.12685836092886382,0.05766995768833117,0.05434413366855727,0.12292547274599841
11.0,0.0,11.0,0.0,4.0,0.0,4.0,0.0,,,,right,0.957630000077188,427.3384449002333,ox19,427.3384449002333,,418.13813910027966,420.13797220028937,False,5.0,['r'],True,0.5,0.5,0.0,0.0,1.0,0.6309297535714574,-0.1814478342357351,wait_cost,0.0,4.0,424.3713302002288,,ox19,1,2022-05-11_14h35.22.606,threat_forest,2021.2.3,60.05461373201944,False,27.0,0.5357142857142857,0.5095238095238095,-0.7806122448979592,-0.8391950113378686,1,0,0.0,-0.04329379682769,-0.1814478342357351,0.0,0.5,0.5,0.0,0.5,0.5,5.5,5.5,1.0,1.0,-1.0,5.0,0,0,0,1,-0.84,0.5587174474818984,0.2465522613612105,0.2805233357823236,0.014078259991121408,0.013880062586743801,0.05124298748297465,0.46945111770102244,0.2490667657902832,0.3153501878610251,0.6141280296957852,0.23697479283775796,0.3003947759528632,0.34064138905138375,0.22460483311652757,0.291731612479429,0.5712699772090081,0.24492059034862748,0.29609302116675057,0.5350465019538959,0.24877174270079555,0.24169322569834506,0.5893741221868126,0.24201226628333666,0.20341387191399551,0.5789463644608339,0.24376747153841716,0.2284327167928062,0.06630872569850155,0.061911878594742425,0.12685836092886382,0.03725009938258606,0.035862529478573525,0.0944148646786753
11.0,0.0,11.0,0.0,5.0,0.0,5.0,0.0,,,,left,0.7927474998869002,433.48902780003846,ox19,428.3216512002982,430.3216770002618,433.48902780003846,,False,4.0,['r'],False,0.4081632653061224,0.5714285714285714,0.2857142857142857,2.0,1.0,0.9885754083994552,-0.3160662224073303,wait_cost,1.0,3.0,430.3216770002618,,ox19,1,2022-05-11_14h35.22.606,threat_forest,2021.2.3,60.05461373201944,False,27.0,0.5357142857142857,0.5095238095238095,-0.7806122448979592,-0.8391950113378686,0,0,0.0,-0.2322505192906335,-0.3160662224073303,0.0,0.4081632653061224,0.5714285714285714,0.2857142857142857,-0.1428571428571428,-0.0612244897959184,3.938775510204081,3.938775510204081,0.0,1.0,-1.0,4.0,0,0,0,0,-0.84,0.5587174474818984,0.2465522613612105,0.2805233357823236,0.014078259991121408,0.013880062586743801,0.05124298748297465,0.46945111770102244,0.2490667657902832,0.3153501878610251,0.4216839900167997,0.24386660258031123,0.28702243072950306,0.6141224135236055,0.2369760747315472,0.30227780384213604,0.643790129833522,0.2293243985624589,0.2944222767521056,0.5179086210032506,0.24967928129376196,0.34800416648788257,0.5476647619572422,0.24772807046755946,0.31915679711976885,0.45624888908416833,0.24808584029363062,0.3719759130361986,0.06630872569850155,0.061911878594742425,0.12685836092886382,0.0033793987532416006,0.0033679784173081912,0.044287213414860985
11.0,0.0,11.0,0.0,6.0,0.0,6.0,0.0,,,,left,0.9881295999512076,439.48879790026695,ox19,428.3216512002982,430.3216770002618,439.48879790026695,,False,3.0,['r'],False,0.4081632653061224,0.5714285714285714,0.2857142857142857,2.0,1.0,0.9885754083994552,-0.452832153269471,wait_cost,1.0,2.0,436.30488050030544,,ox19,1,2022-05-11_14h35.22.606,threat_forest,2021.2.3,60.05461373201944,False,27.0,0.5357142857142857,0.5095238095238095,-0.7806122448979592,-0.8391950113378686,0,0,0.0,-0.0119414157971474,-0.452832153269471,0.0,0.4081632653061224,0.5714285714285714,0.2857142857142857,-0.1428571428571428,-0.0612244897959184,2.9387755102040813,2.9387755102040813,0.0,1.0,-1.0,3.0,0,0,0,0,-0.84,0.5587174474818984,0.2465522613612105,0.2805233357823236,0.014078259991121408,0.013880062586743801,0.05124298748297465,0.46945111770102244,0.2490667657902832,0.3153501878610251,0.4216839900167997,0.24386660258031123,0.28702243072950306,0.6141224135236055,0.2369760747315472,0.30227780384213604,0.643790129833522,0.2293243985624589,0.2944222767521056,0.5179086210032506,0.24967928129376196,0.34800416648788257,0.5476647619572422,0.24772807046755946,0.31915679711976885,0.45624888908416833,0.24808584029363062,0.3719759130361986,0.06630872569850155,0.061911878594742425,0.12685836092886382,0.000285768328928919,0.0002856866653911003,0.03953232248739068
11.0,0.0,11.0,0.0,7.0,0.0,7.0,0.0,,,,right,0.9506979999132454,445.5718946000561,ox19,445.5718946000561,,440.5052028000355,442.5049464004114,False,2.0,['r'],True,0.5,0.5,0.0,0.0,1.0,0.6309297535714574,-0.5,wait_cost,0.0,1.0,442.5049464004114,,ox19,1,2022-05-11_14h35.22.606,threat_forest,2021.2.3,60.05461373201944,False,27.0,0.5357142857142857,0.5095238095238095,-0.7806122448979592,-0.8391950113378686,1,0,0.0,-0.0505588274236721,-0.5,0.0,0.5,0.5,0.0,0.5,0.5,2.5,2.5,1.0,1.0,-1.0,2.0,0,0,0,1,-0.84,0.5587174474818984,0.2465522613612105,0.2805233357823236,0.014078259991121408,0.013880062586743801,0.05124298748297465,0.46945111770102244,0.2490667657902832,0.3153501878610251,0.6141280296957852,0.23697479283775796,0.3003947759528632,0.34064138905138375,0.22460483311652757,0.291731612479429,0.5712699772090081,0.24492059034862748,0.29609302116675057,0.5350465019538959,0.24877174270079555,0.24169322569834506,0.5893741221868126,0.24201226628333666,0.20341387191399551,0.5789463644608339,0.24376747153841716,0.2284327167928062,0.06630872569850155,0.061911878594742425,0.12685836092886382,0.00012179375117302296,0.00012177891745519822,0.039279470542691486
12.0,0.0,12.0,0.0,0.0,0.0,0.0,0.0,450.3672104002908,453.86949680000544,,right,1.6630652002058923,457.4096870999783,ox19,457.4096870999783,,450.3672104002908,453.86949680000544,False,5.0,['p'],True,0.2222222222222222,0.3333333333333333,0.3333333333333333,2.0,2.0,0.9656336071428248,0.0018803614496756,wait_cost,0.0,4.0,,,ox19,1,2022-05-11_14h35.22.606,threat_forest,2021.2.3,60.05461373201944,False,63.0,0.2666666666666666,0.4011904761904762,-1.5022222222222226,-1.141417233560091,0,0,0.0,0.5086624058198067,0.0018803614496756,0.2222222222222222,0.2222222222222222,0.3333333333333333,0.3333333333333333,-0.666666666666667,-0.4444444444444446,4.555555555555555,4.555555555555555,1.0,2.0,-1.0,5.0,0,1,0,0,0.0018803614496756,0.5587174474818984,0.2465522613612105,0.2805233357823236,0.6523194701730486,0.22679877900620168,0.3558426887639173,0.46945111770102244,0.2490667657902832,0.3153501878610251,0.6141280296957852,0.23697479283775796,0.3003947759528632,0.6575044023725496,0.22519236323326602,0.29223246803098135,0.39551026365177017,0.23908189499787738,0.2954675500402202,0.5039113462954999,0.2499847013701567,0.3837817035636384,0.4617650593680981,0.24853808931487487,0.3355593798252574,0.45624888908416833,0.24808584029363062,0.3719759130361986,0.34471547110229717,0.2258867150850185,0.4406793770417402,0.5158188527334948,0.24974976389819603,0.4243675597183414
12.0,0.0,12.0,0.0,1.0,0.0,1.0,0.0,,,,left,1.575434099882841,462.3757961001247,ox19,459.10580960009247,461.1052668001503,462.3757961001247,,False,4.0,['p'],False,0.16,0.2,0.2,2.0,2.0,0.8198746470064713,0.0090533165280466,wait_cost,1.0,3.0,461.1052668001503,,ox19,1,2022-05-11_14h35.22.606,threat_forest,2021.2.3,60.05461373201944,False,63.0,0.2666666666666666,0.4011904761904762,-1.5022222222222226,-1.141417233560091,0,0,0.0,0.4545308532748974,0.0090533165280466,0.16,0.16,0.2,0.2,-0.8000000000000003,-0.5600000000000003,3.4399999999999995,3.4399999999999995,0.0,2.0,-1.0,4.0,0,1,0,0,0.0090533165280466,0.5587174474818984,0.2465522613612105,0.2805233357823236,0.6523194701730486,0.22679877900620168,0.3558426887639173,0.46945111770102244,0.2490667657902832,0.3153501878610251,0.4216839900167997,0.24386660258031123,0.28702243072950306,0.5317424226309675,0.24899241860551702,0.312521453260568,0.27028010196589636,0.19722876844720102,0.29098402749967367,0.5003465528288814,0.2499998799011368,0.38555974795845316,0.4332721240840419,0.24554739057574457,0.2749988341313312,0.45624888908416833,0.24808584029363062,0.3719759130361986,0.23093433553768616,0.17760366820745355,0.3482735228481206,0.5481050644697609,0.24768590277236013,0.42118374866713504
12.0,0.0,12.0,0.0,2.0,0.0,2.0,0.0,,,,left,1.420305300038308,469.5393572002649,ox19,469.5393572002649,,463.9722655001096,465.9725021002814,True,3.0,['p'],True,0.2222222222222222,0.3333333333333333,0.3333333333333333,2.0,2.0,0.9656336071428248,0.0475854290504497,figh_cost,0.0,0.0,465.9725021002814,,ox19,1,2022-05-11_14h35.22.606,threat_forest,2021.2.3,60.05461373201944,True,63.0,0.2666666666666666,0.4011904761904762,-1.5022222222222226,-1.141417233560091,0,0,1.0,0.3508718485309532,0.0475854290504497,0.2222222222222222,0.2222222222222222,0.3333333333333333,0.3333333333333333,-0.666666666666667,-0.4444444444444446,2.555555555555556,2.555555555555556,1.0,2.0,-1.0,3.0,0,1,0,0,0.0475854290504497,0.5587174474818984,0.2465522613612105,0.2805233357823236,0.6523194701730486,0.22679877900620168,0.3558426887639173,0.46945111770102244,0.2490667657902832,0.3153501878610251,0.6141280296957852,0.23697479283775796,0.3003947759528632,0.6575044023725496,0.22519236323326602,0.29223246803098135,0.39551026365177017,0.23908189499787738,0.2954675500402202,0.5039113462954999,0.2499847013701567,0.3837817035636384,0.4617650593680981,0.24853808931487487,0.3355593798252574,0.45624888908416833,0.24808584029363062,0.3719759130361986,0.34471547110229717,0.2258867150850185,0.4406793770417402,0.7088610771766132,0.20637705044062485,0.35745873397499495
13.0,0.0,13.0,0.0,0.0,0.0,0.0,0.0,474.3800041000359,477.8888062001206,,right,1.7103285999037323,479.2058112001978,ox19,479.2058112001978,,474.3800041000359,477.8888062001206,False,5.0,['r'],True,0.3333333333333333,0.3333333333333333,0.0,0.0,2.0,0.5793801642856949,0.0388172421765338,wait_cost,0.0,4.0,,,ox19,1,2022-05-11_14h35.22.606,threat_forest,2021.2.3,60.05461373201944,False,10.0,0.3541666666666666,0.3104166666666667,-0.8958333333333335,-1.199027777777778,1,1,0.0,0.5366855157398854,0.0388172421765338,0.3333333333333333,0.3333333333333333,0.3333333333333333,0.0,0.3333333333333331,0.3333333333333331,5.333333333333333,5.333333333333333,1.0,2.0,-1.0,5.0,0,1,1,1,0.0388172421765338,0.5587174474818984,0.2465522613612105,0.2805233357823236,0.6523194701730486,0.22679877900620168,0.3558426887639173,0.46945111770102244,0.2490667657902832,0.3153501878610251,0.6141280296957852,0.23697479283775796,0.3003947759528632,0.34064138905138375,0.22460483311652757,0.291731612479429,0.39551026365177017,0.23908189499787738,0.2954675500402202,0.5306096492109694,0.24906304937518137,0.2758174897817085,0.5131489924460563,0.24982710399765354,0.36166145141648,0.5789463644608339,0.24376747153841716,0.2284327167928062,0.5887709573196516,0.2421197171365526,0.47174668777924433,0.6750880659055738,0.21934416917744542,0.3774624325861954
13.0,0.0,13.0,0.0,1.0,0.0,1.0,0.0,,,,right,1.5899471999146044,483.94123700028285,ox19,480.93927660025656,482.93885980034247,483.94123700028285,,True,4.0,['r'],False,0.28125,0.375,0.25,2.0,2.0,0.9634951148421658,0.0125198670204943,figh_cost,1.0,1.0,482.93885980034247,,ox19,1,2022-05-11_14h35.22.606,threat_forest,2021.2.3,60.05461373201944,True,10.0,0.3541666666666666,0.3104166666666667,-0.8958333333333335,-1.199027777777778,1,0,1.0,0.4637008080798778,0.0125198670204943,0.28125,0.28125,0.375,0.25,-0.25,-0.125,3.875,3.875,0.0,2.0,-1.0,4.0,0,1,0,1,0.0125198670204943,0.5587174474818984,0.2465522613612105,0.2805233357823236,0.6523194701730486,0.22679877900620168,0.3558426887639173,0.46945111770102244,0.2490667657902832,0.3153501878610251,0.4216839900167997,0.24386660258031123,0.28702243072950306,0.5803073382977375,0.2435507314155327,0.3078825434221335,0.43871043483919364,0.24624358920239928,0.296234747619966,0.5150471098255233,0.24977358448589868,0.3590510367292268,0.4890310868569755,0.2498796829444608,0.36272615568408106,0.5789463644608339,0.24376747153841716,0.2284327167928062,0.47241728590604815,0.2492391938832113,0.4853722017584025,0.5635811316216022,0.2459574397017165,0.41851733872461117
13.0,0.0,13.0,0.0,2.0,0.0,2.0,0.0,,,,left,1.21872750017792,489.43927159998566,ox19,489.43927159998566,,485.5558050000109,487.55557530000806,True,1.0,['r'],True,0.3333333333333333,0.3333333333333333,0.0,0.0,2.0,0.5793801642856949,0.1304442796687529,unsucc_cost,0.0,0.0,487.55557530000806,,ox19,1,2022-05-11_14h35.22.606,threat_forest,2021.2.3,60.05461373201944,True,10.0,0.3541666666666666,0.3104166666666667,-0.8958333333333335,-1.199027777777778,1,1,1.0,0.1978072817670304,0.1304442796687529,1.0,0.3333333333333333,0.3333333333333333,0.0,0.3333333333333331,0.3333333333333331,1.333333333333333,1.333333333333333,1.0,2.0,-1.0,1.0,1,1,1,1,0.625,0.5587174474818984,0.2465522613612105,0.2805233357823236,0.6523194701730486,0.22679877900620168,0.3558426887639173,0.948716011137856,0.04865394134853164,0.12421676542680053,0.6141280296957852,0.23697479283775796,0.3003947759528632,0.34064138905138375,0.22460483311652757,0.291731612479429,0.39551026365177017,0.23908189499787738,0.2954675500402202,0.5306096492109694,0.24906304937518137,0.2758174897817085,0.5131489924460563,0.24982710399765354,0.36166145141648,0.5789463644608339,0.24376747153841716,0.2284327167928062,0.9982844583276018,0.00171259858916837,0.011646785634912431,0.9159335720670879,0.07699926362751251,0.15787436161594293
14.0,0.0,14.0,0.0,0.0,0.0,0.0,0.0,493.4976598001085,497.0057634999976,,right,1.0819056998007,500.4416912002489,ox19,493.4976598001085,497.0057634999976,500.4416912002489,,True,5.0,['r'],False,0.46875,0.625,0.25,2.0,2.0,0.9634951148421658,-0.0188382549218505,figh_cost,1.0,2.0,,,ox19,1,2022-05-11_14h35.22.606,threat_forest,2021.2.3,60.05461373201944,True,62.0,0.6125,0.4833333333333333,0.0124999999999999,-0.4416666666666667,1,0,1.0,0.0787240230224044,-0.0188382549218505,0.46875,0.46875,0.625,0.25,0.75,0.625,5.625,5.625,0.0,2.0,-1.0,5.0,0,1,0,1,-0.0188382549218505,0.5587174474818984,0.2465522613612105,0.2805233357823236,0.6523194701730486,0.22679877900620168,0.3558426887639173,0.46945111770102244,0.2490667657902832,0.3153501878610251,0.4216839900167997,0.24386660258031123,0.28702243072950306,0.5803073382977375,0.2435507314155327,0.3078825434221335,0.6943353256214791,0.21223378121559366,0.29259144177222074,0.541691177808191,0.24826184569296578,0.18196283954367232,0.5752940272716828,0.2443308094572111,0.25036351548310876,0.5789463644608339,0.24376747153841716,0.2284327167928062,0.8290833374206085,0.14170415703211403,0.27956773044643884,0.42277465111097295,0.24403624548896807,0.41555361248862976
14.0,0.0,14.0,0.0,1.0,0.0,1.0,0.0,,,,left,0.9289941000752152,505.8061911002733,ox19,505.8061911002733,,501.55605250038207,503.5558428000659,True,2.0,['r'],True,0.6,0.6,0.0,0.0,2.0,0.6126016192893442,0.081922610155642,unsucc_cost,0.0,0.0,503.5558428000659,,ox19,1,2022-05-11_14h35.22.606,threat_forest,2021.2.3,60.05461373201944,True,62.0,0.6125,0.4833333333333333,0.0124999999999999,-0.4416666666666667,1,1,1.0,-0.0736528910224638,0.081922610155642,0.6,0.6,0.6,0.0,1.4,1.4,3.4,3.4,1.0,2.0,-1.0,2.0,0,1,1,1,0.081922610155642,0.5587174474818984,0.2465522613612105,0.2805233357823236,0.6523194701730486,0.22679877900620168,0.3558426887639173,0.46945111770102244,0.2490667657902832,0.3153501878610251,0.6141280296957852,0.23697479283775796,0.3003947759528632,0.34064138905138375,0.22460483311652757,0.291731612479429,0.671235860086196,0.22067828022054073,0.2934960600111105,0.5588923288020702,0.24653169360826882,-0.020710740686009643,0.6333559173579343,0.23221619930562384,0.00504713103756238,0.5789463644608339,0.24376747153841716,0.2284327167928062,0.9405794444402452,0.05588975313672493,0.11533299782532237,0.8191851675156511,0.14812082883800573,0.2675898955061165
15.0,0.0,15.0,0.0,0.0,0.0,0.0,0.0,509.8140108999796,513.3226296002977,,left,1.2739129001274705,516.2067190003581,ox19,516.2067190003581,,509.8140108999796,513.3226296002977,True,4.0,['r'],True,0.5,0.5,0.0,0.0,2.0,0.6309297535714574,0.096737473125,succ_gain,0.0,6.0,,,ox19,1,2022-05-11_14h35.22.606,threat_forest,2021.2.3,60.05461373201944,True,18.0,0.55,0.58125,-0.4800000000000001,-0.23375,1,0,1.0,0.2420931875659414,0.096737473125,0.5,0.5,0.5,0.0,1.0,1.0,5.0,5.0,1.0,2.0,-1.0,4.0,0,1,0,1,0.096737473125,0.5587174474818984,0.2465522613612105,0.2805233357823236,0.6523194701730486,0.22679877900620168,0.3558426887639173,0.46945111770102244,0.2490667657902832,0.3153501878610251,0.6141280296957852,0.23697479283775796,0.3003947759528632,0.34064138905138375,0.22460483311652757,0.291731612479429,0.5712699772090081,0.24492059034862748,0.29609302116675057,0.5483210576857501,0.24766507538413046,0.11205593590426588,0.5893741221868126,0.24201226628333666,0.20341387191399551,0.5789463644608339,0.24376747153841716,0.2284327167928062,0.8653834716209493,0.11649491866622297,0.23132137162244462,0.8555435638043364,0.12358877423731181,0.22974557276136182
15.0,0.0,15.0,0.0,1.0,0.0,1.0,0.0,,,,right,2.571850299835205,520.2899176999927,ox19,520.2899176999927,,509.8140108999796,513.3226296002977,False,6.0,['r'],True,0.5,0.5,0.0,0.0,2.0,0.6309297535714574,-0.0252296875,wait_cost,0.0,5.0,519.5061184000224,,ox19,1,2022-05-11_14h35.22.606,threat_forest,2021.2.3,60.05461373201944,False,18.0,0.55,0.58125,-0.4800000000000001,-0.23375,1,0,0.0,0.9446256008848896,-0.0252296875,0.5,0.5,0.5,0.0,1.0,1.0,7.0,7.0,1.0,2.0,1.0,6.0,0,1,0,1,-0.0252296875,0.36763879418749457,0.23248051119585955,0.3568627013989232,0.6523194701730486,0.22679877900620168,0.3558426887639173,0.46945111770102244,0.2490667657902832,0.3153501878610251,0.6141280296957852,0.23697479283775796,0.3003947759528632,0.34064138905138375,0.22460483311652757,0.291731612479429,0.5712699772090081,0.24492059034862748,0.29609302116675057,0.5483210576857501,0.24766507538413046,0.11205593590426588,0.5893741221868126,0.24201226628333666,0.20341387191399551,0.5789463644608339,0.24376747153841716,0.2284327167928062,0.8653834716209493,0.11649491866622297,0.23132137162244462,0.39484756827158757,0.23894296610160157,0.4076964756893642
15.0,0.0,15.0,0.0,2.0,0.0,2.0,0.0,,,,right,2.341686800122261,528.3565393001772,ox19,522.8896883004345,524.889445700217,528.3565393001772,,True,5.0,['r'],False,0.36,0.6,0.4,2.0,2.0,0.9801625908629508,-0.050683,unsucc_cost,1.0,3.0,524.889445700217,,ox19,1,2022-05-11_14h35.22.606,threat_forest,2021.2.3,60.05461373201944,True,18.0,0.55,0.58125,-0.4800000000000001,-0.23375,0,0,1.0,0.8508715244317177,-0.050683,0.36,0.36,0.6,0.4,0.1999999999999997,0.0399999999999998,5.04,5.04,0.0,2.0,-1.0,5.0,0,1,0,0,-0.050683,0.5587174474818984,0.2465522613612105,0.2805233357823236,0.6523194701730486,0.22679877900620168,0.3558426887639173,0.46945111770102244,0.2490667657902832,0.3153501878610251,0.4216839900167997,0.24386660258031123,0.28702243072950306,0.7139647718135791,0.20421907642276302,0.27435323625363384,0.671235860086196,0.22067828022054073,0.2934960600111105,0.5270566458486259,0.24926793791542204,0.2998185555642472,0.5254807534951297,0.24935073120132045,0.35201507810505017,0.45624888908416833,0.24808584029363062,0.3719759130361986,0.6454695502965986,0.22883860993650534,0.44632882095386694,0.2916681249080241,0.20659782982066133,0.35779931882406224
15.0,0.0,15.0,0.0,3.0,0.0,3.0,0.0,,,,right,1.2224703999236226,534.6734188999981,ox19,522.8896883004345,524.889445700217,534.6734188999981,,True,3.0,['r'],False,0.36,0.6,0.4,2.0,2.0,0.9801625908629508,-0.044112,succ_gain,1.0,5.0,532.7229426000267,,ox19,1,2022-05-11_14h35.22.606,threat_forest,2021.2.3,60.05461373201944,True,18.0,0.55,0.58125,-0.4800000000000001,-0.23375,0,0,1.0,0.2008737293323438,-0.044112,0.36,0.36,0.6,0.4,0.1999999999999997,0.0399999999999998,3.04,3.04,0.0,2.0,-1.0,3.0,0,1,0,0,-0.044112,0.5587174474818984,0.2465522613612105,0.2805233357823236,0.6523194701730486,0.22679877900620168,0.3558426887639173,0.46945111770102244,0.2490667657902832,0.3153501878610251,0.4216839900167997,0.24386660258031123,0.28702243072950306,0.7139647718135791,0.20421907642276302,0.27435323625363384,0.671235860086196,0.22067828022054073,0.2934960600111105,0.5270566458486259,0.24926793791542204,0.2998185555642472,0.5254807534951297,0.24935073120132045,0.35201507810505017,0.45624888908416833,0.24808584029363062,0.3719759130361986,0.6454695502965986,0.22883860993650534,0.44632882095386694,0.31681199418208694,0.21644215452445625,0.37298564574851145
15.0,0.0,15.0,0.0,4.0,0.0,4.0,0.0,,,,left,1.4967168001458049,540.1404291000217,ox19,522.8896883004345,524.889445700217,540.1404291000217,,False,5.0,['r'],False,0.36,0.6,0.4,2.0,2.0,0.9801625908629508,-0.3124,wait_cost,1.0,4.0,537.9230790003203,,ox19,1,2022-05-11_14h35.22.606,threat_forest,2021.2.3,60.05461373201944,False,18.0,0.55,0.58125,-0.4800000000000001,-0.23375,0,0,0.0,0.4032739092817119,-0.3124,0.0,0.36,0.6,0.4,0.1999999999999997,0.0399999999999998,5.04,5.04,0.0,2.0,1.0,5.0,0,0,0,0,-0.84,0.36763879418749457,0.23248051119585955,0.3568627013989232,0.014078259991121408,0.013880062586743801,0.05124298748297465,0.46945111770102244,0.2490667657902832,0.3153501878610251,0.4216839900167997,0.24386660258031123,0.28702243072950306,0.7139647718135791,0.20421907642276302,0.27435323625363384,0.671235860086196,0.22067828022054073,0.2934960600111105,0.5270566458486259,0.24926793791542204,0.2998185555642472,0.5254807534951297,0.24935073120132045,0.35201507810505017,0.45624888908416833,0.24808584029363062,0.3719759130361986,0.06630872569850155,0.061911878594742425,0.12685836092886382,0.0036102200098758926,0.0035971863213561848,0.044640800508874534
15.0,0.0,15.0,0.0,5.0,0.0,5.0,0.0,,,,left,1.2255792999640107,546.173867800273,ox19,522.8896883004345,524.889445700217,546.173867800273,,False,4.0,['r'],False,0.36,0.6,0.4,2.0,2.0,0.9801625908629508,-0.3564,wait_cost,1.0,3.0,543.6565149002708,,ox19,1,2022-05-11_14h35.22.606,threat_forest,2021.2.3,60.05461373201944,False,18.0,0.55,0.58125,-0.4800000000000001,-0.23375,0,0,0.0,0.2034136301455082,-0.3564,0.0,0.36,0.6,0.4,0.1999999999999997,0.0399999999999998,4.04,4.04,0.0,2.0,-1.0,4.0,0,0,0,0,-0.84,0.5587174474818984,0.2465522613612105,0.2805233357823236,0.014078259991121408,0.013880062586743801,0.05124298748297465,0.46945111770102244,0.2490667657902832,0.3153501878610251,0.4216839900167997,0.24386660258031123,0.28702243072950306,0.7139647718135791,0.20421907642276302,0.27435323625363384,0.671235860086196,0.22067828022054073,0.2934960600111105,0.5270566458486259,0.24926793791542204,0.2998185555642472,0.5254807534951297,0.24935073120132045,0.35201507810505017,0.45624888908416833,0.24808584029363062,0.3719759130361986,0.06630872569850155,0.061911878594742425,0.12685836092886382,0.001632356923581664,0.0016296923344556995,0.04160565002308848
15.0,0.0,15.0,0.0,6.0,0.0,6.0,0.0,,,,left,0.9496990996412932,550.6738647003658,ox19,522.8896883004345,524.889445700217,550.6738647003658,,False,3.0,['r'],False,0.36,0.6,0.4,2.0,2.0,0.9801625908629508,-0.5367999999999999,wait_cost,1.0,2.0,549.4231744003482,,ox19,1,2022-05-11_14h35.22.606,threat_forest,2021.2.3,60.05461373201944,False,18.0,0.55,0.58125,-0.4800000000000001,-0.23375,0,0,0.0,-0.0516100817790695,-0.5367999999999999,0.0,0.36,0.6,0.4,0.1999999999999997,0.0399999999999998,3.04,3.04,0.0,2.0,-1.0,3.0,0,0,0,0,-0.84,0.5587174474818984,0.2465522613612105,0.2805233357823236,0.014078259991121408,0.013880062586743801,0.05124298748297465,0.46945111770102244,0.2490667657902832,0.3153501878610251,0.4216839900167997,0.24386660258031123,0.28702243072950306,0.7139647718135791,0.20421907642276302,0.27435323625363384,0.671235860086196,0.22067828022054073,0.2934960600111105,0.5270566458486259,0.24926793791542204,0.2998185555642472,0.5254807534951297,0.24935073120132045,0.35201507810505017,0.45624888908416833,0.24808584029363062,0.3719759130361986,0.06630872569850155,0.061911878594742425,0.12685836092886382,6.260663407391471e-05,6.260271448328468e-05,0.03918818249688651
15.0,0.0,15.0,0.0,7.0,0.0,7.0,0.0,,,,left,1.169561400078237,555.2574840001762,ox19,522.8896883004345,524.889445700217,555.2574840001762,,False,2.0,['r'],False,0.36,0.6,0.4,2.0,2.0,0.9801625908629508,-0.64,wait_cost,1.0,1.0,553.6403267001733,,ox19,1,2022-05-11_14h35.22.606,threat_forest,2021.2.3,60.05461373201944,False,18.0,0.55,0.58125,-0.4800000000000001,-0.23375,0,0,0.0,0.156628806799691,-0.64,0.0,0.36,0.6,0.4,0.1999999999999997,0.0399999999999998,2.04,2.04,0.0,2.0,-1.0,2.0,0,0,0,0,-0.84,0.5587174474818984,0.2465522613612105,0.2805233357823236,0.014078259991121408,0.013880062586743801,0.05124298748297465,0.46945111770102244,0.2490667657902832,0.3153501878610251,0.4216839900167997,0.24386660258031123,0.28702243072950306,0.7139647718135791,0.20421907642276302,0.27435323625363384,0.671235860086196,0.22067828022054073,0.2934960600111105,0.5270566458486259,0.24926793791542204,0.2998185555642472,0.5254807534951297,0.24935073120132045,0.35201507810505017,0.45624888908416833,0.24808584029363062,0.3719759130361986,0.06630872569850155,0.061911878594742425,0.12685836092886382,9.685045889762533e-06,9.684952089648654e-06,0.039106549021356164
16.0,0.0,16.0,0.0,0.0,0.0,0.0,0.0,560.9283735002391,564.440032100305,,left,1.6300029000267386,565.9406734001823,ox19,560.9283735002391,564.440032100305,565.9406734001823,,False,5.0,['r'],False,0.24,0.4,0.4,2.0,2.0,0.9801625908629508,-0.0217856454141892,wait_cost,1.0,4.0,,,ox19,1,2022-05-11_14h35.22.606,threat_forest,2021.2.3,60.05461373201944,False,46.0,0.3666666666666667,0.4583333333333333,-1.0533333333333337,-0.7666666666666668,0,0,0.0,0.4885817939745966,-0.0217856454141892,0.24,0.24,0.4,0.4,-0.6000000000000001,-0.4400000000000001,4.56,4.56,0.0,2.0,-1.0,5.0,0,1,0,0,-0.0217856454141892,0.5587174474818984,0.2465522613612105,0.2805233357823236,0.6523194701730486,0.22679877900620168,0.3558426887639173,0.46945111770102244,0.2490667657902832,0.3153501878610251,0.4216839900167997,0.24386660258031123,0.28702243072950306,0.7139647718135791,0.20421907642276302,0.27435323625363384,0.46512896060671627,0.24878401061163205,0.2965068906493999,0.5056936165674485,0.2499675827303829,0.3817763908270848,0.46996037101770605,0.24909762069060612,0.3468896836782669,0.45624888908416833,0.24808584029363062,0.3719759130361986,0.38174403211433044,0.23601552605942347,0.4600642645039791,0.409823244677722,0.241868152799546,0.41220900883375644
