miniblock.thisRepN,miniblock.thisTrialN,miniblock.thisN,miniblock.thisIndex,day.thisRepN,day.thisTrialN,day.thisN,day.thisIndex,forest.started,fixation_forest.started,fixation_forest.stopped,key_resp.keys,key_resp.rt,key_resp.started,Subject_ID,weather_left.started,weather_left.stopped,weather_right.started,weather_right.stopped,foraging T/F,in_LP,p/r heuristic,good_weather.T/F,p_succ_correct,p_succ_uncorrected,r_threat,n_oponents,gain_if_succ,weather_entropy,OP_value_difference,action_outcome,forest_side_L=0_R=1,out_LP,fixation_day.started,fixation_day.stopped,participant,session,date,expName,psychopyVersion,frameRate,foraging T/F NaNs,fora_NR,forest_mean_p,mvt_cutoff_p,forest_mean_ev,mvt_cutoff_ev,mvt_policy_eg,mvt_policy_p,fora_response,logRT,optimal policy,$\mathit{p}$ success cor + cap,$\mathit{p}$ success cor,$\mathit{p}$ success,risk threat encounter,expected gain naive,expected gain correct,expected state no bounds,expected state with bounds,weather type,gain magnitude,win stay lose shift,continuous energy state,binary energy state,$\mathit{p}$ success based MVT,expected gain based MVT,weather type fit,weather type_uncertain,weather type_uncertain_fit,risk threat encounter fit,risk threat encounter_uncertain,risk threat encounter_uncertain_fit,win stay lose shift fit,win stay lose shift_uncertain,win stay lose shift_uncertain_fit,$\mathit{p}$ success fit,$\mathit{p}$ success_uncertain,$\mathit{p}$ success_uncertain_fit,expected gain naive fit,expected gain naive_uncertain,expected gain naive_uncertain_fit,expected gain based MVT fit,expected gain based MVT_uncertain,expected gain based MVT_uncertain_fit,$\mathit{p}$ success cor fit,$\mathit{p}$ success cor_uncertain,$\mathit{p}$ success cor_uncertain_fit,binary energy state fit,binary energy state_uncertain,binary energy state_uncertain_fit,$\mathit{p}$ success cor + cap fit,$\mathit{p}$ success cor + cap_uncertain,$\mathit{p}$ success cor + cap_uncertain_fit,optimal policy fit,optimal policy_uncertain,optimal policy_uncertain_fit
0.0,0.0,0.0,0.0,0.0,0.0,0.0,0.0,29.32623040000908,32.83160359994508,None,right,1.2613427999895066,35.49442160013132,xp7,29.32623040000908,32.83160359994508,35.49442160013132,None,True,4.0,['r'],False,0.2222222222222222,0.6666666666666666,0.6666666666666666,2.0,2.0,0.77250688571426,-0.0225879671967348,unsucc_cost,1.0,2.0,,,xp7,1,2023-04-13_15h18.15.054,threat_forest,2021.2.3,60.03500040616538,True,68.0,0.5,0.5,-1.2222222222222223,-1.2222222222222223,0,0,1,0.2321768677704506,-0.0225879671967348,0.2222222222222222,0.2222222222222222,0.6666666666666666,0.3333333333333333,-1.3333333333333337,-1.777777777777778,2.2222222222222223,2.2222222222222223,0.0,2.0,,4.0,0,0,0,0.5731789240345022,0.24464484507715256,0.19542692563387298,0.5304432246132833,0.2490732100751452,0.15229166894330737,,,,0.65327042121252,0.2265081779813367,0.13289481904538875,0.5140741517095814,0.24980191825365566,0.18550180834422014,0.4970611518167012,0.2499913631713555,0.18573814783312326,0.4586297425603431,0.24828850179937648,0.1726447755894269,0.49491401637177773,0.2499741327705334,0.16179913733950382,0.3655281600319146,0.23191732425559763,0.19499131226972205,0.41571274401390895,0.24289565847833516,0.21773837559189035
0.0,0.0,0.0,0.0,1.0,0.0,1.0,0.0,,,,right,0.8958749000448734,42.32327469997108,xp7,29.32623040000908,32.83160359994508,42.32327469997108,None,True,2.0,['r'],False,0.2222222222222222,0.6666666666666666,0.6666666666666666,2.0,2.0,0.77250688571426,-0.012283760097546,succ_gain,1.0,4.0,38.7927737000864,None,xp7,1,2023-04-13_15h18.15.054,threat_forest,2021.2.3,60.03500040616538,True,68.0,0.5,0.5,-1.2222222222222223,-1.2222222222222223,0,0,1,-0.1099544962406863,-0.012283760097546,0.2222222222222222,0.2222222222222222,0.6666666666666666,0.3333333333333333,-1.3333333333333337,-1.777777777777778,0.2222222222222221,0.2222222222222221,0.0,2.0,-1.0,2.0,0,0,0,0.5731789240345022,0.24464484507715256,0.19542692563387298,0.5304432246132833,0.2490732100751452,0.15229166894330737,0.6290862537932705,0.2333367390816194,0.16859267961735278,0.65327042121252,0.2265081779813367,0.13289481904538875,0.5140741517095814,0.24980191825365566,0.18550180834422014,0.4970611518167012,0.2499913631713555,0.18573814783312326,0.4586297425603431,0.24828850179937648,0.1726447755894269,0.49491401637177773,0.2499741327705334,0.16179913733950382,0.3655281600319146,0.23191732425559763,0.19499131226972205,0.45065678163309747,0.2475652468011962,0.22222266760707102
0.0,0.0,0.0,0.0,2.0,0.0,2.0,0.0,,,,left,0.9973297000396996,48.55050819995813,xp7,29.32623040000908,32.83160359994508,48.55050819995813,None,False,4.0,['r'],False,0.2222222222222222,0.6666666666666666,0.6666666666666666,2.0,2.0,0.77250688571426,-0.043652834933699,wait_cost,1.0,3.0,45.25337669998408,None,xp7,1,2023-04-13_15h18.15.054,threat_forest,2021.2.3,60.03500040616538,False,68.0,0.5,0.5,-1.2222222222222223,-1.2222222222222223,0,0,0,-0.0026738715708372,-0.043652834933699,0.2222222222222222,0.2222222222222222,0.6666666666666666,0.3333333333333333,-1.3333333333333337,-1.777777777777778,2.2222222222222223,2.2222222222222223,0.0,2.0,1.0,4.0,0,0,0,0.5731789240345022,0.24464484507715256,0.19542692563387298,0.5304432246132833,0.2490732100751452,0.15229166894330737,0.25372428200467567,0.1893482707258875,0.1465675207824993,0.65327042121252,0.2265081779813367,0.13289481904538875,0.5140741517095814,0.24980191825365566,0.18550180834422014,0.4970611518167012,0.2499913631713555,0.18573814783312326,0.4586297425603431,0.24828850179937648,0.1726447755894269,0.49491401637177773,0.2499741327705334,0.16179913733950382,0.3655281600319146,0.23191732425559763,0.19499131226972205,0.3471779520747593,0.22664542166793547,0.20213297268797392
0.0,0.0,0.0,0.0,3.0,0.0,3.0,0.0,,,,left,1.1789800999686122,53.19622640009038,xp7,53.19622640009038,None,49.56622559996322,51.580688500078395,True,3.0,['r'],True,0.3333333333333333,0.3333333333333333,0.0,0.0,2.0,0.5793801642856949,0.1040809327846364,unsucc_cost,0.0,1.0,51.5806885000784,None,xp7,1,2023-04-13_15h18.15.054,threat_forest,2021.2.3,60.03500040616538,True,68.0,0.5,0.5,-1.2222222222222223,-1.2222222222222223,1,0,1,0.1646497426753921,0.1040809327846364,0.3333333333333333,0.3333333333333333,0.3333333333333333,1.0,-0.6666666666666669,-0.6666666666666669,2.333333333333333,2.333333333333333,1.0,2.0,-1.0,3.0,0,0,1,0.5418948990060071,0.24824481743727653,0.1361182784972952,0.5683424485821307,0.24532930972179887,0.1712100245031909,0.6290862537932705,0.2333367390816194,0.16859267961735278,0.5038067704082951,0.24998550849905848,0.1813404616730055,0.6031027719322655,0.23936981841988328,0.16055823893636056,0.6162879479841092,0.2364771131536451,0.14333700218317247,0.5497868522546308,0.24752126934257554,0.17201968797790934,0.49491401637177773,0.2499741327705334,0.16179913733950382,0.5310997822906649,0.24903280354147325,0.20480538997763123,0.8037469642670085,0.15773778169857658,0.1359596918043575
0.0,0.0,0.0,0.0,4.0,0.0,4.0,0.0,,,,right,1.5614585999865085,59.157245400128886,xp7,54.39497100003064,56.40953680011444,59.157245400128886,None,True,1.0,['r'],False,0.2222222222222222,0.6666666666666666,0.6666666666666666,2.0,2.0,0.77250688571426,0.0915637860082303,figh_cost,1.0,0.0,56.40953680011444,None,xp7,1,2023-04-13_15h18.15.054,threat_forest,2021.2.3,60.03500040616538,True,68.0,0.5,0.5,-1.2222222222222223,-1.2222222222222223,0,0,1,0.4456203844125812,0.0915637860082303,1.0,0.2222222222222222,0.6666666666666666,0.3333333333333333,-1.3333333333333337,-1.777777777777778,-0.7777777777777779,0.0,0.0,2.0,-1.0,1.0,1,0,0,0.5731789240345022,0.24464484507715256,0.19542692563387298,0.5304432246132833,0.2490732100751452,0.15229166894330737,0.6290862537932705,0.2333367390816194,0.16859267961735278,0.65327042121252,0.2265081779813367,0.13289481904538875,0.5140741517095814,0.24980191825365566,0.18550180834422014,0.4970611518167012,0.2499913631713555,0.18573814783312326,0.4586297425603431,0.24828850179937648,0.1726447755894269,0.9374994955204532,0.05859419141934894,0.1809258779128408,0.9849411641559491,0.01483206730707283,0.07051384100822931,0.7750276142409094,0.17435981140495352,0.15192213430137239
1.0,0.0,1.0,0.0,0.0,0.0,0.0,0.0,65.927009700099,69.43080850015394,None,left,0.9582919999957084,72.86169990012422,xp7,72.86169990012422,None,65.927009700099,69.43080850015394,True,5.0,['r'],True,0.5,0.5,0.0,0.0,1.0,0.6309297535714574,0.0772781267414693,unsucc_cost,0.0,3.0,,,xp7,1,2023-04-13_15h18.15.054,threat_forest,2021.2.3,60.03500040616538,True,30.0,0.5833333333333333,0.5416666666666666,-1.25,-1.2361111111111112,1,0,1,-0.0426027457882009,0.0772781267414693,0.5,0.5,0.5,1.0,-0.5,-0.5,4.5,4.5,1.0,1.0,-1.0,5.0,0,0,1,0.5418948990060071,0.24824481743727653,0.1361182784972952,0.5683424485821307,0.24532930972179887,0.1712100245031909,0.6290862537932705,0.2333367390816194,0.16859267961735278,0.5803807711974849,0.24353893162169757,0.1680379033035035,0.6245567641180495,0.23448561251244057,0.14887990657798245,0.6162879479841092,0.2364771131536451,0.14333700218317247,0.6788112494374021,0.2180265370746352,0.14798943276348445,0.49491401637177773,0.2499741327705334,0.16179913733950382,0.7574177628940236,0.18373609534663626,0.16736402140178086,0.738758435148845,0.19299440964527478,0.16981728357739534
1.0,0.0,1.0,0.0,1.0,0.0,1.0,0.0,,,,left,0.8972976999357343,78.78889660001732,xp7,78.78889660001732,None,65.927009700099,69.43080850015394,True,3.0,['r'],True,0.5,0.5,0.0,0.0,1.0,0.6309297535714574,0.1098696443115568,succ_gain,0.0,4.0,75.85807509999722,None,xp7,1,2023-04-13_15h18.15.054,threat_forest,2021.2.3,60.03500040616538,True,30.0,0.5833333333333333,0.5416666666666666,-1.25,-1.2361111111111112,1,0,1,-0.1083675879983229,0.1098696443115568,0.5,0.5,0.5,1.0,-0.5,-0.5,2.5,2.5,1.0,1.0,-1.0,3.0,0,0,1,0.5418948990060071,0.24824481743727653,0.1361182784972952,0.5683424485821307,0.24532930972179887,0.1712100245031909,0.6290862537932705,0.2333367390816194,0.16859267961735278,0.5803807711974849,0.24353893162169757,0.1680379033035035,0.6245567641180495,0.23448561251244057,0.14887990657798245,0.6162879479841092,0.2364771131536451,0.14333700218317247,0.6788112494374021,0.2180265370746352,0.14798943276348445,0.49491401637177773,0.2499741327705334,0.16179913733950382,0.7574177628940236,0.18373609534663626,0.16736402140178086,0.8160582466332336,0.15010718473512608,0.12863188843746504
1.0,0.0,1.0,0.0,2.0,0.0,2.0,0.0,,,,right,1.8708700998686247,82.4022844999563,xp7,79.70481880009174,81.71931800013408,82.4022844999563,None,True,4.0,['r'],False,0.2222222222222222,0.6666666666666666,0.6666666666666666,2.0,1.0,0.77250688571426,-0.0770792252514861,figh_cost,1.0,1.0,81.71931800013408,None,xp7,1,2023-04-13_15h18.15.054,threat_forest,2021.2.3,60.03500040616538,True,30.0,0.5833333333333333,0.5416666666666666,-1.25,-1.2361111111111112,0,0,1,0.6264036166981799,-0.0770792252514861,0.2222222222222222,0.2222222222222222,0.6666666666666666,0.3333333333333333,-2.0,-2.0,2.0,2.0,0.0,1.0,1.0,4.0,0,0,0,0.5731789240345022,0.24464484507715256,0.19542692563387298,0.5304432246132833,0.2490732100751452,0.15229166894330737,0.25372428200467567,0.1893482707258875,0.1465675207824993,0.65327042121252,0.2265081779813367,0.13289481904538875,0.424143348632907,0.2442457684433713,0.17221683114484287,0.4970611518167012,0.2499913631713555,0.18573814783312326,0.4586297425603431,0.24828850179937648,0.1726447755894269,0.49491401637177773,0.2499741327705334,0.16179913733950382,0.3655281600319146,0.23191732425559763,0.19499131226972205,0.2509890547509152,0.18799354914615732,0.1650148647655621
1.0,0.0,1.0,0.0,3.0,0.0,3.0,0.0,,,,left,1.1734552001580596,87.71390000008978,xp7,79.70481880009174,81.71931800013408,87.71390000008978,None,False,1.0,['r'],False,0.2222222222222222,0.6666666666666666,0.6666666666666666,2.0,1.0,0.77250688571426,0.0481395747599451,wait_cost,1.0,0.0,86.31504829996265,None,xp7,1,2023-04-13_15h18.15.054,threat_forest,2021.2.3,60.03500040616538,False,30.0,0.5833333333333333,0.5416666666666666,-1.25,-1.2361111111111112,0,0,0,0.1599525593195015,0.0481395747599451,1.0,0.2222222222222222,0.6666666666666666,0.3333333333333333,-2.0,-2.0,-1.0,0.0,0.0,1.0,-1.0,1.0,1,0,0,0.5731789240345022,0.24464484507715256,0.19542692563387298,0.5304432246132833,0.2490732100751452,0.15229166894330737,0.6290862537932705,0.2333367390816194,0.16859267961735278,0.65327042121252,0.2265081779813367,0.13289481904538875,0.424143348632907,0.2442457684433713,0.17221683114484287,0.4970611518167012,0.2499913631713555,0.18573814783312326,0.4586297425603431,0.24828850179937648,0.1726447755894269,0.9374994955204532,0.05859419141934894,0.1809258779128408,0.9849411641559491,0.01483206730707283,0.07051384100822931,0.6540515827628995,0.2262681098482455,0.20177063317037972
2.0,0.0,2.0,0.0,0.0,0.0,0.0,0.0,92.43964860006236,95.93935600016266,None,right,1.511283400002867,96.62658470007592,xp7,92.43964860006236,95.93935600016266,96.62658470007592,None,True,5.0,['p'],False,0.16,0.2,0.2,2.0,1.0,0.8198746470064713,-0.0074793948520252,unsucc_cost,1.0,3.0,,,xp7,1,2023-04-13_15h18.15.054,threat_forest,2021.2.3,60.03500040616538,True,71.0,0.35,0.4666666666666666,-1.7350000000000003,-1.4925000000000002,0,0,1,0.4129592236143837,-0.0074793948520252,0.16,0.16,0.2,0.8,-2.0,-1.7200000000000004,3.28,3.28,0.0,1.0,-1.0,5.0,0,0,0,0.5731789240345022,0.24464484507715256,0.19542692563387298,0.5570359619179585,0.2467468990480932,0.16404678393009142,0.6290862537932705,0.2333367390816194,0.16859267961735278,0.4422439385248313,0.2466642373628766,0.17448699447785615,0.424143348632907,0.2442457684433713,0.17221683114484287,0.4970611518167012,0.2499913631713555,0.18573814783312326,0.4083875260852389,0.24160715462321725,0.16720127888768535,0.49491401637177773,0.2499741327705334,0.16179913733950382,0.2829216897887856,0.20287700723584376,0.17833948948790962,0.4671394556846961,0.248920184627302,0.22352383945661636
2.0,0.0,2.0,0.0,1.0,0.0,1.0,0.0,,,,left,0.8745546999853104,103.33274010010064,xp7,103.33274010010064,None,98.15439480007626,100.16863480000757,True,3.0,['p'],True,0.25,0.5,0.5,1.0,1.0,0.9463946303571862,0.0092099508066405,succ_gain,0.0,4.0,100.16863480000757,None,xp7,1,2023-04-13_15h18.15.054,threat_forest,2021.2.3,60.03500040616538,True,71.0,0.35,0.4666666666666666,-1.7350000000000003,-1.4925000000000002,0,0,1,-0.1340404364678606,0.0092099508066405,0.25,0.25,0.5,0.5,-2.0,-1.75,1.25,1.25,1.0,1.0,-1.0,3.0,0,0,0,0.5418948990060071,0.24824481743727653,0.1361182784972952,0.5399684595025954,0.24840252224498938,0.15568073105582703,0.6290862537932705,0.2333367390816194,0.16859267961735278,0.5803807711974849,0.24353893162169757,0.1680379033035035,0.424143348632907,0.2442457684433713,0.17221683114484287,0.4970611518167012,0.2499913631713555,0.18573814783312326,0.4813978949791964,0.24965396168879492,0.17375725728038469,0.49491401637177773,0.2499741327705334,0.16179913733950382,0.4055367966714546,0.24107670321690988,0.2002433332842132,0.5247241000405849,0.24938871887718317,0.22397378156078315
2.0,0.0,2.0,0.0,2.0,0.0,2.0,0.0,,,,right,0.9107096001971512,107.86560679995456,xp7,104.23171900003216,106.24629299994558,107.86560679995456,None,True,4.0,['p'],False,0.16,0.2,0.2,2.0,1.0,0.8198746470064713,0.0037162672499999,unsucc_cost,1.0,2.0,106.24629299994558,None,xp7,1,2023-04-13_15h18.15.054,threat_forest,2021.2.3,60.03500040616538,True,71.0,0.35,0.4666666666666666,-1.7350000000000003,-1.4925000000000002,0,0,1,-0.0935312029056178,0.0037162672499999,0.16,0.16,0.2,0.8,-2.0,-1.7200000000000004,2.28,2.28,0.0,1.0,1.0,4.0,0,0,0,0.5731789240345022,0.24464484507715256,0.19542692563387298,0.5570359619179585,0.2467468990480932,0.16404678393009142,0.25372428200467567,0.1893482707258875,0.1465675207824993,0.4422439385248313,0.2466642373628766,0.17448699447785615,0.424143348632907,0.2442457684433713,0.17221683114484287,0.4970611518167012,0.2499913631713555,0.18573814783312326,0.4083875260852389,0.24160715462321725,0.16720127888768535,0.49491401637177773,0.2499741327705334,0.16179913733950382,0.2829216897887856,0.20287700723584376,0.17833948948790962,0.5057664525650111,0.24996674802481547,0.22452887364000976
2.0,0.0,2.0,0.0,3.0,0.0,3.0,0.0,,,,left,2.7859280998818576,112.0246815001592,xp7,112.0246815001592,None,108.79433450009674,110.8087305999361,True,2.0,['p'],True,0.25,0.5,0.5,1.0,1.0,0.9463946303571862,0.0145074218749999,unsucc_cost,0.0,0.0,110.8087305999361,None,xp7,1,2023-04-13_15h18.15.054,threat_forest,2021.2.3,60.03500040616538,True,71.0,0.35,0.4666666666666666,-1.7350000000000003,-1.4925000000000002,0,0,1,1.0245810673727092,0.0145074218749999,0.25,0.25,0.5,0.5,-2.0,-1.75,0.25,0.25,1.0,1.0,-1.0,2.0,0,0,0,0.5418948990060071,0.24824481743727653,0.1361182784972952,0.5399684595025954,0.24840252224498938,0.15568073105582703,0.6290862537932705,0.2333367390816194,0.16859267961735278,0.5803807711974849,0.24353893162169757,0.1680379033035035,0.424143348632907,0.2442457684433713,0.17221683114484287,0.4970611518167012,0.2499913631713555,0.18573814783312326,0.4813978949791964,0.24965396168879492,0.17375725728038469,0.49491401637177773,0.2499741327705334,0.16179913733950382,0.4055367966714546,0.24107670321690988,0.2002433332842132,0.5429380289420553,0.2481563256705712,0.22279029157539895
3.0,0.0,3.0,0.0,0.0,0.0,0.0,0.0,119.2098505999893,122.71425010007806,None,left,0.9991464000195264,123.46558349998668,xp7,123.46558349998668,None,119.2098505999893,122.71425010007806,True,5.0,['r'],True,0.4444444444444445,0.6666666666666666,0.3333333333333333,2.0,2.0,0.9656336071428248,-0.0307726625514404,figh_cost,0.0,2.0,,,xp7,1,2023-04-13_15h18.15.054,threat_forest,2021.2.3,60.03500040616538,True,47.0,0.6333333333333333,0.4916666666666666,-0.0777777777777778,-0.9063888888888892,1,0,1,-0.0008539645043901,-0.0307726625514404,0.4444444444444445,0.4444444444444445,0.6666666666666666,0.6666666666666667,-0.3333333333333335,-0.5555555555555556,4.444444444444445,4.444444444444445,1.0,2.0,-1.0,5.0,0,0,1,0.5418948990060071,0.24824481743727653,0.1361182784972952,0.5494645863089896,0.24755325470128056,0.15997217683188558,0.6290862537932705,0.2333367390816194,0.16859267961735278,0.65327042121252,0.2265081779813367,0.13289481904538875,0.6455326660674725,0.22882024310729354,0.13533378094362414,0.6162879479841092,0.2364771131536451,0.14333700218317247,0.637719388400288,0.23103337005865063,0.15858649508966222,0.49491401637177773,0.2499741327705334,0.16179913733950382,0.6900962761494194,0.2138634057941237,0.18463913014535818,0.3885307792389837,0.23757461282293177,0.21262847705370028
3.0,0.0,3.0,0.0,1.0,0.0,1.0,0.0,,,,right,1.7816592000890523,127.75989710004067,xp7,124.49627660005352,126.51116370013915,127.75989710004067,None,True,2.0,['r'],False,0.6,0.6,0.0,0.0,2.0,0.6126016192893442,0.0858461728395062,unsucc_cost,1.0,0.0,126.51116370013916,None,xp7,1,2023-04-13_15h18.15.054,threat_forest,2021.2.3,60.03500040616538,True,47.0,0.6333333333333333,0.4916666666666666,-0.0777777777777778,-0.9063888888888892,1,1,1,0.5775450650175463,0.0858461728395062,0.6,0.6,0.6,1.0,0.3999999999999999,0.3999999999999999,2.4,2.4,0.0,2.0,-1.0,2.0,0,1,1,0.5731789240345022,0.24464484507715256,0.19542692563387298,0.5683424485821307,0.24532930972179887,0.1712100245031909,0.6290862537932705,0.2333367390816194,0.16859267961735278,0.6247601221188597,0.2344349119288872,0.1492516923167071,0.7306195645845106,0.1968146164308508,0.05880704297459116,0.6162879479841092,0.2364771131536451,0.14333700218317247,0.7460048479279271,0.18948161479595746,0.12473301662784309,0.49491401637177773,0.2499741327705334,0.16179913733950382,0.8515718345468376,0.1263972451533711,0.13448571737770051,0.7609539266251971,0.18190304817889114,0.15916604406283513
4.0,0.0,4.0,0.0,0.0,0.0,0.0,0.0,134.86441310006194,138.35461740009487,None,left,1.139663899783045,140.48563470016234,xp7,140.48563470016234,None,134.86441310006194,138.35461740009487,True,4.0,['p'],True,0.24,0.3,0.2,2.0,1.0,0.9003120349047065,0.0028177647265513,unsucc_cost,0.0,2.0,,,xp7,1,2023-04-13_15h18.15.054,threat_forest,2021.2.3,60.03500040616538,True,9.0,0.4,0.5166666666666666,-1.3025,-0.6901388888888889,0,0,1,0.130733394185328,0.0028177647265513,0.24,0.24,0.3,0.8,-1.7,-1.48,2.52,2.52,1.0,1.0,-1.0,4.0,0,0,0,0.5418948990060071,0.24824481743727653,0.1361182784972952,0.5570359619179585,0.2467468990480932,0.16404678393009142,0.6290862537932705,0.2333367390816194,0.16859267961735278,0.48835348536440415,0.24986435869684284,0.18109046817318603,0.46434988799790333,0.24872906951423795,0.18293658394815304,0.4970611518167012,0.2499913631713555,0.18573814783312326,0.4731874813805323,0.2492810888452807,0.173453466436963,0.49491401637177773,0.2499741327705334,0.16179913733950382,0.3909577694882306,0.23810979196501816,0.19854209564475286,0.5026628645352232,0.24999290915246702,0.2245539966546579
4.0,0.0,4.0,0.0,1.0,0.0,1.0,0.0,,,,right,1.7044543998781592,144.19465439999476,xp7,144.19465439999476,None,134.86441310006194,138.35461740009487,False,2.0,['p'],True,0.24,0.3,0.2,2.0,1.0,0.9003120349047065,-0.0024622735211894,wait_cost,0.0,1.0,143.66136569995433,None,xp7,1,2023-04-13_15h18.15.054,threat_forest,2021.2.3,60.03500040616538,False,9.0,0.4,0.5166666666666666,-1.3025,-0.6901388888888889,0,0,0,0.5332450594530711,-0.0024622735211894,0.24,0.24,0.3,0.8,-1.7,-1.48,0.52,0.52,1.0,1.0,-1.0,2.0,0,0,0,0.5418948990060071,0.24824481743727653,0.1361182784972952,0.5570359619179585,0.2467468990480932,0.16404678393009142,0.6290862537932705,0.2333367390816194,0.16859267961735278,0.48835348536440415,0.24986435869684284,0.18109046817318603,0.46434988799790333,0.24872906951423795,0.18293658394815304,0.4970611518167012,0.2499913631713555,0.18573814783312326,0.4731874813805323,0.2492810888452807,0.173453466436963,0.49491401637177773,0.2499741327705334,0.16179913733950382,0.3909577694882306,0.23810979196501816,0.19854209564475286,0.484428378206251,0.2497575245947124,0.2243279525111799
4.0,0.0,4.0,0.0,2.0,0.0,2.0,0.0,,,,left,0.7501203001011163,151.3878282001242,xp7,151.3878282001242,None,134.86441310006194,138.35461740009487,True,1.0,['p'],True,0.24,0.3,0.2,2.0,1.0,0.9003120349047065,0.0295931337890624,unsucc_cost,0.0,0.0,147.94075340009294,None,xp7,1,2023-04-13_15h18.15.054,threat_forest,2021.2.3,60.03500040616538,True,9.0,0.4,0.5166666666666666,-1.3025,-0.6901388888888889,0,0,1,-0.2875216851796854,0.0295931337890624,1.0,0.24,0.3,0.8,-1.7,-1.48,-0.48,0.0,1.0,1.0,-1.0,1.0,1,0,0,0.5418948990060071,0.24824481743727653,0.1361182784972952,0.5570359619179585,0.2467468990480932,0.16404678393009142,0.6290862537932705,0.2333367390816194,0.16859267961735278,0.48835348536440415,0.24986435869684284,0.18109046817318603,0.46434988799790333,0.24872906951423795,0.18293658394815304,0.4970611518167012,0.2499913631713555,0.18573814783312326,0.4731874813805323,0.2492810888452807,0.173453466436963,0.9374994955204532,0.05859419141934894,0.1809258779128408,0.9849411641559491,0.01483206730707283,0.07051384100822931,0.5940242328161727,0.2411594436433302,0.21607105638023003
5.0,0.0,5.0,0.0,0.0,0.0,0.0,0.0,155.61076860013418,159.11352010001428,None,left,1.1967889999505132,160.8306621001102,xp7,160.8306621001102,None,155.61076860013418,159.11352010001428,True,4.0,['r'],True,0.2040816326530612,0.2857142857142857,0.2857142857142857,2.0,2.0,0.9335459102197724,-0.0038600655291852,unsucc_cost,0.0,2.0,,,xp7,1,2023-04-13_15h18.15.054,threat_forest,2021.2.3,60.03500040616538,True,17.0,0.2678571428571428,0.3339285714285714,-1.2346938775510203,-1.2685969387755105,0,0,1,0.1796421369780164,-0.0038600655291852,0.2040816326530612,0.2040816326530612,0.2857142857142857,0.7142857142857143,-1.7142857142857144,-1.469387755102041,2.5306122448979598,2.5306122448979598,1.0,2.0,-1.0,4.0,0,0,0,0.5418948990060071,0.24824481743727653,0.1361182784972952,0.5521714660051983,0.24727813813486843,0.16136237222507943,0.6290862537932705,0.2333367390816194,0.16859267961735278,0.4817357374149702,0.24966641671222514,0.18068201344531337,0.4624204780901301,0.2485877795330256,0.18259875393222502,0.4970611518167012,0.2499913631713555,0.18573814783312326,0.44384752555031814,0.24684689961317782,0.1714702584540508,0.49491401637177773,0.2499741327705334,0.16179913733950382,0.3403312329700844,0.22450588483514655,0.19074156610808266,0.4796060801078117,0.24958408803143095,0.22416139817231973
5.0,0.0,5.0,0.0,1.0,0.0,1.0,0.0,,,,left,1.955136300064624,165.75770590011962,xp7,165.75770590011962,None,155.61076860013418,159.11352010001428,True,2.0,['r'],True,0.2040816326530612,0.2857142857142857,0.2857142857142857,2.0,2.0,0.9335459102197724,-0.0023528380842746,figh_cost,0.0,0.0,164.0588992999401,None,xp7,1,2023-04-13_15h18.15.054,threat_forest,2021.2.3,60.03500040616538,True,17.0,0.2678571428571428,0.3339285714285714,-1.2346938775510203,-1.2685969387755105,0,0,1,0.6704599097102255,-0.0023528380842746,0.2040816326530612,0.2040816326530612,0.2857142857142857,0.7142857142857143,-1.7142857142857144,-1.469387755102041,0.5306122448979593,0.5306122448979593,1.0,2.0,-1.0,2.0,0,0,0,0.5418948990060071,0.24824481743727653,0.1361182784972952,0.5521714660051983,0.24727813813486843,0.16136237222507943,0.6290862537932705,0.2333367390816194,0.16859267961735278,0.4817357374149702,0.24966641671222514,0.18068201344531337,0.4624204780901301,0.2485877795330256,0.18259875393222502,0.4970611518167012,0.2499913631713555,0.18573814783312326,0.44384752555031814,0.24684689961317782,0.1714702584540508,0.49491401637177773,0.2499741327705334,0.16179913733950382,0.3403312329700844,0.22450588483514655,0.19074156610808266,0.4848060579680124,0.24976914412552856,0.22433911096148781
6.0,0.0,6.0,0.0,0.0,0.0,0.0,0.0,171.63065070006996,175.1299501999747,None,left,0.9585397001355886,178.2793674999848,xp7,178.2793674999848,None,171.63065070006996,175.1299501999747,True,5.0,['r'],True,0.4285714285714285,0.4285714285714285,0.0,0.0,2.0,0.6216097450797565,0.0526055132283747,unsucc_cost,0.0,3.0,,,xp7,1,2023-04-13_15h18.15.054,threat_forest,2021.2.3,60.03500040616538,True,52.0,0.4365079365079364,0.3521825396825396,-0.5626102292768962,-0.8986520534139583,1,1,1,-0.0423442983290503,0.0526055132283747,0.4285714285714285,0.4285714285714285,0.4285714285714285,1.0,-0.285714285714286,-0.285714285714286,4.7142857142857135,4.7142857142857135,1.0,2.0,-1.0,5.0,0,1,1,0.5418948990060071,0.24824481743727653,0.1361182784972952,0.5683424485821307,0.24532930972179887,0.1712100245031909,0.6290862537932705,0.2333367390816194,0.16859267961735278,0.5478187201766885,0.24771337000066357,0.17665188732207576,0.6514283972212662,0.22706944051499847,0.1311475416748057,0.6162879479841092,0.2364771131536451,0.14333700218317247,0.6255658717031672,0.23423321186342375,0.16119350350445172,0.49491401637177773,0.2499741327705334,0.16179913733950382,0.6690732845790164,0.2214142244416629,0.1889687968597711,0.6678785690609788,0.2218167860500382,0.19749594461431133
6.0,0.0,6.0,0.0,1.0,0.0,1.0,0.0,,,,left,0.7819693998899311,182.525361899985,xp7,182.525361899985,None,171.63065070006996,175.1299501999747,True,3.0,['r'],True,0.4285714285714285,0.4285714285714285,0.0,0.0,2.0,0.6216097450797565,0.1511552987655383,unsucc_cost,0.0,1.0,181.2761777001433,None,xp7,1,2023-04-13_15h18.15.054,threat_forest,2021.2.3,60.03500040616538,True,52.0,0.4365079365079364,0.3521825396825396,-0.5626102292768962,-0.8986520534139583,1,1,1,-0.2459396697779826,0.1511552987655383,0.4285714285714285,0.4285714285714285,0.4285714285714285,1.0,-0.285714285714286,-0.285714285714286,2.714285714285714,2.714285714285714,1.0,2.0,-1.0,3.0,0,1,1,0.5418948990060071,0.24824481743727653,0.1361182784972952,0.5683424485821307,0.24532930972179887,0.1712100245031909,0.6290862537932705,0.2333367390816194,0.16859267961735278,0.5478187201766885,0.24771337000066357,0.17665188732207576,0.6514283972212662,0.22706944051499847,0.1311475416748057,0.6162879479841092,0.2364771131536451,0.14333700218317247,0.6255658717031672,0.23423321186342375,0.16119350350445172,0.49491401637177773,0.2499741327705334,0.16179913733950382,0.6690732845790164,0.2214142244416629,0.1889687968597711,0.8869883579808499,0.10024001078728563,0.08074351916535011
6.0,0.0,6.0,0.0,2.0,0.0,2.0,0.0,,,,left,0.8196233999915421,188.8860782000702,xp7,188.8860782000702,None,171.63065070006996,175.1299501999747,True,1.0,['r'],True,0.4285714285714285,0.4285714285714285,0.0,0.0,2.0,0.6216097450797565,0.2143087570706274,succ_gain,0.0,3.0,185.3390301000327,None,xp7,1,2023-04-13_15h18.15.054,threat_forest,2021.2.3,60.03500040616538,True,52.0,0.4365079365079364,0.3521825396825396,-0.5626102292768962,-0.8986520534139583,1,1,1,-0.1989103125228246,0.2143087570706274,1.0,0.4285714285714285,0.4285714285714285,1.0,-0.285714285714286,-0.285714285714286,0.714285714285714,0.714285714285714,1.0,2.0,-1.0,1.0,1,1,1,0.5418948990060071,0.24824481743727653,0.1361182784972952,0.5683424485821307,0.24532930972179887,0.1712100245031909,0.6290862537932705,0.2333367390816194,0.16859267961735278,0.5478187201766885,0.24771337000066357,0.17665188732207576,0.6514283972212662,0.22706944051499847,0.1311475416748057,0.6162879479841092,0.2364771131536451,0.14333700218317247,0.6255658717031672,0.23423321186342375,0.16119350350445172,0.9374994955204532,0.05859419141934894,0.1809258779128408,0.9849411641559491,0.01483206730707283,0.07051384100822931,0.9494528388824226,0.04799214562053102,0.030568928092627595
6.0,0.0,6.0,0.0,3.0,0.0,3.0,0.0,,,,right,1.9329681999515744,194.15113430004567,xp7,189.73520390014164,191.74964860011823,194.15113430004567,None,True,3.0,['r'],False,0.345679012345679,0.4444444444444444,0.2222222222222222,2.0,2.0,0.9685033186841367,0.0350802265993923,unsucc_cost,1.0,1.0,191.74964860011823,None,xp7,1,2023-04-13_15h18.15.054,threat_forest,2021.2.3,60.03500040616538,True,52.0,0.4365079365079364,0.3521825396825396,-0.5626102292768962,-0.8986520534139583,1,0,1,0.6590567489535596,0.0350802265993923,0.345679012345679,0.345679012345679,0.4444444444444444,0.7777777777777778,-0.888888888888889,-0.8395061728395062,2.1604938271604937,2.1604938271604937,0.0,2.0,1.0,3.0,0,0,1,0.5731789240345022,0.24464484507715256,0.19542692563387298,0.5557758078838895,0.24688905925489946,0.16332843218859194,0.25372428200467567,0.1893482707258875,0.1465675207824993,0.555100373134024,0.2469639488804913,0.17510545137877093,0.573882772159288,0.24454133597805872,0.17292354498325124,0.6162879479841092,0.2364771131536451,0.14333700218317247,0.5598219545802342,0.24642133375020034,0.17112353700545466,0.49491401637177773,0.2499741327705334,0.16179913733950382,0.5497528340485563,0.24752465550413683,0.203940612439928,0.6121706985038669,0.23741773439715463,0.21247782380047397
6.0,0.0,6.0,0.0,4.0,0.0,4.0,0.0,,,,right,0.937728599878028,201.82399050006643,xp7,189.73520390014164,191.74964860011823,201.82399050006643,None,True,1.0,['r'],False,0.345679012345679,0.4444444444444444,0.2222222222222222,2.0,2.0,0.9685033186841367,0.2009676117789718,unsucc_cost,1.0,0.0,198.12706980016085,None,xp7,1,2023-04-13_15h18.15.054,threat_forest,2021.2.3,60.03500040616538,True,52.0,0.4365079365079364,0.3521825396825396,-0.5626102292768962,-0.8986520534139583,1,0,1,-0.0642947109917838,0.2009676117789718,1.0,0.345679012345679,0.4444444444444444,0.7777777777777778,-0.888888888888889,-0.8395061728395062,0.1604938271604937,0.1604938271604937,0.0,2.0,-1.0,1.0,1,0,1,0.5731789240345022,0.24464484507715256,0.19542692563387298,0.5557758078838895,0.24688905925489946,0.16332843218859194,0.6290862537932705,0.2333367390816194,0.16859267961735278,0.555100373134024,0.2469639488804913,0.17510545137877093,0.573882772159288,0.24454133597805872,0.17292354498325124,0.6162879479841092,0.2364771131536451,0.14333700218317247,0.5598219545802342,0.24642133375020034,0.17112353700545466,0.9374994955204532,0.05859419141934894,0.1809258779128408,0.9849411641559491,0.01483206730707283,0.07051384100822931,0.9398361908504138,0.05654412521819847,0.03878155224111169
7.0,0.0,7.0,0.0,0.0,0.0,0.0,0.0,208.4949416001328,211.99742959998548,None,left,1.7482552998699248,214.19930370012293,xp7,214.19930370012293,None,208.4949416001328,211.99742959998548,True,4.0,['p'],True,0.27,0.3,0.1,1.0,1.0,0.7963326591781347,0.00800026338778,succ_gain,0.0,5.0,,,xp7,1,2023-04-13_15h18.15.054,threat_forest,2021.2.3,60.03500040616538,True,6.0,0.4833333333333333,0.4599206349206348,-1.145,-0.8538051146384481,0,0,1,0.5586183191258726,0.00800026338778,0.27,0.27,0.3,0.9,-1.4,-1.29,2.71,2.71,1.0,1.0,-1.0,4.0,0,0,0,0.5418948990060071,0.24824481743727653,0.1361182784972952,0.562697348291601,0.24606904251720166,0.16747207030517708,0.6290862537932705,0.2333367390816194,0.16859267961735278,0.48835348536440415,0.24986435869684284,0.18109046817318603,0.5050252324141421,0.24997474703918388,0.1859150489071164,0.4970611518167012,0.2499913631713555,0.18573814783312326,0.49784445701624463,0.24999535363444522,0.17403539967908832,0.49491401637177773,0.2499741327705334,0.16179913733950382,0.4351755421844229,0.24579778966891647,0.20295042132608804,0.520553904865257,0.24957753699478996,0.22415510709069342
7.0,0.0,7.0,0.0,1.0,0.0,1.0,0.0,,,,right,0.9379441000055522,220.9893863000907,xp7,215.9783974001184,217.9918293999508,220.9893863000907,None,True,5.0,['p'],False,0.4444444444444445,0.6666666666666666,0.3333333333333333,1.0,1.0,0.9656336071428248,0.0567567681136075,figh_cost,1.0,2.0,217.9918293999508,None,xp7,1,2023-04-13_15h18.15.054,threat_forest,2021.2.3,60.03500040616538,True,6.0,0.4833333333333333,0.4599206349206348,-1.145,-0.8538051146384481,0,0,1,-0.0640649266285676,0.0567567681136075,0.4444444444444445,0.4444444444444445,0.6666666666666666,0.6666666666666667,-1.0,-1.0,4.0,4.0,0.0,1.0,1.0,5.0,0,0,0,0.5731789240345022,0.24464484507715256,0.19542692563387298,0.5494645863089896,0.24755325470128056,0.15997217683188558,0.25372428200467567,0.1893482707258875,0.1465675207824993,0.65327042121252,0.2265081779813367,0.13289481904538875,0.5590631729541395,0.24651154160058936,0.17763438570337664,0.4970611518167012,0.2499913631713555,0.18573814783312326,0.637719388400288,0.23103337005865063,0.15858649508966222,0.49491401637177773,0.2499741327705334,0.16179913733950382,0.6900962761494194,0.2138634057941237,0.18463913014535818,0.6804774157833999,0.21742790239214574,0.19328121847961313
7.0,0.0,7.0,0.0,2.0,0.0,2.0,0.0,,,,right,1.4661636999808252,224.9689919000957,xp7,215.9783974001184,217.9918293999508,224.9689919000957,None,True,2.0,['p'],False,0.4444444444444445,0.6666666666666666,0.3333333333333333,1.0,1.0,0.9656336071428248,0.0498588341135115,figh_cost,1.0,0.0,223.96961549995467,None,xp7,1,2023-04-13_15h18.15.054,threat_forest,2021.2.3,60.03500040616538,True,6.0,0.4833333333333333,0.4599206349206348,-1.145,-0.8538051146384481,0,0,1,0.3826492616102831,0.0498588341135115,0.4444444444444445,0.4444444444444445,0.6666666666666666,0.6666666666666667,-1.0,-1.0,1.0,1.0,0.0,1.0,-1.0,2.0,0,0,0,0.5731789240345022,0.24464484507715256,0.19542692563387298,0.5494645863089896,0.24755325470128056,0.15997217683188558,0.6290862537932705,0.2333367390816194,0.16859267961735278,0.65327042121252,0.2265081779813367,0.13289481904538875,0.5590631729541395,0.24651154160058936,0.17763438570337664,0.4970611518167012,0.2499913631713555,0.18573814783312326,0.637719388400288,0.23103337005865063,0.15858649508966222,0.49491401637177773,0.2499741327705334,0.16179913733950382,0.6900962761494194,0.2138634057941237,0.18463913014535818,0.6594070198831159,0.22458940201198394,0.2001585389930162
8.0,0.0,8.0,0.0,0.0,0.0,0.0,0.0,232.18786470009945,235.6919809000101,None,left,1.1192902999464422,238.456557800062,xp7,238.456557800062,None,232.18786470009945,235.6919809000101,True,5.0,['r'],True,0.24,0.4,0.4,2.0,1.0,0.9801625908629508,-0.0104347549751131,unsucc_cost,0.0,3.0,,,xp7,1,2023-04-13_15h18.15.054,threat_forest,2021.2.3,60.03500040616538,True,28.0,0.3666666666666667,0.425,-1.3400000000000003,-1.2425000000000002,0,0,1,0.1126948236970665,-0.0104347549751131,0.24,0.24,0.4,0.6,-2.0,-1.6800000000000002,3.32,3.32,1.0,1.0,-1.0,5.0,0,0,0,0.5418948990060071,0.24824481743727653,0.1361182784972952,0.5456700654066664,0.2479142451257508,0.15814805103811613,0.6290862537932705,0.2333367390816194,0.16859267961735278,0.5346620877069844,0.24879853967579327,0.1788911428554925,0.424143348632907,0.2442457684433713,0.17221683114484287,0.4970611518167012,0.2499913631713555,0.18573814783312326,0.4731874813805323,0.2492810888452807,0.173453466436963,0.49491401637177773,0.2499741327705334,0.16179913733950382,0.3909577694882306,0.23810979196501816,0.19854209564475286,0.45698948289487745,0.24815009541834995,0.2227843085489828
8.0,0.0,8.0,0.0,1.0,0.0,1.0,0.0,,,,right,0.97813790012151,244.75191899994388,xp7,244.75191899994388,None,232.18786470009945,235.6919809000101,False,3.0,['r'],True,0.24,0.4,0.4,2.0,1.0,0.9801625908629508,0.0090883802469137,wait_cost,0.0,2.0,241.6197997001,None,xp7,1,2023-04-13_15h18.15.054,threat_forest,2021.2.3,60.03500040616538,False,28.0,0.3666666666666667,0.425,-1.3400000000000003,-1.2425000000000002,0,0,0,-0.022104616717958,0.0090883802469137,0.24,0.24,0.4,0.6,-2.0,-1.6800000000000002,1.3199999999999998,1.3199999999999998,1.0,1.0,-1.0,3.0,0,0,0,0.5418948990060071,0.24824481743727653,0.1361182784972952,0.5456700654066664,0.2479142451257508,0.15814805103811613,0.6290862537932705,0.2333367390816194,0.16859267961735278,0.5346620877069844,0.24879853967579327,0.1788911428554925,0.424143348632907,0.2442457684433713,0.17221683114484287,0.4970611518167012,0.2499913631713555,0.18573814783312326,0.4731874813805323,0.2492810888452807,0.173453466436963,0.49491401637177773,0.2499741327705334,0.16179913733950382,0.3909577694882306,0.23810979196501816,0.19854209564475286,0.5243051519953285,0.24940925958648402,0.22399350718375788
8.0,0.0,8.0,0.0,2.0,0.0,2.0,0.0,,,,right,1.8622205001302063,248.73014799994417,xp7,248.73014799994417,None,232.18786470009945,235.6919809000101,False,2.0,['r'],True,0.24,0.4,0.4,2.0,1.0,0.9801625908629508,0.0087973116049383,wait_cost,0.0,1.0,247.76411210000515,None,xp7,1,2023-04-13_15h18.15.054,threat_forest,2021.2.3,60.03500040616538,False,28.0,0.3666666666666667,0.425,-1.3400000000000003,-1.2425000000000002,0,0,0,0.6217695929662075,0.0087973116049383,0.24,0.24,0.4,0.6,-2.0,-1.6800000000000002,0.3199999999999998,0.3199999999999998,1.0,1.0,-1.0,2.0,0,0,0,0.5418948990060071,0.24824481743727653,0.1361182784972952,0.5456700654066664,0.2479142451257508,0.15814805103811613,0.6290862537932705,0.2333367390816194,0.16859267961735278,0.5346620877069844,0.24879853967579327,0.1788911428554925,0.424143348632907,0.2442457684433713,0.17221683114484287,0.4970611518167012,0.2499913631713555,0.18573814783312326,0.4731874813805323,0.2492810888452807,0.173453466436963,0.49491401637177773,0.2499741327705334,0.16179913733950382,0.3909577694882306,0.23810979196501816,0.19854209564475286,0.5233019534923641,0.24945701896343972,0.22403937139660163
8.0,0.0,8.0,0.0,3.0,0.0,3.0,0.0,,,,right,1.1333344001322985,256.1564257000573,xp7,250.6116963000968,252.6261170001235,256.1564257000573,None,True,1.0,['r'],False,0.3333333333333333,0.3333333333333333,0.0,0.0,1.0,0.5793801642856949,0.04145412345679,unsucc_cost,1.0,0.0,252.6261170001235,None,xp7,1,2023-04-13_15h18.15.054,threat_forest,2021.2.3,60.03500040616538,True,28.0,0.3666666666666667,0.425,-1.3400000000000003,-1.2425000000000002,1,0,1,0.1251640842467675,0.04145412345679,1.0,0.3333333333333333,0.3333333333333333,1.0,-1.0000000000000002,-1.0000000000000002,-2.220446049250313e-16,0.0,0.0,1.0,-1.0,1.0,1,0,1,0.5731789240345022,0.24464484507715256,0.19542692563387298,0.5683424485821307,0.24532930972179887,0.1712100245031909,0.6290862537932705,0.2333367390816194,0.16859267961735278,0.5038067704082951,0.24998550849905848,0.1813404616730055,0.5590631729541395,0.24651154160058938,0.17763438570337675,0.6162879479841092,0.2364771131536451,0.14333700218317247,0.5497868522546308,0.24752126934257554,0.17201968797790934,0.9374994955204532,0.05859419141934894,0.1809258779128408,0.9849411641559491,0.01483206730707283,0.07051384100822931,0.632862958090933,0.23234743436732705,0.20760872092324317
9.0,0.0,9.0,0.0,0.0,0.0,0.0,0.0,263.11415349994786,266.60475059994496,None,right,1.1977564999833703,267.362688299967,xp7,263.11415349994786,266.60475059994496,267.362688299967,None,True,4.0,['p'],False,0.24,0.4,0.4,2.0,2.0,0.9801625908629508,0.0188358143999999,figh_cost,1.0,1.0,,,xp7,1,2023-04-13_15h18.15.054,threat_forest,2021.2.3,60.03500040616538,True,65.0,0.3,0.3333333333333333,-1.5000000000000002,-1.4200000000000004,0,0,1,0.1804502235944805,0.0188358143999999,0.24,0.24,0.4,0.6,-1.6,-1.4400000000000002,2.56,2.56,0.0,2.0,-1.0,4.0,0,0,0,0.5731789240345022,0.24464484507715256,0.19542692563387298,0.5456700654066664,0.2479142451257508,0.15814805103811613,0.6290862537932705,0.2333367390816194,0.16859267961735278,0.5346620877069844,0.24879853967579327,0.1788911428554925,0.4778824378577429,0.2495108134448834,0.18480576506259183,0.4970611518167012,0.2499913631713555,0.18573814783312326,0.4731874813805323,0.2492810888452807,0.173453466436963,0.49491401637177773,0.2499741327705334,0.16179913733950382,0.3909577694882306,0.23810979196501816,0.19854209564475286,0.5577374945845179,0.2466663817191028,0.22135947084717195
10.0,0.0,10.0,0.0,0.0,0.0,0.0,0.0,278.21619860013016,281.71562190004624,None,left,0.8561068000271916,282.2661327000242,xp7,282.2661327000242,None,278.21619860013016,281.71562190004624,True,5.0,['p'],True,0.4444444444444445,0.6666666666666666,0.3333333333333333,1.0,2.0,0.9656336071428248,0.0210978181405199,unsucc_cost,0.0,3.0,,,xp7,1,2023-04-13_15h18.15.054,threat_forest,2021.2.3,60.03500040616538,True,53.0,0.5,0.4,-0.8703703703703706,-1.1851851851851851,1,1,1,-0.1553601442361671,0.0210978181405199,0.4444444444444445,0.4444444444444445,0.6666666666666666,0.6666666666666667,-0.3333333333333335,-0.5555555555555556,4.444444444444445,4.444444444444445,1.0,2.0,-1.0,5.0,0,1,1,0.5418948990060071,0.24824481743727653,0.1361182784972952,0.5494645863089896,0.24755325470128056,0.15997217683188558,0.6290862537932705,0.2333367390816194,0.16859267961735278,0.65327042121252,0.2265081779813367,0.13289481904538875,0.6455326660674725,0.22882024310729354,0.13533378094362414,0.6162879479841092,0.2364771131536451,0.14333700218317247,0.637719388400288,0.23103337005865063,0.15858649508966222,0.49491401637177773,0.2499741327705334,0.16179913733950382,0.6900962761494194,0.2138634057941237,0.18463913014535818,0.5654327310454627,0.24571855770793213,0.220449257922345
10.0,0.0,10.0,0.0,1.0,0.0,1.0,0.0,,,,right,0.981687300140038,288.4291830000002,xp7,283.14813700015657,285.14647420006804,288.4291830000002,None,True,3.0,['p'],False,0.2592592592592592,0.3333333333333333,0.2222222222222222,2.0,2.0,0.9327883776363324,0.0245696695070765,unsucc_cost,1.0,1.0,285.14647420006804,None,xp7,1,2023-04-13_15h18.15.054,threat_forest,2021.2.3,60.03500040616538,True,53.0,0.5,0.4,-0.8703703703703706,-1.1851851851851851,0,0,1,-0.018482452967077,0.0245696695070765,0.2592592592592592,0.2592592592592592,0.3333333333333333,0.7777777777777778,-1.3333333333333337,-1.1851851851851856,1.8148148148148144,1.8148148148148144,0.0,2.0,-1.0,3.0,0,0,0,0.5731789240345022,0.24464484507715256,0.19542692563387298,0.5557758078838895,0.24688905925489946,0.16332843218859194,0.6290862537932705,0.2333367390816194,0.16859267961735278,0.5038067704082951,0.24998550849905848,0.1813404616730055,0.5140741517095814,0.24980191825365566,0.18550180834422014,0.4970611518167012,0.2499913631713555,0.18573814783312326,0.4890091955501486,0.24987920221754514,0.1739407675879654,0.49491401637177773,0.2499741327705334,0.16179913733950382,0.41918667017222194,0.2434692057221468,0.20161520287142012,0.5771814889196348,0.24404301776814827,0.2188402059345489
10.0,0.0,10.0,0.0,2.0,0.0,2.0,0.0,,,,right,1.0098509001545608,292.15623440011404,xp7,283.14813700015657,285.14647420006804,292.15623440011404,None,True,1.0,['p'],False,0.2592592592592592,0.3333333333333333,0.2222222222222222,2.0,2.0,0.9327883776363324,0.1141120452589175,figh_cost,1.0,0.0,291.4565159000922,None,xp7,1,2023-04-13_15h18.15.054,threat_forest,2021.2.3,60.03500040616538,True,53.0,0.5,0.4,-0.8703703703703706,-1.1851851851851851,0,0,1,0.0098026963463848,0.1141120452589175,1.0,0.2592592592592592,0.3333333333333333,0.7777777777777778,-1.3333333333333337,-1.1851851851851856,-0.1851851851851855,0.0,0.0,2.0,-1.0,1.0,1,0,0,0.5731789240345022,0.24464484507715256,0.19542692563387298,0.5557758078838895,0.24688905925489946,0.16332843218859194,0.6290862537932705,0.2333367390816194,0.16859267961735278,0.5038067704082951,0.24998550849905848,0.1813404616730055,0.5140741517095814,0.24980191825365566,0.18550180834422014,0.4970611518167012,0.2499913631713555,0.18573814783312326,0.4890091955501486,0.24987920221754514,0.1739407675879654,0.9374994955204532,0.05859419141934894,0.1809258779128408,0.9849411641559491,0.01483206730707283,0.07051384100822931,0.8246950967398943,0.14457309415307065,0.1233173989166431
11.0,0.0,11.0,0.0,0.0,0.0,0.0,0.0,298.9424984001089,302.4462417999748,None,left,0.8960541000124067,303.59546340000816,xp7,298.9424984001089,302.4462417999748,303.59546340000816,None,False,4.0,['p'],False,0.375,0.5,0.25,1.0,1.0,0.9850568223215076,0.0289878283625659,wait_cost,1.0,3.0,,,xp7,1,2023-04-13_15h18.15.054,threat_forest,2021.2.3,60.03500040616538,False,69.0,0.3928571428571428,0.4464285714285714,-1.2665816326530612,-1.0684760015117158,0,0,0,-0.1097544883518414,0.0289878283625659,0.375,0.375,0.5,0.75,-1.25,-1.125,2.875,2.875,0.0,1.0,-1.0,4.0,0,0,0,0.5731789240345022,0.24464484507715256,0.19542692563387298,0.5541996076382789,0.24706240253185663,0.16245250883650253,0.6290862537932705,0.2333367390816194,0.16859267961735278,0.5803807711974849,0.24353893162169757,0.1680379033035035,0.5253716467529287,0.24935627954104456,0.1844362682961026,0.4970611518167012,0.2499913631713555,0.18573814783312326,0.5834459724347028,0.24303676968442686,0.16836602974784468,0.49491401637177773,0.2499741327705334,0.16179913733950382,0.5934059563396531,0.24127532732027482,0.20035722506325887,0.5920056108770372,0.24153496756714318,0.2164316789483523
11.0,0.0,11.0,0.0,1.0,0.0,1.0,0.0,,,,left,1.3788654999807477,309.0570181000512,xp7,298.9424984001089,302.4462417999748,309.0570181000512,None,False,3.0,['p'],False,0.375,0.5,0.25,1.0,1.0,0.9850568223215076,0.0375814591545523,wait_cost,1.0,2.0,306.52576080011204,None,xp7,1,2023-04-13_15h18.15.054,threat_forest,2021.2.3,60.03500040616538,False,69.0,0.3928571428571428,0.4464285714285714,-1.2665816326530612,-1.0684760015117158,0,0,0,0.3212610595951588,0.0375814591545523,0.375,0.375,0.5,0.75,-1.25,-1.125,1.875,1.875,0.0,1.0,-1.0,3.0,0,0,0,0.5731789240345022,0.24464484507715256,0.19542692563387298,0.5541996076382789,0.24706240253185663,0.16245250883650253,0.6290862537932705,0.2333367390816194,0.16859267961735278,0.5803807711974849,0.24353893162169757,0.1680379033035035,0.5253716467529287,0.24935627954104456,0.1844362682961026,0.4970611518167012,0.2499913631713555,0.18573814783312326,0.5834459724347028,0.24303676968442686,0.16836602974784468,0.49491401637177773,0.2499741327705334,0.16179913733950382,0.5934059563396531,0.24127532732027482,0.20035722506325887,0.6203436848785967,0.23551739750984102,0.210652895147082
11.0,0.0,11.0,0.0,2.0,0.0,2.0,0.0,,,,right,0.9299662997946144,316.0838580999989,xp7,298.9424984001089,302.4462417999748,316.0838580999989,None,True,2.0,['p'],False,0.375,0.5,0.25,1.0,1.0,0.9850568223215076,0.0332729833967032,unsucc_cost,1.0,0.0,312.47092760005035,None,xp7,1,2023-04-13_15h18.15.054,threat_forest,2021.2.3,60.03500040616538,True,69.0,0.3928571428571428,0.4464285714285714,-1.2665816326530612,-1.0684760015117158,0,0,1,-0.0726069302713879,0.0332729833967032,0.375,0.375,0.5,0.75,-1.25,-1.125,0.875,0.875,0.0,1.0,-1.0,2.0,0,0,0,0.5731789240345022,0.24464484507715256,0.19542692563387298,0.5541996076382789,0.24706240253185663,0.16245250883650253,0.6290862537932705,0.2333367390816194,0.16859267961735278,0.5803807711974849,0.24353893162169757,0.1680379033035035,0.5253716467529287,0.24935627954104456,0.1844362682961026,0.4970611518167012,0.2499913631713555,0.18573814783312326,0.5834459724347028,0.24303676968442686,0.16836602974784468,0.49491401637177773,0.2499741327705334,0.16179913733950382,0.5934059563396531,0.24127532732027482,0.20035722506325887,0.6062255547692091,0.23871613151397378,0.21372469856135617
12.0,0.0,12.0,0.0,0.0,0.0,0.0,0.0,322.1664974000305,325.67760700010695,None,left,1.6108056998346,329.4212024000008,xp7,322.1664974000305,325.67760700010695,329.4212024000008,None,False,5.0,['r'],False,0.3333333333333333,0.3333333333333333,0.0,0.0,1.0,0.5793801642856949,0.0363479425877699,wait_cost,1.0,4.0,,,xp7,1,2023-04-13_15h18.15.054,threat_forest,2021.2.3,60.03500040616538,False,43.0,0.4166666666666666,0.4047619047619047,-1.375,-1.3207908163265305,1,0,0,0.4767344885005728,0.0363479425877699,0.3333333333333333,0.3333333333333333,0.3333333333333333,1.0,-1.0000000000000002,-1.0000000000000002,4.0,4.0,0.0,1.0,-1.0,5.0,0,0,1,0.5731789240345022,0.24464484507715256,0.19542692563387298,0.5683424485821307,0.24532930972179887,0.1712100245031909,0.6290862537932705,0.2333367390816194,0.16859267961735278,0.5038067704082951,0.24998550849905848,0.1813404616730055,0.5590631729541395,0.24651154160058938,0.17763438570337675,0.6162879479841092,0.2364771131536451,0.14333700218317247,0.5497868522546308,0.24752126934257554,0.17201968797790934,0.49491401637177773,0.2499741327705334,0.16179913733950382,0.5310997822906649,0.24903280354147325,0.20480538997763123,0.6163212762136333,0.23646936070003163,0.21156708300206237
12.0,0.0,12.0,0.0,1.0,0.0,1.0,0.0,,,,right,1.5165504000615329,336.0484538001474,xp7,322.1664974000305,325.67760700010695,336.0484538001474,None,True,4.0,['r'],False,0.3333333333333333,0.3333333333333333,0.0,0.0,1.0,0.5793801642856949,0.0467425059879758,succ_gain,1.0,5.0,333.0675705000758,None,xp7,1,2023-04-13_15h18.15.054,threat_forest,2021.2.3,60.03500040616538,True,43.0,0.4166666666666666,0.4047619047619047,-1.375,-1.3207908163265305,1,0,1,0.4164382820561868,0.0467425059879758,0.3333333333333333,0.3333333333333333,0.3333333333333333,1.0,-1.0000000000000002,-1.0000000000000002,3.0,3.0,0.0,1.0,-1.0,4.0,0,0,1,0.5731789240345022,0.24464484507715256,0.19542692563387298,0.5683424485821307,0.24532930972179887,0.1712100245031909,0.6290862537932705,0.2333367390816194,0.16859267961735278,0.5038067704082951,0.24998550849905848,0.1813404616730055,0.5590631729541395,0.24651154160058938,0.17763438570337675,0.6162879479841092,0.2364771131536451,0.14333700218317247,0.5497868522546308,0.24752126934257554,0.17201968797790934,0.49491401637177773,0.2499741327705334,0.16179913733950382,0.5310997822906649,0.24903280354147325,0.20480538997763123,0.6496707358593297,0.22759867082732674,0.20304839548295744
12.0,0.0,12.0,0.0,2.0,0.0,2.0,0.0,,,,right,1.7104420000687242,340.27816570014693,xp7,340.27816570014693,None,337.59697930002585,339.6115681999363,False,5.0,['r'],True,0.25,0.5,0.5,2.0,1.0,0.9463946303571862,-0.0367416570216049,wait_cost,0.0,4.0,339.6115681999363,None,xp7,1,2023-04-13_15h18.15.054,threat_forest,2021.2.3,60.03500040616538,False,43.0,0.4166666666666666,0.4047619047619047,-1.375,-1.3207908163265305,0,0,0,0.5367518166868325,-0.0367416570216049,0.25,0.25,0.5,0.5,-2.0,-1.75,3.25,3.25,1.0,1.0,1.0,5.0,0,0,0,0.5418948990060071,0.24824481743727653,0.1361182784972952,0.5399684595025954,0.24840252224498938,0.15568073105582703,0.25372428200467567,0.1893482707258875,0.1465675207824993,0.5803807711974849,0.24353893162169757,0.1680379033035035,0.424143348632907,0.2442457684433713,0.17221683114484287,0.4970611518167012,0.2499913631713555,0.18573814783312326,0.4813978949791964,0.24965396168879492,0.17375725728038469,0.49491401637177773,0.2499741327705334,0.16179913733950382,0.4055367966714546,0.24107670321690988,0.2002433332842132,0.3691255040223729,0.2328718663026021,0.20811234260833827
12.0,0.0,12.0,0.0,3.0,0.0,3.0,0.0,,,,right,2.433592300163582,346.1726281000301,xp7,342.00966980005614,344.02405570005067,346.1726281000301,None,True,4.0,['r'],False,0.3333333333333333,0.3333333333333333,0.0,0.0,1.0,0.5793801642856949,0.0627411265432098,succ_gain,1.0,5.0,344.02405570005067,None,xp7,1,2023-04-13_15h18.15.054,threat_forest,2021.2.3,60.03500040616538,True,43.0,0.4166666666666666,0.4047619047619047,-1.375,-1.3207908163265305,1,0,1,0.8893684785482862,0.0627411265432098,0.3333333333333333,0.3333333333333333,0.3333333333333333,1.0,-1.0000000000000002,-1.0000000000000002,3.0,3.0,0.0,1.0,-1.0,4.0,0,0,1,0.5731789240345022,0.24464484507715256,0.19542692563387298,0.5683424485821307,0.24532930972179887,0.1712100245031909,0.6290862537932705,0.2333367390816194,0.16859267961735278,0.5038067704082951,0.24998550849905848,0.1813404616730055,0.5590631729541395,0.24651154160058938,0.17763438570337675,0.6162879479841092,0.2364771131536451,0.14333700218317247,0.5497868522546308,0.24752126934257554,0.17201968797790934,0.49491401637177773,0.2499741327705334,0.16179913733950382,0.5310997822906649,0.24903280354147325,0.20480538997763123,0.6981822860406627,0.21072378149969703,0.18684312721584326
12.0,0.0,12.0,0.0,4.0,0.0,4.0,0.0,,,,right,1.2377082998864353,351.918484200025,xp7,351.918484200025,None,348.6367508000694,350.651271100156,False,5.0,['r'],True,0.25,0.5,0.5,2.0,1.0,0.9463946303571862,-0.4874131944444445,wait_cost,0.0,4.0,350.651271100156,None,xp7,1,2023-04-13_15h18.15.054,threat_forest,2021.2.3,60.03500040616538,False,43.0,0.4166666666666666,0.4047619047619047,-1.375,-1.3207908163265305,0,0,0,0.2132615244365117,-0.4874131944444445,0.0,0.25,0.5,0.5,-2.0,-1.75,3.25,3.25,1.0,1.0,1.0,5.0,0,0,0,0.5418948990060071,0.24824481743727653,0.1361182784972952,0.5399684595025954,0.24840252224498938,0.15568073105582703,0.25372428200467567,0.1893482707258875,0.1465675207824993,0.5803807711974849,0.24353893162169757,0.1680379033035035,0.424143348632907,0.2442457684433713,0.17221683114484287,0.4970611518167012,0.2499913631713555,0.18573814783312326,0.4813978949791964,0.24965396168879492,0.17375725728038469,0.49491401637177773,0.2499741327705334,0.16179913733950382,0.12971640028799664,0.11289005578432086,0.12674064615479305,0.0011541546224041895,0.0011528225495117729,-0.01441173999229405
12.0,0.0,12.0,0.0,5.0,0.0,5.0,0.0,,,,left,0.7997059000190347,357.98030980001204,xp7,353.1825007000007,355.1969701999333,357.98030980001204,None,False,4.0,['r'],False,0.3333333333333333,0.3333333333333333,0.0,0.0,1.0,0.5793801642856949,-0.4583333333333334,wait_cost,1.0,3.0,355.1969701999333,None,xp7,1,2023-04-13_15h18.15.054,threat_forest,2021.2.3,60.03500040616538,False,43.0,0.4166666666666666,0.4047619047619047,-1.375,-1.3207908163265305,1,0,0,-0.2235112438810437,-0.4583333333333334,0.0,0.3333333333333333,0.3333333333333333,1.0,-1.0000000000000002,-1.0000000000000002,3.0,3.0,0.0,1.0,-1.0,4.0,0,0,1,0.5731789240345022,0.24464484507715256,0.19542692563387298,0.5683424485821307,0.24532930972179887,0.1712100245031909,0.6290862537932705,0.2333367390816194,0.16859267961735278,0.5038067704082951,0.24998550849905848,0.1813404616730055,0.5590631729541395,0.24651154160058938,0.17763438570337675,0.6162879479841092,0.2364771131536451,0.14333700218317247,0.5497868522546308,0.24752126934257554,0.17201968797790934,0.49491401637177773,0.2499741327705334,0.16179913733950382,0.12971640028799664,0.11289005578432086,0.12674064615479305,0.0017239453835420334,0.001720973395856598,-0.013866134228460628
12.0,0.0,12.0,0.0,6.0,0.0,6.0,0.0,,,,left,0.8100582999177277,364.0889212000184,xp7,353.1825007000007,355.1969701999333,364.0889212000184,None,False,3.0,['r'],False,0.3333333333333333,0.3333333333333333,0.0,0.0,1.0,0.5793801642856949,-0.4722222222222222,wait_cost,1.0,2.0,360.8250680000056,None,xp7,1,2023-04-13_15h18.15.054,threat_forest,2021.2.3,60.03500040616538,False,43.0,0.4166666666666666,0.4047619047619047,-1.375,-1.3207908163265305,1,0,0,-0.2106490586986723,-0.4722222222222222,0.0,0.3333333333333333,0.3333333333333333,1.0,-1.0000000000000002,-1.0000000000000002,2.0,2.0,0.0,1.0,-1.0,3.0,0,0,1,0.5731789240345022,0.24464484507715256,0.19542692563387298,0.5683424485821307,0.24532930972179887,0.1712100245031909,0.6290862537932705,0.2333367390816194,0.16859267961735278,0.5038067704082951,0.24998550849905848,0.1813404616730055,0.5590631729541395,0.24651154160058938,0.17763438570337675,0.6162879479841092,0.2364771131536451,0.14333700218317247,0.5497868522546308,0.24752126934257554,0.17201968797790934,0.49491401637177773,0.2499741327705334,0.16179913733950382,0.12971640028799664,0.11289005578432086,0.12674064615479305,0.0014233361549307272,0.0014213102691207945,-0.01415390627035277
12.0,0.0,12.0,0.0,7.0,0.0,7.0,0.0,,,,right,0.7847955001052469,368.2682541999966,xp7,368.2682541999966,None,364.9213374000974,366.9359290001448,False,2.0,['r'],True,0.25,0.5,0.5,2.0,1.0,0.9463946303571862,-0.75,wait_cost,0.0,1.0,366.9359290001448,None,xp7,1,2023-04-13_15h18.15.054,threat_forest,2021.2.3,60.03500040616538,False,43.0,0.4166666666666666,0.4047619047619047,-1.375,-1.3207908163265305,0,0,0,-0.2423321045582695,-0.75,0.0,0.25,0.5,0.5,-2.0,-1.75,0.25,0.25,1.0,1.0,-1.0,2.0,0,0,0,0.5418948990060071,0.24824481743727653,0.1361182784972952,0.5399684595025954,0.24840252224498938,0.15568073105582703,0.6290862537932705,0.2333367390816194,0.16859267961735278,0.5803807711974849,0.24353893162169757,0.1680379033035035,0.424143348632907,0.2442457684433713,0.17221683114484287,0.4970611518167012,0.2499913631713555,0.18573814783312326,0.4813978949791964,0.24965396168879492,0.17375725728038469,0.49491401637177773,0.2499741327705334,0.16179913733950382,0.12971640028799664,0.11289005578432086,0.12674064615479305,3.068860417993573e-05,3.0687662389509236e-05,-0.015489346874605878
13.0,0.0,13.0,0.0,0.0,0.0,0.0,0.0,372.5065411000978,376.0108998999931,None,left,0.9576187999919056,379.0931776000653,xp7,372.5065411000978,376.0108998999931,379.0931776000653,None,False,5.0,['r'],False,0.3333333333333333,0.5,0.3333333333333333,2.0,2.0,1.0,-0.0164991778692271,wait_cost,1.0,4.0,,,xp7,1,2023-04-13_15h18.15.054,threat_forest,2021.2.3,60.03500040616538,False,2.0,0.45,0.4333333333333333,-0.7,-1.0375,1,0,0,-0.0433054925251703,-0.0164991778692271,0.3333333333333333,0.3333333333333333,0.5,0.6666666666666667,-1.0,-1.0,4.0,4.0,0.0,2.0,-1.0,5.0,0,0,1,0.5731789240345022,0.24464484507715256,0.19542692563387298,0.5494645863089896,0.24755325470128056,0.15997217683188558,0.6290862537932705,0.2333367390816194,0.16859267961735278,0.5803807711974849,0.24353893162169757,0.1680379033035035,0.5590631729541395,0.24651154160058936,0.17763438570337664,0.6162879479841092,0.2364771131536451,0.14333700218317247,0.5497868522546308,0.24752126934257554,0.17201968797790934,0.49491401637177773,0.2499741327705334,0.16179913733950382,0.5310997822906649,0.24903280354147325,0.20480538997763123,0.43628209202998824,0.24594002820392505,0.22066194013501822
13.0,0.0,13.0,0.0,1.0,0.0,1.0,0.0,,,,left,1.1416100999340415,383.9204506999813,xp7,383.9204506999813,None,380.0856612999924,382.08845020015724,True,4.0,['r'],True,0.4,0.4,0.0,0.0,2.0,0.6126016192893442,0.0736827160493828,unsucc_cost,0.0,2.0,382.0884502001573,None,xp7,1,2023-04-13_15h18.15.054,threat_forest,2021.2.3,60.03500040616538,True,2.0,0.45,0.4333333333333333,-0.7,-1.0375,1,0,1,0.1324396343155315,0.0736827160493828,0.4,0.4,0.4,1.0,-0.3999999999999999,-0.3999999999999999,3.6,3.6,1.0,2.0,-1.0,4.0,0,0,1,0.5418948990060071,0.24824481743727653,0.1361182784972952,0.5683424485821307,0.24532930972179887,0.1712100245031909,0.6290862537932705,0.2333367390816194,0.16859267961735278,0.5346620877069844,0.24879853967579327,0.1788911428554925,0.6372041344262596,0.2311750254963409,0.1409641601479581,0.6162879479841092,0.2364771131536451,0.14333700218317247,0.6032945238361636,0.23933024134546027,0.16534620840701225,0.49491401637177773,0.2499741327705334,0.16179913733950382,0.6295217424855866,0.23322411822349742,0.19574063265596325,0.7290573102100543,0.19753274863933495,0.1741755344351022
13.0,0.0,13.0,0.0,2.0,0.0,2.0,0.0,,,,left,0.9619541999418288,390.4475302000064,xp7,390.4475302000064,None,380.0856612999924,382.08845020015724,True,2.0,['r'],True,0.4,0.4,0.0,0.0,2.0,0.6126016192893442,0.0363703703703703,succ_gain,0.0,4.0,387.100487299962,None,xp7,1,2023-04-13_15h18.15.054,threat_forest,2021.2.3,60.03500040616538,True,2.0,0.45,0.4333333333333333,-0.7,-1.0375,1,0,1,-0.038788438657863,0.0363703703703703,0.4,0.4,0.4,1.0,-0.3999999999999999,-0.3999999999999999,1.6,1.6,1.0,2.0,-1.0,2.0,0,0,1,0.5418948990060071,0.24824481743727653,0.1361182784972952,0.5683424485821307,0.24532930972179887,0.1712100245031909,0.6290862537932705,0.2333367390816194,0.16859267961735278,0.5346620877069844,0.24879853967579327,0.1788911428554925,0.6372041344262596,0.2311750254963409,0.1409641601479581,0.6162879479841092,0.2364771131536451,0.14333700218317247,0.6032945238361636,0.23933024134546027,0.16534620840701225,0.49491401637177773,0.2499741327705334,0.16179913733950382,0.6295217424855866,0.23322411822349742,0.19574063265596325,0.6163945557256628,0.23645230739742557,0.2115507064002248
13.0,0.0,13.0,0.0,3.0,0.0,3.0,0.0,,,,right,1.6222218999173492,394.7790554999374,xp7,391.4301068000496,393.44446299993433,394.7790554999374,None,True,4.0,['r'],False,0.3333333333333333,0.5,0.3333333333333333,2.0,2.0,1.0,-0.0109382716049383,succ_gain,1.0,6.0,393.44446299993433,None,xp7,1,2023-04-13_15h18.15.054,threat_forest,2021.2.3,60.03500040616538,True,2.0,0.45,0.4333333333333333,-0.7,-1.0375,1,0,1,0.4837967526969655,-0.0109382716049383,0.3333333333333333,0.3333333333333333,0.5,0.6666666666666667,-1.0,-1.0,3.0,3.0,0.0,2.0,1.0,4.0,0,0,1,0.5731789240345022,0.24464484507715256,0.19542692563387298,0.5494645863089896,0.24755325470128056,0.15997217683188558,0.25372428200467567,0.1893482707258875,0.1465675207824993,0.5803807711974849,0.24353893162169757,0.1680379033035035,0.5590631729541395,0.24651154160058936,0.17763438570337664,0.6162879479841092,0.2364771131536451,0.14333700218317247,0.5497868522546308,0.24752126934257554,0.17201968797790934,0.49491401637177773,0.2499741327705334,0.16179913733950382,0.5310997822906649,0.24903280354147325,0.20480538997763123,0.4552635115316969,0.24799864659952545,0.2226388694477159
13.0,0.0,13.0,0.0,4.0,0.0,4.0,0.0,,,,right,1.0874699999112636,400.5599454001058,xp7,400.5599454001058,None,396.4253853999544,398.43984910007566,False,6.0,['r'],True,0.4,0.4,0.0,0.0,2.0,0.6126016192893442,0.0,wait_cost,0.0,5.0,398.43984910007566,None,xp7,1,2023-04-13_15h18.15.054,threat_forest,2021.2.3,60.03500040616538,False,2.0,0.45,0.4333333333333333,-0.7,-1.0375,1,0,0,0.0838538973117001,0.0,0.0,0.4,0.4,1.0,-0.3999999999999999,-0.3999999999999999,5.6,5.6,1.0,2.0,1.0,6.0,0,0,1,0.5418948990060071,0.24824481743727653,0.1361182784972952,0.5683424485821307,0.24532930972179887,0.1712100245031909,0.25372428200467567,0.1893482707258875,0.1465675207824993,0.5346620877069844,0.24879853967579327,0.1788911428554925,0.6372041344262596,0.2311750254963409,0.1409641601479581,0.6162879479841092,0.2364771131536451,0.14333700218317247,0.6032945238361636,0.23933024134546027,0.16534620840701225,0.49491401637177773,0.2499741327705334,0.16179913733950382,0.12971640028799664,0.11289005578432086,0.12674064615479305,0.49292957604336346,0.24995000910507348,0.22451279894585002
13.0,0.0,13.0,0.0,5.0,0.0,5.0,0.0,,,,right,0.637370300013572,405.4502699000295,xp7,405.4502699000295,None,396.4253853999544,398.43984910007566,False,5.0,['r'],True,0.4,0.4,0.0,0.0,2.0,0.6126016192893442,0.0,wait_cost,0.0,4.0,403.68492950010113,None,xp7,1,2023-04-13_15h18.15.054,threat_forest,2021.2.3,60.03500040616538,False,2.0,0.45,0.4333333333333333,-0.7,-1.0375,1,0,0,-0.4504044736076125,0.0,0.0,0.4,0.4,1.0,-0.3999999999999999,-0.3999999999999999,4.6,4.6,1.0,2.0,-1.0,5.0,0,0,1,0.5418948990060071,0.24824481743727653,0.1361182784972952,0.5683424485821307,0.24532930972179887,0.1712100245031909,0.6290862537932705,0.2333367390816194,0.16859267961735278,0.5346620877069844,0.24879853967579327,0.1788911428554925,0.6372041344262596,0.2311750254963409,0.1409641601479581,0.6162879479841092,0.2364771131536451,0.14333700218317247,0.6032945238361636,0.23933024134546027,0.16534620840701225,0.49491401637177773,0.2499741327705334,0.16179913733950382,0.12971640028799664,0.11289005578432086,0.12674064615479305,0.49292957604336346,0.24995000910507348,0.22451279894585002
13.0,0.0,13.0,0.0,6.0,0.0,6.0,0.0,,,,right,0.6636052001267672,410.27904319996014,xp7,410.27904319996014,None,396.4253853999544,398.43984910007566,False,4.0,['r'],True,0.4,0.4,0.0,0.0,2.0,0.6126016192893442,0.0,wait_cost,0.0,3.0,408.13086979999207,None,xp7,1,2023-04-13_15h18.15.054,threat_forest,2021.2.3,60.03500040616538,False,2.0,0.45,0.4333333333333333,-0.7,-1.0375,1,0,0,-0.4100678844597105,0.0,0.0,0.4,0.4,1.0,-0.3999999999999999,-0.3999999999999999,3.6,3.6,1.0,2.0,-1.0,4.0,0,0,1,0.5418948990060071,0.24824481743727653,0.1361182784972952,0.5683424485821307,0.24532930972179887,0.1712100245031909,0.6290862537932705,0.2333367390816194,0.16859267961735278,0.5346620877069844,0.24879853967579327,0.1788911428554925,0.6372041344262596,0.2311750254963409,0.1409641601479581,0.6162879479841092,0.2364771131536451,0.14333700218317247,0.6032945238361636,0.23933024134546027,0.16534620840701225,0.49491401637177773,0.2499741327705334,0.16179913733950382,0.12971640028799664,0.11289005578432086,0.12674064615479305,0.49292957604336346,0.24995000910507348,0.22451279894585002
13.0,0.0,13.0,0.0,7.0,0.0,7.0,0.0,,,,right,0.6132668999489397,415.5408720001578,xp7,415.5408720001578,None,396.4253853999544,398.43984910007566,False,3.0,['r'],True,0.4,0.4,0.0,0.0,2.0,0.6126016192893442,0.0,wait_cost,0.0,2.0,412.97631480009295,None,xp7,1,2023-04-13_15h18.15.054,threat_forest,2021.2.3,60.03500040616538,False,2.0,0.45,0.4333333333333333,-0.7,-1.0375,1,0,0,-0.4889550382143831,0.0,0.0,0.4,0.4,1.0,-0.3999999999999999,-0.3999999999999999,2.6,2.6,1.0,2.0,-1.0,3.0,0,0,1,0.5418948990060071,0.24824481743727653,0.1361182784972952,0.5683424485821307,0.24532930972179887,0.1712100245031909,0.6290862537932705,0.2333367390816194,0.16859267961735278,0.5346620877069844,0.24879853967579327,0.1788911428554925,0.6372041344262596,0.2311750254963409,0.1409641601479581,0.6162879479841092,0.2364771131536451,0.14333700218317247,0.6032945238361636,0.23933024134546027,0.16534620840701225,0.49491401637177773,0.2499741327705334,0.16179913733950382,0.12971640028799664,0.11289005578432086,0.12674064615479305,0.49292957604336346,0.24995000910507348,0.22451279894585002
14.0,0.0,14.0,0.0,0.0,0.0,0.0,0.0,419.9106469999533,423.41651440016,None,left,0.6907742000184953,424.1002995001618,xp7,419.9106469999533,423.41651440015994,424.1002995001618,None,False,5.0,['r'],False,0.4,0.4,0.0,0.0,1.0,0.6126016192893442,0.0454165613168723,wait_cost,1.0,4.0,,,xp7,1,2023-04-13_15h18.15.054,threat_forest,2021.2.3,60.03500040616538,False,7.0,0.45,0.45,-1.0666666666666669,-0.8833333333333333,1,0,0,-0.3699422813826089,0.0454165613168723,0.4,0.4,0.4,1.0,-0.7999999999999999,-0.7999999999999999,4.2,4.2,0.0,1.0,-1.0,5.0,0,0,1,0.5731789240345022,0.24464484507715256,0.19542692563387298,0.5683424485821307,0.24532930972179887,0.1712100245031909,0.6290862537932705,0.2333367390816194,0.16859267961735278,0.5346620877069844,0.24879853967579327,0.1788911428554925,0.5856449464805431,0.24266494314234488,0.16843701440169778,0.6162879479841092,0.2364771131536451,0.14333700218317247,0.6032945238361636,0.23933024134546027,0.16534620840701225,0.49491401637177773,0.2499741327705334,0.16179913733950382,0.6295217424855866,0.23322411822349742,0.19574063265596325,0.6454894244543664,0.22883282737193722,0.20423357883442875
14.0,0.0,14.0,0.0,1.0,0.0,1.0,0.0,,,,right,1.0912818999495355,429.3447263999842,xp7,419.9106469999533,423.41651440015994,429.3447263999842,None,True,4.0,['r'],False,0.4,0.4,0.0,0.0,1.0,0.6126016192893442,0.0610003292181069,succ_gain,1.0,5.0,426.83007559995167,None,xp7,1,2023-04-13_15h18.15.054,threat_forest,2021.2.3,60.03500040616538,True,7.0,0.45,0.45,-1.0666666666666669,-0.8833333333333333,1,0,1,0.08735306022967,0.0610003292181069,0.4,0.4,0.4,1.0,-0.7999999999999999,-0.7999999999999999,3.2,3.2,0.0,1.0,-1.0,4.0,0,0,1,0.5731789240345022,0.24464484507715256,0.19542692563387298,0.5683424485821307,0.24532930972179887,0.1712100245031909,0.6290862537932705,0.2333367390816194,0.16859267961735278,0.5346620877069844,0.24879853967579327,0.1788911428554925,0.5856449464805431,0.24266494314234488,0.16843701440169778,0.6162879479841092,0.2364771131536451,0.14333700218317247,0.6032945238361636,0.23933024134546027,0.16534620840701225,0.49491401637177773,0.2499741327705334,0.16179913733950382,0.6295217424855866,0.23322411822349742,0.19574063265596325,0.6930895286176303,0.2127164339382213,0.18875670820013646
14.0,0.0,14.0,0.0,2.0,0.0,2.0,0.0,,,,right,1.35526920016855,434.47668630001135,xp7,434.47668630001135,None,430.4606703999452,432.4746999000199,False,5.0,['r'],True,0.3333333333333333,0.5,0.3333333333333333,2.0,1.0,1.0,-0.0025265432098766,wait_cost,0.0,4.0,432.4746999000199,None,xp7,1,2023-04-13_15h18.15.054,threat_forest,2021.2.3,60.03500040616538,False,7.0,0.45,0.45,-1.0666666666666669,-0.8833333333333333,0,0,0,0.3040001063101603,-0.0025265432098766,0.3333333333333333,0.3333333333333333,0.5,0.6666666666666667,-1.5,-1.3333333333333337,3.6666666666666665,3.6666666666666665,1.0,1.0,1.0,5.0,0,0,0,0.5418948990060071,0.24824481743727653,0.1361182784972952,0.5494645863089896,0.24755325470128056,0.15997217683188558,0.25372428200467567,0.1893482707258875,0.1465675207824993,0.5803807711974849,0.24353893162169757,0.1680379033035035,0.49144753242273614,0.24992685529833986,0.18580053783256378,0.4970611518167012,0.2499913631713555,0.18573814783312326,0.5497868522546308,0.24752126934257554,0.17201968797790934,0.49491401637177773,0.2499741327705334,0.16179913733950382,0.5310997822906649,0.24903280354147325,0.20480538997763123,0.48420658116118886,0.2497505679213819,0.22432127188913975
14.0,0.0,14.0,0.0,3.0,0.0,3.0,0.0,,,,right,1.0572658001910895,441.51669079996645,xp7,435.8552500000224,437.8696819001343,441.51669079996645,None,True,4.0,['r'],False,0.4,0.4,0.0,0.0,1.0,0.6126016192893442,0.0844777777777778,unsucc_cost,1.0,2.0,437.8696819001343,None,xp7,1,2023-04-13_15h18.15.054,threat_forest,2021.2.3,60.03500040616538,True,7.0,0.45,0.45,-1.0666666666666669,-0.8833333333333333,1,0,1,0.0556861418708409,0.0844777777777778,0.4,0.4,0.4,1.0,-0.7999999999999999,-0.7999999999999999,3.2,3.2,0.0,1.0,-1.0,4.0,0,0,1,0.5731789240345022,0.24464484507715256,0.19542692563387298,0.5683424485821307,0.24532930972179887,0.1712100245031909,0.6290862537932705,0.2333367390816194,0.16859267961735278,0.5346620877069844,0.24879853967579327,0.1788911428554925,0.5856449464805431,0.24266494314234488,0.16843701440169778,0.6162879479841092,0.2364771131536451,0.14333700218317247,0.6032945238361636,0.23933024134546027,0.16534620840701225,0.49491401637177773,0.2499741327705334,0.16179913733950382,0.6295217424855866,0.23322411822349742,0.19574063265596325,0.7574975292817735,0.1836950224137822,0.1608869100572935
14.0,0.0,14.0,0.0,4.0,0.0,4.0,0.0,,,,right,1.0053732998203486,445.1990066000726,xp7,435.8552500000224,437.8696819001343,445.1990066000726,None,True,2.0,['r'],False,0.4,0.4,0.0,0.0,1.0,0.6126016192893442,0.0745555555555556,unsucc_cost,1.0,0.0,444.6134604001418,None,xp7,1,2023-04-13_15h18.15.054,threat_forest,2021.2.3,60.03500040616538,True,7.0,0.45,0.45,-1.0666666666666669,-0.8833333333333333,1,0,1,0.0053589151506237,0.0745555555555556,0.4,0.4,0.4,1.0,-0.7999999999999999,-0.7999999999999999,1.2000000000000002,1.2000000000000002,0.0,1.0,-1.0,2.0,0,0,1,0.5731789240345022,0.24464484507715256,0.19542692563387298,0.5683424485821307,0.24532930972179887,0.1712100245031909,0.6290862537932705,0.2333367390816194,0.16859267961735278,0.5346620877069844,0.24879853967579327,0.1788911428554925,0.5856449464805431,0.24266494314234488,0.16843701440169778,0.6162879479841092,0.2364771131536451,0.14333700218317247,0.6032945238361636,0.23933024134546027,0.16534620840701225,0.49491401637177773,0.2499741327705334,0.16179913733950382,0.6295217424855866,0.23322411822349742,0.19574063265596325,0.7314330952509299,0.19643872242257393,0.17312492082871603
15.0,0.0,15.0,0.0,0.0,0.0,0.0,0.0,450.88492149999365,454.3777181000914,None,right,1.7674284998793155,456.5547887999565,xp7,456.5547887999565,None,450.88492149999365,454.37771810009144,False,4.0,['r'],True,0.2,0.2,0.0,0.0,2.0,0.4554859150035951,0.0111872651087291,wait_cost,0.0,3.0,,,xp7,1,2023-04-13_15h18.15.054,threat_forest,2021.2.3,60.03500040616538,False,26.0,0.2111111111111111,0.3305555555555555,-1.3654320987654325,-1.2160493827160497,1,0,0,0.5695256652853888,0.0111872651087291,0.2,0.2,0.2,1.0,-1.2000000000000002,-1.2000000000000002,2.8,2.8,1.0,2.0,-1.0,4.0,0,0,1,0.5418948990060071,0.24824481743727653,0.1361182784972952,0.5683424485821307,0.24532930972179887,0.1712100245031909,0.6290862537932705,0.2333367390816194,0.16859267961735278,0.4422439385248313,0.2466642373628766,0.17448699447785615,0.5321384383006931,0.24896712078359254,0.18350577408766378,0.6162879479841092,0.2364771131536451,0.14333700218317247,0.44053423784906653,0.24646382313180867,0.17115815439661033,0.49491401637177773,0.2499741327705334,0.16179913733950382,0.33477838051018693,0.22270181645316345,0.1897071067747834,0.5315328793080307,0.2490056775225452,0.2236059398648294
15.0,0.0,15.0,0.0,1.0,0.0,1.0,0.0,,,,right,1.4233984001912177,463.7656305001583,xp7,458.3509083001409,460.3654209000524,463.7656305001583,None,True,3.0,['r'],False,0.1728395061728395,0.2222222222222222,0.2222222222222222,2.0,2.0,0.8571721972794328,0.0246106580002458,unsucc_cost,1.0,1.0,460.3654209000524,None,xp7,1,2023-04-13_15h18.15.054,threat_forest,2021.2.3,60.03500040616538,True,26.0,0.2111111111111111,0.3305555555555555,-1.3654320987654325,-1.2160493827160497,0,0,1,0.3530472519476105,0.0246106580002458,0.1728395061728395,0.1728395061728395,0.2222222222222222,0.7777777777777778,-1.7777777777777777,-1.5308641975308643,1.4691358024691357,1.4691358024691357,0.0,2.0,-1.0,3.0,0,0,0,0.5731789240345022,0.24464484507715256,0.19542692563387298,0.5557758078838895,0.24688905925489946,0.16332843218859194,0.6290862537932705,0.2333367390816194,0.16859267961735278,0.4524329117330618,0.2477373721138053,0.17670141585747273,0.45385972306809946,0.24787107484464757,0.18088508425647853,0.4970611518167012,0.2499913631713555,0.18573814783312326,0.4186348212601259,0.2433797076886284,0.16864543176746044,0.49491401637177773,0.2499741327705334,0.16179913733950382,0.2990348069833524,0.20961299119578158,0.1822019270462089,0.5773197011121884,0.24402166381992185,0.21881969934319576
15.0,0.0,15.0,0.0,2.0,0.0,2.0,0.0,,,,left,1.266924700001255,470.389851400163,xp7,470.389851400163,None,465.2112180001568,467.2255713001359,True,1.0,['r'],True,0.2,0.2,0.0,0.0,2.0,0.4554859150035951,0.0455962341247779,unsucc_cost,0.0,0.0,467.2255713001359,None,xp7,1,2023-04-13_15h18.15.054,threat_forest,2021.2.3,60.03500040616538,True,26.0,0.2111111111111111,0.3305555555555555,-1.3654320987654325,-1.2160493827160497,1,0,1,0.2365924678453648,0.0455962341247779,1.0,0.2,0.2,1.0,-1.2000000000000002,-1.2000000000000002,-0.2000000000000001,0.0,1.0,2.0,-1.0,1.0,1,0,1,0.5418948990060071,0.24824481743727653,0.1361182784972952,0.5683424485821307,0.24532930972179887,0.1712100245031909,0.6290862537932705,0.2333367390816194,0.16859267961735278,0.4422439385248313,0.2466642373628766,0.17448699447785615,0.5321384383006931,0.24896712078359254,0.18350577408766378,0.6162879479841092,0.2364771131536451,0.14333700218317247,0.44053423784906653,0.24646382313180867,0.17115815439661033,0.9374994955204532,0.05859419141934894,0.1809258779128408,0.9849411641559491,0.01483206730707283,0.07051384100822931,0.6460573359125116,0.22866725462613977,0.204074576264914
16.0,0.0,16.0,0.0,0.0,0.0,0.0,0.0,476.7103588001337,480.2134357001633,None,left,1.8297039000317448,483.1114291001577,xp7,483.1114291001577,None,476.7103588001337,480.21343570016325,True,4.0,['p'],True,0.4444444444444445,0.6666666666666666,0.3333333333333333,1.0,1.0,0.9656336071428248,0.0517531804924914,unsucc_cost,0.0,2.0,,,xp7,1,2023-04-13_15h18.15.054,threat_forest,2021.2.3,60.03500040616538,True,57.0,0.4583333333333333,0.3347222222222222,-1.34375,-1.3545910493827162,1,1,1,0.6041541505004283,0.0517531804924914,0.4444444444444445,0.4444444444444445,0.6666666666666666,0.6666666666666667,-1.0,-1.0,3.0,3.0,1.0,1.0,-1.0,4.0,0,1,1,0.5418948990060071,0.24824481743727653,0.1361182784972952,0.5494645863089896,0.24755325470128056,0.15997217683188558,0.6290862537932705,0.2333367390816194,0.16859267961735278,0.65327042121252,0.2265081779813367,0.13289481904538875,0.5590631729541395,0.24651154160058936,0.17763438570337664,0.6162879479841092,0.2364771131536451,0.14333700218317247,0.637719388400288,0.23103337005865063,0.15858649508966222,0.49491401637177773,0.2499741327705334,0.16179913733950382,0.6900962761494194,0.2138634057941237,0.18463913014535818,0.6652610185028643,0.2226887957633959,0.19833335166701144
16.0,0.0,16.0,0.0,1.0,0.0,1.0,0.0,,,,left,2.010826800018549,490.2209890000522,xp7,490.2209890000522,None,476.7103588001337,480.21343570016325,True,2.0,['p'],True,0.4444444444444445,0.6666666666666666,0.3333333333333333,1.0,1.0,0.9656336071428248,0.034685865190818,succ_gain,0.0,3.0,486.97447370016016,None,xp7,1,2023-04-13_15h18.15.054,threat_forest,2021.2.3,60.03500040616538,True,57.0,0.4583333333333333,0.3347222222222222,-1.34375,-1.3545910493827162,1,1,1,0.6985459807853356,0.034685865190818,0.4444444444444445,0.4444444444444445,0.6666666666666666,0.6666666666666667,-1.0,-1.0,1.0,1.0,1.0,1.0,-1.0,2.0,0,1,1,0.5418948990060071,0.24824481743727653,0.1361182784972952,0.5494645863089896,0.24755325470128056,0.15997217683188558,0.6290862537932705,0.2333367390816194,0.16859267961735278,0.65327042121252,0.2265081779813367,0.13289481904538875,0.5590631729541395,0.24651154160058936,0.17763438570337664,0.6162879479841092,0.2364771131536451,0.14333700218317247,0.637719388400288,0.23103337005865063,0.15858649508966222,0.49491401637177773,0.2499741327705334,0.16179913733950382,0.6900962761494194,0.2138634057941237,0.18463913014535818,0.6108761776787429,0.23770647322335184,0.21275510503454975
16.0,0.0,16.0,0.0,2.0,0.0,2.0,0.0,,,,left,1.032936500152573,497.2477804000955,xp7,497.2477804000955,None,476.7103588001337,480.21343570016325,True,3.0,['p'],True,0.4444444444444445,0.6666666666666666,0.3333333333333333,1.0,1.0,0.9656336071428248,0.0666724099085578,figh_cost,0.0,0.0,494.2674074999522,None,xp7,1,2023-04-13_15h18.15.054,threat_forest,2021.2.3,60.03500040616538,True,57.0,0.4583333333333333,0.3347222222222222,-1.34375,-1.3545910493827162,1,1,1,0.0324057169533621,0.0666724099085578,0.4444444444444445,0.4444444444444445,0.6666666666666666,0.6666666666666667,-1.0,-1.0,2.0,2.0,1.0,1.0,1.0,3.0,0,1,1,0.5418948990060071,0.24824481743727653,0.1361182784972952,0.5494645863089896,0.24755325470128056,0.15997217683188558,0.25372428200467567,0.1893482707258875,0.1465675207824993,0.65327042121252,0.2265081779813367,0.13289481904538875,0.5590631729541395,0.24651154160058936,0.17763438570337664,0.6162879479841092,0.2364771131536451,0.14333700218317247,0.637719388400288,0.23103337005865063,0.15858649508966222,0.49491401637177773,0.2499741327705334,0.16179913733950382,0.6900962761494194,0.2138634057941237,0.18463913014535818,0.7095044344438481,0.20610789194836335,0.18241040312394316
17.0,0.0,17.0,0.0,0.0,0.0,0.0,0.0,503.2366226001177,506.7386259001214,None,left,1.3023101000580937,508.00899969995953,xp7,508.00899969995953,None,503.2366226001177,506.7386259001214,True,5.0,['p'],True,0.16,0.2,0.2,2.0,2.0,0.8198746470064713,-0.013191945967,figh_cost,0.0,2.0,,,xp7,1,2023-04-13_15h18.15.054,threat_forest,2021.2.3,60.03500040616538,True,8.0,0.35,0.4041666666666667,-1.5300000000000002,-1.436875,0,0,1,0.264139687515538,-0.013191945967,0.16,0.16,0.2,0.8,-1.8000000000000005,-1.5600000000000005,3.4399999999999995,3.4399999999999995,1.0,2.0,-1.0,5.0,0,0,0,0.5418948990060071,0.24824481743727653,0.1361182784972952,0.5570359619179585,0.2467468990480932,0.16404678393009142,0.6290862537932705,0.2333367390816194,0.16859267961735278,0.4422439385248313,0.2466642373628766,0.17448699447785615,0.45086963096953453,0.24758620683893034,0.1802039534212767,0.4970611518167012,0.2499913631713555,0.18573814783312326,0.4083875260852389,0.24160715462321725,0.16720127888768535,0.49491401637177773,0.2499741327705334,0.16179913733950382,0.2829216897887856,0.20287700723584376,0.17833948948790962,0.44755202975557995,0.2472492104172404,0.22191917202350075
17.0,0.0,17.0,0.0,1.0,0.0,1.0,0.0,,,,left,0.8100719000212848,512.6501039001159,xp7,512.6501039001159,None,503.2366226001177,506.7386259001214,True,2.0,['p'],True,0.16,0.2,0.2,2.0,2.0,0.8198746470064713,-0.006811320703125,unsucc_cost,0.0,0.0,511.3509782999754,None,xp7,1,2023-04-13_15h18.15.054,threat_forest,2021.2.3,60.03500040616538,True,8.0,0.35,0.4041666666666667,-1.5300000000000002,-1.436875,0,0,1,-0.2106322697966964,-0.006811320703125,0.16,0.16,0.2,0.8,-1.8000000000000005,-1.5600000000000005,0.4399999999999997,0.4399999999999997,1.0,2.0,-1.0,2.0,0,0,0,0.5418948990060071,0.24824481743727653,0.1361182784972952,0.5570359619179585,0.2467468990480932,0.16404678393009142,0.6290862537932705,0.2333367390816194,0.16859267961735278,0.4422439385248313,0.2466642373628766,0.17448699447785615,0.45086963096953453,0.24758620683893034,0.1802039534212767,0.4970611518167012,0.2499913631713555,0.18573814783312326,0.4083875260852389,0.24160715462321725,0.16720127888768535,0.49491401637177773,0.2499741327705334,0.16179913733950382,0.2829216897887856,0.20287700723584376,0.17833948948790962,0.46943798723755353,0.2490659633759081,0.22366383348460314
0.0,0.0,0.0,0.0,0.0,0.0,0.0,0.0,12.548002899857238,16.050140799954534,None,left,1.375551800010726,19.04562149988488,xp7,12.548002899857238,16.050140799954534,19.04562149988488,None,False,5.0,['r'],False,0.375,0.5,0.25,1.0,1.0,0.9850568223215076,0.0395346585071088,wait_cost,1.0,4.0,,,xp7,2,2023-04-13_15h27.31.475,threat_forest,2021.2.3,60.00787303700493,False,50.0,0.35,0.35,-1.2625000000000002,-1.3962500000000002,1,1,0,0.3188549597142851,0.0395346585071088,0.375,0.375,0.5,0.75,-1.25,-1.125,3.875,3.875,0.0,1.0,-1.0,5.0,0,1,1,0.5731789240345022,0.24464484507715256,0.19542692563387298,0.5541996076382789,0.24706240253185663,0.16245250883650253,0.6290862537932705,0.2333367390816194,0.16859267961735278,0.5803807711974849,0.24353893162169757,0.1680379033035035,0.5253716467529287,0.24935627954104456,0.1844362682961026,0.6162879479841092,0.2364771131536451,0.14333700218317247,0.5834459724347028,0.24303676968442686,0.16836602974784468,0.49491401637177773,0.2499741327705334,0.16179913733950382,0.5934059563396531,0.24127532732027482,0.20035722506325887,0.6266790555484069,0.2339524168853636,0.20915001531420702
0.0,0.0,0.0,0.0,1.0,0.0,1.0,0.0,,,,right,1.7756765999365598,23.348038099939004,xp7,23.348038099939004,None,20.44604799989611,22.46055669989437,False,4.0,['r'],True,0.2,0.2,0.0,0.0,1.0,0.4554859150035951,-0.0082427551269531,wait_cost,0.0,3.0,22.46055669989437,None,xp7,2,2023-04-13_15h27.31.475,threat_forest,2021.2.3,60.00787303700493,False,50.0,0.35,0.35,-1.2625000000000002,-1.3962500000000002,0,0,0,0.5741815333584228,-0.0082427551269531,0.2,0.2,0.2,1.0,-1.4,-1.4,2.6,2.6,1.0,1.0,-1.0,4.0,0,0,0,0.5418948990060071,0.24824481743727653,0.1361182784972952,0.5683424485821307,0.24532930972179887,0.1712100245031909,0.6290862537932705,0.2333367390816194,0.16859267961735278,0.4422439385248313,0.2466642373628766,0.17448699447785615,0.5050252324141421,0.24997474703918388,0.1859150489071164,0.4970611518167012,0.2499913631713555,0.18573814783312326,0.44053423784906653,0.24646382313180867,0.17115815439661033,0.49491401637177773,0.2499741327705334,0.16179913733950382,0.33477838051018693,0.22270181645316345,0.1897071067747834,0.4645148011243824,0.24874080066075788,0.22335157371642528
0.0,0.0,0.0,0.0,2.0,0.0,2.0,0.0,,,,left,1.060718100052327,29.937340299831703,xp7,29.937340299831703,None,20.44604799989611,22.46055669989437,True,3.0,['r'],True,0.2,0.2,0.0,0.0,1.0,0.4554859150035951,-0.0045679809570313,unsucc_cost,0.0,1.0,27.15612839977257,None,xp7,2,2023-04-13_15h27.31.475,threat_forest,2021.2.3,60.00787303700493,True,50.0,0.35,0.35,-1.2625000000000002,-1.3962500000000002,0,0,1,0.0589461316359121,-0.0045679809570313,0.2,0.2,0.2,1.0,-1.4,-1.4,1.6,1.6,1.0,1.0,-1.0,3.0,0,0,0,0.5418948990060071,0.24824481743727653,0.1361182784972952,0.5683424485821307,0.24532930972179887,0.1712100245031909,0.6290862537932705,0.2333367390816194,0.16859267961735278,0.4422439385248313,0.2466642373628766,0.17448699447785615,0.5050252324141421,0.24997474703918388,0.1859150489071164,0.4970611518167012,0.2499913631713555,0.18573814783312326,0.44053423784906653,0.24646382313180867,0.17115815439661033,0.49491401637177773,0.2499741327705334,0.16179913733950382,0.33477838051018693,0.22270181645316345,0.1897071067747834,0.4771652070541841,0.24947857223112171,0.22406006939811374
0.0,0.0,0.0,0.0,3.0,0.0,3.0,0.0,,,,right,1.0029403001535684,34.582876599859446,xp7,31.01963389990852,33.034000099869445,34.582876599859446,None,True,1.0,['r'],False,0.375,0.5,0.25,1.0,1.0,0.9850568223215076,0.049947509765625,succ_gain,1.0,2.0,33.034000099869445,None,xp7,2,2023-04-13_15h27.31.475,threat_forest,2021.2.3,60.00787303700493,True,50.0,0.35,0.35,-1.2625000000000002,-1.3962500000000002,1,1,1,0.0029359859257527,0.049947509765625,1.0,0.375,0.5,0.75,-1.25,-1.125,-0.125,0.0,0.0,1.0,-1.0,1.0,1,1,1,0.5731789240345022,0.24464484507715256,0.19542692563387298,0.5541996076382789,0.24706240253185663,0.16245250883650253,0.6290862537932705,0.2333367390816194,0.16859267961735278,0.5803807711974849,0.24353893162169757,0.1680379033035035,0.5253716467529287,0.24935627954104456,0.1844362682961026,0.6162879479841092,0.2364771131536451,0.14333700218317247,0.5834459724347028,0.24303676968442686,0.16836602974784468,0.9374994955204532,0.05859419141934894,0.1809258779128408,0.9849411641559491,0.01483206730707283,0.07051384100822931,0.659682154850601,0.22450160942226868,0.20007423014567632
0.0,0.0,0.0,0.0,4.0,0.0,4.0,0.0,,,,left,1.742737099993974,40.2961610998027,xp7,40.2961610998027,None,35.6152016997803,37.62969119986519,True,2.0,['r'],True,0.2,0.2,0.0,0.0,1.0,0.4554859150035951,-0.0039531250000001,unsucc_cost,0.0,0.0,37.62969119986519,None,xp7,2,2023-04-13_15h27.31.475,threat_forest,2021.2.3,60.00787303700493,True,50.0,0.35,0.35,-1.2625000000000002,-1.3962500000000002,0,0,1,0.5554569232591265,-0.0039531250000001,0.2,0.2,0.2,1.0,-1.4,-1.4,0.5999999999999999,0.5999999999999999,1.0,1.0,1.0,2.0,0,0,0,0.5418948990060071,0.24824481743727653,0.1361182784972952,0.5683424485821307,0.24532930972179887,0.1712100245031909,0.25372428200467567,0.1893482707258875,0.1465675207824993,0.4422439385248313,0.2466642373628766,0.17448699447785615,0.5050252324141421,0.24997474703918388,0.1859150489071164,0.4970611518167012,0.2499913631713555,0.18573814783312326,0.44053423784906653,0.24646382313180867,0.17115815439661033,0.49491401637177773,0.2499741327705334,0.16179913733950382,0.33477838051018693,0.22270181645316345,0.1897071067747834,0.4792851554873124,0.24957089521681522,0.22414872886848636
1.0,0.0,1.0,0.0,0.0,0.0,0.0,0.0,45.55742909992114,49.05846929992549,None,left,2.1662981999106705,50.86836019996554,xp7,50.86836019996554,None,45.55742909992114,49.05846929992549,True,4.0,['r'],True,0.2222222222222222,0.3333333333333333,0.3333333333333333,2.0,2.0,0.9656336071428248,0.0156420001646662,unsucc_cost,0.0,2.0,,,xp7,2,2023-04-13_15h27.31.475,threat_forest,2021.2.3,60.00787303700493,True,63.0,0.2666666666666666,0.3083333333333333,-1.5022222222222226,-1.3823611111111114,0,0,1,0.7730198121916811,0.0156420001646662,0.2222222222222222,0.2222222222222222,0.3333333333333333,0.6666666666666667,-1.666666666666667,-1.4444444444444446,2.555555555555556,2.555555555555556,1.0,2.0,-1.0,4.0,0,0,0,0.5418948990060071,0.24824481743727653,0.1361182784972952,0.5494645863089896,0.24755325470128056,0.15997217683188558,0.6290862537932705,0.2333367390816194,0.16859267961735278,0.5038067704082951,0.24998550849905848,0.1813404616730055,0.4688558976491013,0.2490300448887568,0.1836562281486488,0.4970611518167012,0.2499913631713555,0.18573814783312326,0.4586297425603431,0.24828850179937648,0.1726447755894269,0.49491401637177773,0.2499741327705334,0.16179913733950382,0.3655281600319146,0.23191732425559763,0.19499131226972205,0.5468257553495046,0.24780734863594836,0.22245516247586375
1.0,0.0,1.0,0.0,1.0,0.0,1.0,0.0,,,,right,1.47384319989942,57.395153699908406,xp7,57.395153699908406,None,45.55742909992114,49.05846929992549,False,2.0,['r'],True,0.2222222222222222,0.3333333333333333,0.3333333333333333,2.0,2.0,0.9656336071428248,0.0119627879815068,wait_cost,0.0,1.0,55.08005269989371,None,xp7,2,2023-04-13_15h27.31.475,threat_forest,2021.2.3,60.00787303700493,False,63.0,0.2666666666666666,0.3083333333333333,-1.5022222222222226,-1.3823611111111114,0,0,0,0.3878734108355606,0.0119627879815068,0.2222222222222222,0.2222222222222222,0.3333333333333333,0.6666666666666667,-1.666666666666667,-1.4444444444444446,0.5555555555555554,0.5555555555555554,1.0,2.0,-1.0,2.0,0,0,0,0.5418948990060071,0.24824481743727653,0.1361182784972952,0.5494645863089896,0.24755325470128056,0.15997217683188558,0.6290862537932705,0.2333367390816194,0.16859267961735278,0.5038067704082951,0.24998550849905848,0.1813404616730055,0.4688558976491013,0.2490300448887568,0.1836562281486488,0.4970611518167012,0.2499913631713555,0.18573814783312326,0.4586297425603431,0.24828850179937648,0.1726447755894269,0.49491401637177773,0.2499741327705334,0.16179913733950382,0.3655281600319146,0.23191732425559763,0.19499131226972205,0.534200290646166,0.24883034011971775,0.2234375601146034
1.0,0.0,1.0,0.0,2.0,0.0,2.0,0.0,,,,left,1.4113624000456184,62.72355559980497,xp7,62.72355559980497,None,45.55742909992114,49.05846929992549,True,1.0,['r'],True,0.2222222222222222,0.3333333333333333,0.3333333333333333,2.0,2.0,0.9656336071428248,0.0504359153923011,unsucc_cost,0.0,0.0,60.90784739982337,None,xp7,2,2023-04-13_15h27.31.475,threat_forest,2021.2.3,60.00787303700493,True,63.0,0.2666666666666666,0.3083333333333333,-1.5022222222222226,-1.3823611111111114,0,0,1,0.3445554790466693,0.0504359153923011,1.0,0.2222222222222222,0.3333333333333333,0.6666666666666667,-1.666666666666667,-1.4444444444444446,-0.4444444444444446,0.0,1.0,2.0,-1.0,1.0,1,0,0,0.5418948990060071,0.24824481743727653,0.1361182784972952,0.5494645863089896,0.24755325470128056,0.15997217683188558,0.6290862537932705,0.2333367390816194,0.16859267961735278,0.5038067704082951,0.24998550849905848,0.1813404616730055,0.4688558976491013,0.2490300448887568,0.1836562281486488,0.4970611518167012,0.2499913631713555,0.18573814783312326,0.4586297425603431,0.24828850179937648,0.1726447755894269,0.9374994955204532,0.05859419141934894,0.1809258779128408,0.9849411641559491,0.01483206730707283,0.07051384100822931,0.6611956036102011,0.22401597737674286,0.19960786871218425
2.0,0.0,2.0,0.0,0.0,0.0,0.0,0.0,68.52490559988655,72.03081689984538,None,right,0.852382899960503,73.58010079991072,xp7,68.52490559988655,72.03081689984538,73.58010079991072,None,True,4.0,['r'],False,0.4444444444444445,0.6666666666666666,0.3333333333333333,1.0,2.0,0.9656336071428248,0.0696585132666405,succ_gain,1.0,6.0,,,xp7,2,2023-04-13_15h27.31.475,threat_forest,2021.2.3,60.00787303700493,True,29.0,0.4761904761904761,0.3714285714285714,-0.8594104308390023,-1.1808163265306124,1,1,1,-0.1597194400094601,0.0696585132666405,0.4444444444444445,0.4444444444444445,0.6666666666666666,0.6666666666666667,-0.3333333333333335,-0.5555555555555556,3.4444444444444446,3.4444444444444446,0.0,2.0,-1.0,4.0,0,1,1,0.5731789240345022,0.24464484507715256,0.19542692563387298,0.5494645863089896,0.24755325470128056,0.15997217683188558,0.6290862537932705,0.2333367390816194,0.16859267961735278,0.65327042121252,0.2265081779813367,0.13289481904538875,0.6455326660674725,0.22882024310729354,0.13533378094362414,0.6162879479841092,0.2364771131536451,0.14333700218317247,0.637719388400288,0.23103337005865063,0.15858649508966222,0.49491401637177773,0.2499741327705334,0.16179913733950382,0.6900962761494194,0.2138634057941237,0.18463913014535818,0.7179346233258129,0.20250449995583605,0.17894999916058998
2.0,0.0,2.0,0.0,1.0,0.0,1.0,0.0,,,,left,1.88410530006513,78.74672509985976,xp7,78.74672509985976,None,74.46221229992807,76.47693029977381,True,6.0,['r'],True,0.2448979591836734,0.2857142857142857,0.1428571428571428,1.0,2.0,0.8400769154957735,-0.0717249489552175,unsucc_cost,0.0,4.0,76.47693029977381,None,xp7,2,2023-04-13_15h27.31.475,threat_forest,2021.2.3,60.00787303700493,True,29.0,0.4761904761904761,0.3714285714285714,-0.8594104308390023,-1.1808163265306124,1,0,1,0.6334530663466007,-0.0717249489552175,0.2448979591836734,0.2448979591836734,0.2857142857142857,0.8571428571428572,-1.2857142857142856,-1.163265306122449,4.836734693877551,4.836734693877551,1.0,2.0,1.0,6.0,0,0,1,0.5418948990060071,0.24824481743727653,0.1361182784972952,0.560272951059979,0.2463671713705214,0.16596559120118015,0.25372428200467567,0.1893482707258875,0.1465675207824993,0.4817357374149702,0.24966641671222514,0.18068201344531337,0.5205323668260093,0.24957842191252222,0.18496741962226626,0.6162879479841092,0.2364771131536451,0.14333700218317247,0.4772073732226635,0.2494804961645891,0.1736159296433103,0.49491401637177773,0.2499741327705334,0.16179913733950382,0.3980759499131222,0.23961148801388765,0.19940317358894036,0.265152031321003,0.19484643160734888,0.17159581451465356
2.0,0.0,2.0,0.0,2.0,0.0,2.0,0.0,,,,left,1.0979061999823898,84.66940289991908,xp7,84.66940289991908,None,74.46221229992807,76.47693029977381,True,4.0,['r'],True,0.2448979591836734,0.2857142857142857,0.1428571428571428,1.0,2.0,0.8400769154957735,-0.0372610548438117,unsucc_cost,0.0,2.0,82.67090429994278,None,xp7,2,2023-04-13_15h27.31.475,threat_forest,2021.2.3,60.00787303700493,True,29.0,0.4761904761904761,0.3714285714285714,-0.8594104308390023,-1.1808163265306124,1,0,1,0.0934049113711135,-0.0372610548438117,0.2448979591836734,0.2448979591836734,0.2857142857142857,0.8571428571428572,-1.2857142857142856,-1.163265306122449,2.836734693877551,2.836734693877551,1.0,2.0,-1.0,4.0,0,0,1,0.5418948990060071,0.24824481743727653,0.1361182784972952,0.560272951059979,0.2463671713705214,0.16596559120118015,0.6290862537932705,0.2333367390816194,0.16859267961735278,0.4817357374149702,0.24966641671222514,0.18068201344531337,0.5205323668260093,0.24957842191252222,0.18496741962226626,0.6162879479841092,0.2364771131536451,0.14333700218317247,0.4772073732226635,0.2494804961645891,0.1736159296433103,0.49491401637177773,0.2499741327705334,0.16179913733950382,0.3980759499131222,0.23961148801388765,0.19940317358894036,0.3674557804890439,0.2324320298742315,0.20768995955284028
2.0,0.0,2.0,0.0,3.0,0.0,3.0,0.0,,,,right,0.9276983998715878,90.08088479982688,xp7,85.78506959998049,87.79942129994743,90.08088479982688,None,True,2.0,['r'],False,0.4444444444444445,0.6666666666666666,0.3333333333333333,1.0,2.0,0.9656336071428248,0.0944611684140408,unsucc_cost,1.0,0.0,87.79942129994743,None,xp7,2,2023-04-13_15h27.31.475,threat_forest,2021.2.3,60.00787303700493,True,29.0,0.4761904761904761,0.3714285714285714,-0.8594104308390023,-1.1808163265306124,1,1,1,-0.0750485991583022,0.0944611684140408,0.4444444444444445,0.4444444444444445,0.6666666666666666,0.6666666666666667,-0.3333333333333335,-0.5555555555555556,1.4444444444444444,1.4444444444444444,0.0,2.0,-1.0,2.0,0,1,1,0.5731789240345022,0.24464484507715256,0.19542692563387298,0.5494645863089896,0.24755325470128056,0.15997217683188558,0.6290862537932705,0.2333367390816194,0.16859267961735278,0.65327042121252,0.2265081779813367,0.13289481904538875,0.6455326660674725,0.22882024310729354,0.13533378094362414,0.6162879479841092,0.2364771131536451,0.14333700218317247,0.637719388400288,0.23103337005865063,0.15858649508966222,0.49491401637177773,0.2499741327705334,0.16179913733950382,0.6900962761494194,0.2138634057941237,0.18463913014535818,0.7819312211202206,0.17051478655766134,0.1482296858393805
3.0,0.0,3.0,0.0,0.0,0.0,0.0,0.0,95.80909809982404,99.3220805998426,None,left,1.02647570008412,101.256997999968,xp7,101.256997999968,None,95.80909809982404,99.3220805998426,True,4.0,['p'],True,0.4444444444444445,0.6666666666666666,0.3333333333333333,1.0,2.0,0.9656336071428248,0.0822356493687493,unsucc_cost,0.0,2.0,,,xp7,2,2023-04-13_15h27.31.475,threat_forest,2021.2.3,60.00787303700493,True,21.0,0.4761904761904761,0.4761904761904761,-1.012471655328798,-0.9359410430839,1,0,1,0.0261312846044639,0.0822356493687493,0.4444444444444445,0.4444444444444445,0.6666666666666666,0.6666666666666667,-0.3333333333333335,-0.5555555555555556,3.4444444444444446,3.4444444444444446,1.0,2.0,-1.0,4.0,0,0,1,0.5418948990060071,0.24824481743727653,0.1361182784972952,0.5494645863089896,0.24755325470128056,0.15997217683188558,0.6290862537932705,0.2333367390816194,0.16859267961735278,0.65327042121252,0.2265081779813367,0.13289481904538875,0.6455326660674725,0.22882024310729354,0.13533378094362414,0.6162879479841092,0.2364771131536451,0.14333700218317247,0.637719388400288,0.23103337005865063,0.15858649508966222,0.49491401637177773,0.2499741327705334,0.16179913733950382,0.6900962761494194,0.2138634057941237,0.18463913014535818,0.7517611431773786,0.18661632678601947,0.16369229266590632
3.0,0.0,3.0,0.0,1.0,0.0,1.0,0.0,,,,left,1.00349700008519,106.81531419977546,xp7,106.81531419977546,None,95.80909809982404,99.3220805998426,True,2.0,['p'],True,0.4444444444444445,0.6666666666666666,0.3333333333333333,1.0,2.0,0.9656336071428248,0.0754537458767131,succ_gain,0.0,4.0,104.31734009995124,None,xp7,2,2023-04-13_15h27.31.475,threat_forest,2021.2.3,60.00787303700493,True,21.0,0.4761904761904761,0.4761904761904761,-1.012471655328798,-0.9359410430839,1,0,1,0.0034908997980583,0.0754537458767131,0.4444444444444445,0.4444444444444445,0.6666666666666666,0.6666666666666667,-0.3333333333333335,-0.5555555555555556,1.4444444444444444,1.4444444444444444,1.0,2.0,-1.0,2.0,0,0,1,0.5418948990060071,0.24824481743727653,0.1361182784972952,0.5494645863089896,0.24755325470128056,0.15997217683188558,0.6290862537932705,0.2333367390816194,0.16859267961735278,0.65327042121252,0.2265081779813367,0.13289481904538875,0.6455326660674725,0.22882024310729354,0.13533378094362414,0.6162879479841092,0.2364771131536451,0.14333700218317247,0.637719388400288,0.23103337005865063,0.15858649508966222,0.49491401637177773,0.2499741327705334,0.16179913733950382,0.6900962761494194,0.2138634057941237,0.18463913014535818,0.7338640746955776,0.19530759456678126,0.1720386778322945
3.0,0.0,3.0,0.0,2.0,0.0,2.0,0.0,,,,left,1.278215000173077,110.8291926998645,xp7,107.84771499992348,109.86226639989763,110.8291926998645,None,False,4.0,['p'],False,0.2040816326530612,0.2857142857142857,0.2857142857142857,2.0,2.0,0.9335459102197724,-0.0834532241401525,wait_cost,1.0,3.0,109.86226639989763,None,xp7,2,2023-04-13_15h27.31.475,threat_forest,2021.2.3,60.00787303700493,False,21.0,0.4761904761904761,0.4761904761904761,-1.012471655328798,-0.9359410430839,0,0,0,0.2454645735532911,-0.0834532241401525,0.2040816326530612,0.2040816326530612,0.2857142857142857,0.7142857142857143,-1.7142857142857144,-1.469387755102041,2.5306122448979598,2.5306122448979598,0.0,2.0,1.0,4.0,0,0,0,0.5731789240345022,0.24464484507715256,0.19542692563387298,0.5521714660051983,0.24727813813486843,0.16136237222507943,0.25372428200467567,0.1893482707258875,0.1465675207824993,0.4817357374149702,0.24966641671222514,0.18068201344531337,0.4624204780901301,0.2485877795330256,0.18259875393222502,0.4970611518167012,0.2499913631713555,0.18573814783312326,0.44384752555031814,0.24684689961317782,0.1714702584540508,0.49491401637177773,0.2499741327705334,0.16179913733950382,0.3403312329700844,0.22450588483514655,0.19074156610808266,0.23479723779810954,0.17966749492048753,0.1570192009295569
