miniblock.thisRepN,miniblock.thisTrialN,miniblock.thisN,miniblock.thisIndex,day.thisRepN,day.thisTrialN,day.thisN,day.thisIndex,forest.started,fixation_forest.started,fixation_forest.stopped,key_resp.keys,key_resp.rt,key_resp.started,Subject_ID,weather_left.started,weather_left.stopped,weather_right.started,weather_right.stopped,foraging T/F,in_LP,p/r heuristic,good_weather.T/F,p_succ_correct,p_succ_uncorrected,r_threat,n_oponents,gain_if_succ,weather_entropy,OP_value_difference,action_outcome,forest_side_L=0_R=1,out_LP,fixation_day.started,fixation_day.stopped,participant,session,date,expName,psychopyVersion,frameRate,foraging T/F NaNs,fora_NR,forest_mean_p,mvt_cutoff_p,forest_mean_ev,mvt_cutoff_ev,mvt_policy_eg,mvt_policy_p,fora_response,logRT,optimal policy,$\mathit{p}$ success cor + cap,$\mathit{p}$ success cor,$\mathit{p}$ success,risk threat encounter,expected gain naive,expected gain correct,expected state no bounds,expected state with bounds,weather type,gain magnitude,win stay lose shift,continuous energy state,binary energy state,$\mathit{p}$ success based MVT,expected gain based MVT,weather type fit,weather type_uncertain,weather type_uncertain_fit,risk threat encounter fit,risk threat encounter_uncertain,risk threat encounter_uncertain_fit,win stay lose shift fit,win stay lose shift_uncertain,win stay lose shift_uncertain_fit,$\mathit{p}$ success fit,$\mathit{p}$ success_uncertain,$\mathit{p}$ success_uncertain_fit,expected gain naive fit,expected gain naive_uncertain,expected gain naive_uncertain_fit,expected gain based MVT fit,expected gain based MVT_uncertain,expected gain based MVT_uncertain_fit,$\mathit{p}$ success cor fit,$\mathit{p}$ success cor_uncertain,$\mathit{p}$ success cor_uncertain_fit,binary energy state fit,binary energy state_uncertain,binary energy state_uncertain_fit,$\mathit{p}$ success cor + cap fit,$\mathit{p}$ success cor + cap_uncertain,$\mathit{p}$ success cor + cap_uncertain_fit,optimal policy fit,optimal policy_uncertain,optimal policy_uncertain_fit
0.0,0.0,0.0,0.0,0.0,0.0,0.0,0.0,28.81416990002617,32.31124689988792,None,left,1.0032641999423504,35.43346680002287,ae11,28.81416990002617,32.31124689988792,35.43346680002287,None,False,4.0,['p'],False,0.24,0.3,0.2,2.0,1.0,0.9003120349047065,0.0028177647265513,wait_cost,1.0,3.0,,,ae11,1,2022-04-29_14h28.10.531,threat_forest,2021.2.3,59.998619923447386,False,9.0,0.4,0.4,-1.3025,-1.3025,0,0,0,0.0032588840067617,0.0028177647265513,0.24,0.24,0.3,0.8,-1.7,-1.48,2.52,2.52,0.0,1.0,,4.0,0,0,0,0.45160770536998324,0.24765818582044172,-0.2416460797304507,0.4742515370536501,0.2493370166559005,-0.2285761048177649,,,,0.4150935936629341,0.24279090216292504,-0.2488822605155755,0.3023897383030409,0.21095018447205935,-0.23302028529759441,0.2575754772764748,0.191230350782271,-0.22432511960013676,0.32747355366728736,0.22023462531580562,-0.24487621991857236,0.41860811980067586,0.24337536183761888,-0.2435250468020062,0.30424651928967567,0.21168057478979269,-0.2328568307186536,0.34772071119142045,0.22681101819995322,-0.23255721082284805
0.0,0.0,0.0,0.0,1.0,0.0,1.0,0.0,,,,left,0.7226243996992707,40.527942299842834,ae11,40.527942299842834,None,36.46900459984317,38.46868749987334,True,3.0,['p'],True,0.375,0.5,0.25,1.0,1.0,0.9850568223215076,0.0380355435233458,succ_gain,0.0,4.0,38.46868749987334,None,ae11,1,2022-04-29_14h28.10.531,threat_forest,2021.2.3,59.998619923447386,True,9.0,0.4,0.4,-1.3025,-1.3025,1,0,1,-0.3248656943021796,0.0380355435233458,0.375,0.375,0.5,0.75,-1.25,-1.125,1.875,1.875,1.0,1.0,-1.0,3.0,0,0,1,0.5070510527720841,0.24995028265480523,-0.24631770032368805,0.4360185842908051,0.24590637844384716,-0.2320448029418814,0.5411378002696797,0.24830768138897194,-0.25406953395348064,0.5027119932023928,0.24999264509287014,-0.2331915620054812,0.4092533345327136,0.24176504270656834,-0.25282640931285105,0.7014914109187104,0.20940121132598744,-0.26365904138300744,0.5177734917340663,0.2496841029915791,-0.23769885429304358,0.41860811980067586,0.24337536183761888,-0.2435250468020062,0.4926428030247502,0.24994587165266743,-0.21993655829915093,0.5016884473548309,0.24999714914552992,-0.2276538445618989
0.0,0.0,0.0,0.0,2.0,0.0,2.0,0.0,,,,left,0.6425188998691738,44.45832929993048,ae11,44.45832929993048,None,36.46900459984317,38.46868749987334,True,4.0,['p'],True,0.375,0.5,0.25,1.0,1.0,0.9850568223215076,0.0523533848291014,unsucc_cost,0.0,2.0,43.2684144997038,None,ae11,1,2022-04-29_14h28.10.531,threat_forest,2021.2.3,59.998619923447386,True,9.0,0.4,0.4,-1.3025,-1.3025,1,0,1,-0.4423590465066164,0.0523533848291014,0.375,0.375,0.5,0.75,-1.25,-1.125,2.875,2.875,1.0,1.0,1.0,4.0,0,0,1,0.5070510527720841,0.24995028265480523,-0.24631770032368805,0.4360185842908051,0.24590637844384716,-0.2320448029418814,0.25609720999225605,0.19051142902643836,-0.2088917945551031,0.5027119932023928,0.24999264509287014,-0.2331915620054812,0.4092533345327136,0.24176504270656834,-0.25282640931285105,0.7014914109187104,0.20940121132598744,-0.26365904138300744,0.5177734917340663,0.2496841029915791,-0.23769885429304358,0.41860811980067586,0.24337536183761888,-0.2435250468020062,0.4926428030247502,0.24994587165266743,-0.21993655829915093,0.5659264813699676,0.2456536990541753,-0.22857239051008038
0.0,0.0,0.0,0.0,3.0,0.0,3.0,0.0,,,,left,0.7293897997587919,48.29161499999464,ae11,48.29161499999464,None,36.46900459984317,38.46868749987334,True,2.0,['p'],True,0.375,0.5,0.25,1.0,1.0,0.9850568223215076,0.0367406982421875,figh_cost,0.0,0.0,47.11886709975079,None,ae11,1,2022-04-29_14h28.10.531,threat_forest,2021.2.3,59.998619923447386,True,9.0,0.4,0.4,-1.3025,-1.3025,1,0,1,-0.3155469851325517,0.0367406982421875,0.375,0.375,0.5,0.75,-1.25,-1.125,0.875,0.875,1.0,1.0,-1.0,2.0,0,0,1,0.5070510527720841,0.24995028265480523,-0.24631770032368805,0.4360185842908051,0.24590637844384716,-0.2320448029418814,0.5411378002696797,0.24830768138897194,-0.25406953395348064,0.5027119932023928,0.24999264509287014,-0.2331915620054812,0.4092533345327136,0.24176504270656834,-0.25282640931285105,0.7014914109187104,0.20940121132598744,-0.26365904138300744,0.5177734917340663,0.2496841029915791,-0.23769885429304358,0.41860811980067586,0.24337536183761888,-0.2435250468020062,0.4926428030247502,0.24994587165266743,-0.21993655829915093,0.4958442169445364,0.2499827294671959,-0.2276568940126418
1.0,0.0,1.0,0.0,0.0,0.0,0.0,0.0,54.55034800013527,58.05219459999353,None,left,0.7956324000842869,60.61043930007145,ae11,60.61043930007145,None,54.55034800013527,58.05219459999353,True,4.0,['r'],True,0.6,0.6,0.0,0.0,2.0,0.6126016192893442,0.1103326303155006,succ_gain,0.0,6.0,,,ae11,1,2022-04-29_14h28.10.531,threat_forest,2021.2.3,59.998619923447386,True,47.0,0.6333333333333333,0.5166666666666666,-0.0777777777777778,-0.6901388888888889,1,1,1,-0.2286180087436813,0.1103326303155006,0.6,0.6,0.6,1.0,0.3999999999999999,0.3999999999999999,4.4,4.4,1.0,2.0,-1.0,4.0,0,1,1,0.5070510527720841,0.24995028265480523,-0.24631770032368805,0.6257250867347733,0.23419320256553372,-0.24388792619918184,0.5411378002696797,0.24830768138897194,-0.25406953395348064,0.5467991214831104,0.24780984222840904,-0.23794731377090705,0.7944913489291996,0.1632748454058604,-0.20237715623211383,0.7014914109187104,0.20940121132598744,-0.26365904138300744,0.8004411849734405,0.1597350943717549,-0.2596210401336915,0.41860811980067586,0.24337536183761888,-0.2435250468020062,0.7858539587356727,0.16828751427514438,-0.2475084918562722,0.7878503466962903,0.1671421779068255,-0.24517588269225293
1.0,0.0,1.0,0.0,1.0,0.0,1.0,0.0,,,,left,0.9153669998049736,66.676830700133,ae11,61.435705999843776,63.43538519972935,66.676830700133,None,False,6.0,['r'],False,0.4444444444444445,0.6666666666666666,0.3333333333333333,2.0,2.0,0.9656336071428248,-0.0843219852156683,wait_cost,1.0,5.0,63.43538519972935,None,ae11,1,2022-04-29_14h28.10.531,threat_forest,2021.2.3,59.998619923447386,False,47.0,0.6333333333333333,0.5166666666666666,-0.0777777777777778,-0.6901388888888889,1,0,0,-0.0884302014397525,-0.0843219852156683,0.4444444444444445,0.4444444444444445,0.6666666666666666,0.6666666666666667,-0.3333333333333335,-0.5555555555555556,5.444444444444445,5.444444444444445,0.0,2.0,1.0,6.0,0,0,1,0.45160770536998324,0.24765818582044172,-0.2416460797304507,0.3741574587670898,0.23416365481604332,-0.24391780175495137,0.25609720999225605,0.19051142902643836,-0.2088917945551031,0.5758299604760592,0.2442498170941993,-0.24570366964373036,0.6429280126649505,0.2295715831956478,-0.24498911311598437,0.7014914109187104,0.20940121132598744,-0.26365904138300744,0.6172500933918276,0.23625241559960772,-0.24097239728899594,0.41860811980067586,0.24337536183761888,-0.2435250468020062,0.5940954760457701,0.24114604138771992,-0.22290781982303096,0.09954348540289973,0.08963457991674242,-0.2615670667946738
1.0,0.0,1.0,0.0,2.0,0.0,2.0,0.0,,,,left,0.7268945998512208,71.34375769970939,ae11,71.34375769970939,None,67.61934510013089,69.6189105999656,True,5.0,['r'],True,0.6,0.6,0.0,0.0,2.0,0.6126016192893442,0.1044295061728395,succ_gain,0.0,6.0,69.6189105999656,None,ae11,1,2022-04-29_14h28.10.531,threat_forest,2021.2.3,59.998619923447386,True,47.0,0.6333333333333333,0.5166666666666666,-0.0777777777777778,-0.6901388888888889,1,1,1,-0.3189737915310825,0.1044295061728395,0.6,0.6,0.6,1.0,0.3999999999999999,0.3999999999999999,5.4,5.4,1.0,2.0,-1.0,5.0,0,1,1,0.5070510527720841,0.24995028265480523,-0.24631770032368805,0.6257250867347733,0.23419320256553372,-0.24388792619918184,0.5411378002696797,0.24830768138897194,-0.25406953395348064,0.5467991214831104,0.24780984222840904,-0.23794731377090705,0.7944913489291996,0.1632748454058604,-0.20237715623211383,0.7014914109187104,0.20940121132598744,-0.26365904138300744,0.8004411849734405,0.1597350943717549,-0.2596210401336915,0.41860811980067586,0.24337536183761888,-0.2435250468020062,0.7858539587356727,0.16828751427514438,-0.2475084918562722,0.769491174522955,0.17737450685423817,-0.2430119659676625
1.0,0.0,1.0,0.0,3.0,0.0,3.0,0.0,,,,left,0.8727635997347534,77.79249639995396,ae11,72.10268250014633,74.10214680014178,77.79249639995396,None,False,6.0,['r'],False,0.4444444444444445,0.6666666666666666,0.3333333333333333,2.0,2.0,0.9656336071428248,-0.1530384087791495,wait_cost,1.0,5.0,74.10214680014178,None,ae11,1,2022-04-29_14h28.10.531,threat_forest,2021.2.3,59.998619923447386,False,47.0,0.6333333333333333,0.5166666666666666,-0.0777777777777778,-0.6901388888888889,1,0,0,-0.136090550494792,-0.1530384087791495,0.0,0.4444444444444445,0.6666666666666666,0.6666666666666667,-0.3333333333333335,-0.5555555555555556,5.444444444444445,5.444444444444445,0.0,2.0,1.0,6.0,0,0,1,0.45160770536998324,0.24765818582044172,-0.2416460797304507,0.3741574587670898,0.23416365481604332,-0.24391780175495137,0.25609720999225605,0.19051142902643836,-0.2088917945551031,0.5758299604760592,0.2442498170941993,-0.24570366964373036,0.6429280126649505,0.2295715831956478,-0.24498911311598437,0.7014914109187104,0.20940121132598744,-0.26365904138300744,0.6172500933918276,0.23625241559960772,-0.24097239728899594,0.41860811980067586,0.24337536183761888,-0.2435250468020062,0.09575244342472555,0.0865839130029203,-0.275095702008449,0.03098058708485168,0.0300207903087296,-0.2741740966323542
1.0,0.0,1.0,0.0,4.0,0.0,4.0,0.0,,,,left,0.617769000120461,82.89062009984627,ae11,72.10268250014633,74.10214680014178,82.89062009984627,None,False,5.0,['r'],False,0.4444444444444445,0.6666666666666666,0.3333333333333333,2.0,2.0,0.9656336071428248,-0.2162962962962963,wait_cost,1.0,4.0,80.68553619971499,None,ae11,1,2022-04-29_14h28.10.531,threat_forest,2021.2.3,59.998619923447386,False,47.0,0.6333333333333333,0.5166666666666666,-0.0777777777777778,-0.6901388888888889,1,0,0,-0.4816406776127719,-0.2162962962962963,0.0,0.4444444444444445,0.6666666666666666,0.6666666666666667,-0.3333333333333335,-0.5555555555555556,4.444444444444445,4.444444444444445,0.0,2.0,-1.0,5.0,0,0,1,0.45160770536998324,0.24765818582044172,-0.2416460797304507,0.3741574587670898,0.23416365481604332,-0.24391780175495137,0.5411378002696797,0.24830768138897194,-0.25406953395348064,0.5758299604760592,0.2442498170941993,-0.24570366964373036,0.6429280126649505,0.2295715831956478,-0.24498911311598437,0.7014914109187104,0.20940121132598744,-0.26365904138300744,0.6172500933918276,0.23625241559960772,-0.24097239728899594,0.41860811980067586,0.24337536183761888,-0.2435250468020062,0.09575244342472555,0.0865839130029203,-0.275095702008449,0.010100772810320683,0.009998747198954971,-0.2784083266076002
1.0,0.0,1.0,0.0,5.0,0.0,5.0,0.0,,,,left,0.6845586001873016,87.53234639996663,ae11,72.10268250014633,74.10214680014178,87.53234639996663,None,False,4.0,['r'],False,0.4444444444444445,0.6666666666666666,0.3333333333333333,2.0,2.0,0.9656336071428248,-0.2567901234567901,wait_cost,1.0,3.0,85.53560249973089,None,ae11,1,2022-04-29_14h28.10.531,threat_forest,2021.2.3,59.998619923447386,False,47.0,0.6333333333333333,0.5166666666666666,-0.0777777777777778,-0.6901388888888889,1,0,0,-0.3789810277100868,-0.2567901234567901,0.0,0.4444444444444445,0.6666666666666666,0.6666666666666667,-0.3333333333333335,-0.5555555555555556,3.4444444444444446,3.4444444444444446,0.0,2.0,-1.0,4.0,0,0,1,0.45160770536998324,0.24765818582044172,-0.2416460797304507,0.3741574587670898,0.23416365481604332,-0.24391780175495137,0.5411378002696797,0.24830768138897194,-0.25406953395348064,0.5758299604760592,0.2442498170941993,-0.24570366964373036,0.6429280126649505,0.2295715831956478,-0.24498911311598437,0.7014914109187104,0.20940121132598744,-0.26365904138300744,0.6172500933918276,0.23625241559960772,-0.24097239728899594,0.41860811980067586,0.24337536183761888,-0.2435250468020062,0.09575244342472555,0.0865839130029203,-0.275095702008449,0.004887996387102157,0.004864103878421834,-0.2794941928471641
1.0,0.0,1.0,0.0,6.0,0.0,6.0,0.0,,,,left,0.6432859003543854,91.02480169991033,ae11,72.10268250014633,74.10214680014178,91.02480169991033,None,False,3.0,['r'],False,0.4444444444444445,0.6666666666666666,0.3333333333333333,2.0,2.0,0.9656336071428248,-0.4395061728395062,wait_cost,1.0,2.0,90.23596339998768,None,ae11,1,2022-04-29_14h28.10.531,threat_forest,2021.2.3,59.998619923447386,False,47.0,0.6333333333333333,0.5166666666666666,-0.0777777777777778,-0.6901388888888889,1,0,0,-0.441166018488597,-0.4395061728395062,0.0,0.4444444444444445,0.6666666666666666,0.6666666666666667,-0.3333333333333335,-0.5555555555555556,2.4444444444444446,2.4444444444444446,0.0,2.0,-1.0,3.0,0,0,1,0.45160770536998324,0.24765818582044172,-0.2416460797304507,0.3741574587670898,0.23416365481604332,-0.24391780175495137,0.5411378002696797,0.24830768138897194,-0.25406953395348064,0.5758299604760592,0.2442498170941993,-0.24570366964373036,0.6429280126649505,0.2295715831956478,-0.24498911311598437,0.7014914109187104,0.20940121132598744,-0.26365904138300744,0.6172500933918276,0.23625241559960772,-0.24097239728899594,0.41860811980067586,0.24337536183761888,-0.2435250468020062,0.09575244342472555,0.0865839130029203,-0.275095702008449,0.00018135809843576535,0.0001813252076758972,-0.2804844994660443
1.0,0.0,1.0,0.0,7.0,0.0,7.0,0.0,,,,right,0.7122497004456818,96.22275870013982,ae11,96.22275870013982,None,91.69219570001589,93.70289209997281,False,2.0,['r'],True,0.6,0.6,0.0,0.0,2.0,0.6126016192893442,-0.4,wait_cost,0.0,1.0,93.7028920999728,None,ae11,1,2022-04-29_14h28.10.531,threat_forest,2021.2.3,59.998619923447386,False,47.0,0.6333333333333333,0.5166666666666666,-0.0777777777777778,-0.6901388888888889,1,1,0,-0.3393267261788911,-0.4,0.0,0.6,0.6,1.0,0.3999999999999999,0.3999999999999999,2.4,2.4,1.0,2.0,-1.0,2.0,0,1,1,0.5070510527720841,0.24995028265480523,-0.24631770032368805,0.6257250867347733,0.23419320256553372,-0.24388792619918184,0.5411378002696797,0.24830768138897194,-0.25406953395348064,0.5467991214831104,0.24780984222840904,-0.23794731377090705,0.7944913489291996,0.1632748454058604,-0.20237715623211383,0.7014914109187104,0.20940121132598744,-0.26365904138300744,0.8004411849734405,0.1597350943717549,-0.2596210401336915,0.41860811980067586,0.24337536183761888,-0.2435250468020062,0.09575244342472555,0.0865839130029203,-0.275095702008449,0.00037001189758563847,0.0003698749887812837,-0.2804446252568737
2.0,0.0,2.0,0.0,0.0,0.0,0.0,0.0,100.45428119972348,103.95267589995638,None,left,0.5924211000092328,105.22629609983414,ae11,105.22629609983414,None,100.45428119972348,103.95267589995638,True,5.0,['p'],True,0.4444444444444445,0.6666666666666666,0.3333333333333333,1.0,1.0,0.9656336071428248,0.0468159241685405,figh_cost,0.0,2.0,,,ae11,1,2022-04-29_14h28.10.531,threat_forest,2021.2.3,59.998619923447386,True,23.0,0.4333333333333333,0.5333333333333333,-1.3600000000000003,-0.7188888888888891,0,0,1,-0.5235375793814149,0.0468159241685405,0.4444444444444445,0.4444444444444445,0.6666666666666666,0.6666666666666667,-1.0,-1.0,4.0,4.0,1.0,1.0,-1.0,5.0,0,0,0,0.5070510527720841,0.24995028265480523,-0.24631770032368805,0.3741574587670898,0.23416365481604332,-0.24391780175495137,0.5411378002696797,0.24830768138897194,-0.25406953395348064,0.5758299604760592,0.2442498170941993,-0.24570366964373036,0.4733856964995509,0.24929167884918593,-0.2576641238894981,0.2575754772764748,0.191230350782271,-0.22432511960013676,0.6172500933918276,0.23625241559960772,-0.24097239728899594,0.41860811980067586,0.24337536183761888,-0.2435250468020062,0.5940954760457701,0.24114604138771992,-0.22290781982303096,0.5412252293562587,0.24830048046452388,-0.2280126533681625
2.0,0.0,2.0,0.0,1.0,0.0,1.0,0.0,,,,left,0.5550521002151072,108.76985759986565,ae11,108.76985759986565,None,100.45428119972348,103.95267589995638,True,2.0,['p'],True,0.4444444444444445,0.6666666666666666,0.3333333333333333,1.0,1.0,0.9656336071428248,0.0366186597420974,unsucc_cost,0.0,0.0,107.83596439985558,None,ae11,1,2022-04-29_14h28.10.531,threat_forest,2021.2.3,59.998619923447386,True,23.0,0.4333333333333333,0.5333333333333333,-1.3600000000000003,-0.7188888888888891,0,0,1,-0.5886932953801609,0.0366186597420974,0.4444444444444445,0.4444444444444445,0.6666666666666666,0.6666666666666667,-1.0,-1.0,1.0,1.0,1.0,1.0,-1.0,2.0,0,0,0,0.5070510527720841,0.24995028265480523,-0.24631770032368805,0.3741574587670898,0.23416365481604332,-0.24391780175495137,0.5411378002696797,0.24830768138897194,-0.25406953395348064,0.5758299604760592,0.2442498170941993,-0.24570366964373036,0.4733856964995509,0.24929167884918593,-0.2576641238894981,0.2575754772764748,0.191230350782271,-0.22432511960013676,0.6172500933918276,0.23625241559960772,-0.24097239728899594,0.41860811980067586,0.24337536183761888,-0.2435250468020062,0.5940954760457701,0.24114604138771992,-0.22290781982303096,0.495293434935379,0.24997784824529254,-0.2276579262857213
3.0,0.0,3.0,0.0,0.0,0.0,0.0,0.0,112.39168770005926,115.8910298999399,None,right,0.771427399944514,119.01401899987832,ae11,112.39168770005926,115.8910298999399,119.01401899987832,None,True,5.0,['p'],False,0.2962962962962963,0.3333333333333333,0.1111111111111111,1.0,1.0,0.8325252476189534,-0.0072014784086608,succ_gain,1.0,6.0,,,ae11,1,2022-04-29_14h28.10.531,threat_forest,2021.2.3,59.998619923447386,True,4.0,0.4666666666666667,0.45,-0.9911111111111112,-1.175555555555556,0,0,1,-0.2595127140766824,-0.0072014784086608,0.2962962962962963,0.2962962962962963,0.3333333333333333,0.8888888888888888,-1.3333333333333337,-1.2222222222222223,3.7777777777777777,3.7777777777777777,0.0,1.0,-1.0,5.0,0,0,0,0.45160770536998324,0.24765818582044172,-0.2416460797304507,0.5426807923341245,0.2481783499657313,-0.22974762589525582,0.5411378002696797,0.24830768138897194,-0.25406953395348064,0.42947784653781546,0.24502662587105614,-0.24401120818874356,0.3884375732243937,0.23755382493193752,-0.25011966632332194,0.2575754772764748,0.191230350782271,-0.22432511960013676,0.40374608556041647,0.2407351839550573,-0.23987986628196623,0.41860811980067586,0.24337536183761888,-0.2435250468020062,0.37883461560540715,0.23531894962451055,-0.22487533658538356,0.30789856436687,0.21309703842769043,-0.23545742155125687
3.0,0.0,3.0,0.0,1.0,0.0,1.0,0.0,,,,left,0.7262255004607141,124.26054159970954,ae11,124.26054159970954,None,119.80345210013913,121.80323620000854,True,6.0,['p'],True,0.48,0.6,0.2,1.0,1.0,0.9455672104350704,-0.0876748854947013,succ_gain,0.0,6.0,121.80323620000854,None,ae11,1,2022-04-29_14h28.10.531,threat_forest,2021.2.3,59.998619923447386,True,4.0,0.4666666666666667,0.45,-0.9911111111111112,-1.175555555555556,1,1,1,-0.3198947056904156,-0.0876748854947013,0.48,0.48,0.6,0.8,-0.8000000000000002,-0.7600000000000002,5.24,5.24,1.0,1.0,1.0,6.0,0,1,1,0.5070510527720841,0.24995028265480523,-0.24631770032368805,0.4742515370536501,0.2493370166559005,-0.2285761048177649,0.25609720999225605,0.19051142902643836,-0.2088917945551031,0.5467991214831104,0.24780984222840904,-0.23794731377090705,0.5254375339933034,0.24935293186433954,-0.2577034940142998,0.7014914109187104,0.20940121132598744,-0.26365904138300744,0.6651117080147343,0.2227381238764571,-0.24426607244123483,0.41860811980067586,0.24337536183761888,-0.2435250468020062,0.6435997887896068,0.2293791006595804,-0.2268809258019684,0.09424756329220896,0.08536496010569003,-0.26246999923207504
3.0,0.0,3.0,0.0,2.0,0.0,2.0,0.0,,,,left,0.8164802002720535,128.25498790014535,ae11,128.25498790014535,None,119.80345210013913,121.80323620000854,True,6.0,['p'],True,0.48,0.6,0.2,1.0,1.0,0.9455672104350704,0.0681665301198575,figh_cost,0.0,3.0,127.02000569971278,None,ae11,1,2022-04-29_14h28.10.531,threat_forest,2021.2.3,59.998619923447386,True,4.0,0.4666666666666667,0.45,-0.9911111111111112,-1.175555555555556,1,1,1,-0.2027526163793543,0.0681665301198575,0.48,0.48,0.6,0.8,-0.8000000000000002,-0.7600000000000002,5.24,5.24,1.0,1.0,-1.0,6.0,0,1,1,0.5070510527720841,0.24995028265480523,-0.24631770032368805,0.4742515370536501,0.2493370166559005,-0.2285761048177649,0.5411378002696797,0.24830768138897194,-0.25406953395348064,0.5467991214831104,0.24780984222840904,-0.23794731377090705,0.5254375339933034,0.24935293186433954,-0.2577034940142998,0.7014914109187104,0.20940121132598744,-0.26365904138300744,0.6651117080147343,0.2227381238764571,-0.24426607244123483,0.41860811980067586,0.24337536183761888,-0.2435250468020062,0.6435997887896068,0.2293791006595804,-0.2268809258019684,0.6343079897771489,0.23196136388202127,-0.23146802387272886
3.0,0.0,3.0,0.0,3.0,0.0,3.0,0.0,,,,left,0.6777145001105964,134.90791049972177,ae11,134.90791049972177,None,119.80345210013913,121.80323620000854,True,3.0,['p'],True,0.48,0.6,0.2,1.0,1.0,0.9455672104350704,0.1279737971650663,succ_gain,0.0,4.0,131.10311779985204,None,ae11,1,2022-04-29_14h28.10.531,threat_forest,2021.2.3,59.998619923447386,True,4.0,0.4666666666666667,0.45,-0.9911111111111112,-1.175555555555556,1,1,1,-0.3890291710078785,0.1279737971650663,0.48,0.48,0.6,0.8,-0.8000000000000002,-0.7600000000000002,2.24,2.24,1.0,1.0,-1.0,3.0,0,1,1,0.5070510527720841,0.24995028265480523,-0.24631770032368805,0.4742515370536501,0.2493370166559005,-0.2285761048177649,0.5411378002696797,0.24830768138897194,-0.25406953395348064,0.5467991214831104,0.24780984222840904,-0.23794731377090705,0.5254375339933034,0.24935293186433954,-0.2577034940142998,0.7014914109187104,0.20940121132598744,-0.26365904138300744,0.6651117080147343,0.2227381238764571,-0.24426607244123483,0.41860811980067586,0.24337536183761888,-0.2435250468020062,0.6435997887896068,0.2293791006595804,-0.2268809258019684,0.8362398313552422,0.13694277581019826,-0.25156240443186595
3.0,0.0,3.0,0.0,4.0,0.0,4.0,0.0,,,,left,0.6759406998753548,140.8104202998802,ae11,135.60338319977745,137.60327570000663,140.8104202998802,None,False,4.0,['p'],False,0.2962962962962963,0.3333333333333333,0.1111111111111111,1.0,1.0,0.8325252476189534,0.0069872275567748,wait_cost,1.0,3.0,137.60327570000663,None,ae11,1,2022-04-29_14h28.10.531,threat_forest,2021.2.3,59.998619923447386,False,4.0,0.4666666666666667,0.45,-0.9911111111111112,-1.175555555555556,0,0,0,-0.391649928864857,0.0069872275567748,0.2962962962962963,0.2962962962962963,0.3333333333333333,0.8888888888888888,-1.3333333333333337,-1.2222222222222223,2.7777777777777777,2.7777777777777777,0.0,1.0,1.0,4.0,0,0,0,0.45160770536998324,0.24765818582044172,-0.2416460797304507,0.5426807923341245,0.2481783499657313,-0.22974762589525582,0.25609720999225605,0.19051142902643836,-0.2088917945551031,0.42947784653781546,0.24502662587105614,-0.24401120818874356,0.3884375732243937,0.23755382493193752,-0.25011966632332194,0.2575754772764748,0.191230350782271,-0.22432511960013676,0.40374608556041647,0.2407351839550573,-0.23987986628196623,0.41860811980067586,0.24337536183761888,-0.2435250468020062,0.37883461560540715,0.23531894962451055,-0.22487533658538356,0.36498389787709573,0.23177065216753748,-0.23150835528414726
3.0,0.0,3.0,0.0,5.0,0.0,5.0,0.0,,,,left,0.6516593997366726,144.15647749975324,ae11,135.60338319977745,137.60327570000663,144.15647749975324,None,False,3.0,['p'],False,0.2962962962962963,0.3333333333333333,0.1111111111111111,1.0,1.0,0.8325252476189534,0.0922359396433469,wait_cost,1.0,2.0,143.50373389991,None,ae11,1,2022-04-29_14h28.10.531,threat_forest,2021.2.3,59.998619923447386,False,4.0,0.4666666666666667,0.45,-0.9911111111111112,-1.175555555555556,0,0,0,-0.4282332465921803,0.0922359396433469,0.2962962962962963,0.2962962962962963,0.3333333333333333,0.8888888888888888,-1.3333333333333337,-1.2222222222222223,1.7777777777777777,1.7777777777777777,0.0,1.0,-1.0,3.0,0,0,0,0.45160770536998324,0.24765818582044172,-0.2416460797304507,0.5426807923341245,0.2481783499657313,-0.22974762589525582,0.5411378002696797,0.24830768138897194,-0.25406953395348064,0.42947784653781546,0.24502662587105614,-0.24401120818874356,0.3884375732243937,0.23755382493193752,-0.25011966632332194,0.2575754772764748,0.191230350782271,-0.22432511960013676,0.40374608556041647,0.2407351839550573,-0.23987986628196623,0.41860811980067586,0.24337536183761888,-0.2435250468020062,0.37883461560540715,0.23531894962451055,-0.22487533658538356,0.7281577664417899,0.19794403361229362,-0.23866195501732837
3.0,0.0,3.0,0.0,6.0,0.0,6.0,0.0,,,,left,0.9416877999901772,147.74265869986266,ae11,135.60338319977745,137.60327570000663,147.74265869986266,None,False,2.0,['p'],False,0.2962962962962963,0.3333333333333333,0.1111111111111111,1.0,1.0,0.8325252476189534,-0.0918518518518518,wait_cost,1.0,1.0,146.83669129991904,None,ae11,1,2022-04-29_14h28.10.531,threat_forest,2021.2.3,59.998619923447386,False,4.0,0.4666666666666667,0.45,-0.9911111111111112,-1.175555555555556,0,0,0,-0.060081481854089,-0.0918518518518518,0.2962962962962963,0.2962962962962963,0.3333333333333333,0.8888888888888888,-1.3333333333333337,-1.2222222222222223,0.7777777777777777,0.7777777777777777,0.0,1.0,-1.0,2.0,0,0,0,0.45160770536998324,0.24765818582044172,-0.2416460797304507,0.5426807923341245,0.2481783499657313,-0.22974762589525582,0.5411378002696797,0.24830768138897194,-0.25406953395348064,0.42947784653781546,0.24502662587105614,-0.24401120818874356,0.3884375732243937,0.23755382493193752,-0.25011966632332194,0.2575754772764748,0.191230350782271,-0.22432511960013676,0.40374608556041647,0.2407351839550573,-0.23987986628196623,0.41860811980067586,0.24337536183761888,-0.2435250468020062,0.37883461560540715,0.23531894962451055,-0.22487533658538356,0.0880040572954586,0.08025934319499625,-0.26354972701244467
3.0,0.0,3.0,0.0,7.0,0.0,7.0,0.0,,,,left,0.5297522000037134,151.64540180005133,ae11,151.64540180005133,None,148.70387140009552,150.7033742996864,True,1.0,['p'],True,0.48,0.6,0.2,1.0,1.0,0.9455672104350704,0.48,unsucc_cost,0.0,0.0,150.7033742996864,None,ae11,1,2022-04-29_14h28.10.531,threat_forest,2021.2.3,59.998619923447386,True,4.0,0.4666666666666667,0.45,-0.9911111111111112,-1.175555555555556,1,1,1,-0.6353459289330299,0.48,1.0,0.48,0.6,0.8,-0.8000000000000002,-0.7600000000000002,0.2399999999999997,0.2399999999999997,1.0,1.0,-1.0,1.0,1,1,1,0.5070510527720841,0.24995028265480523,-0.24631770032368805,0.4742515370536501,0.2493370166559005,-0.2285761048177649,0.5411378002696797,0.24830768138897194,-0.25406953395348064,0.5467991214831104,0.24780984222840904,-0.23794731377090705,0.5254375339933034,0.24935293186433954,-0.2577034940142998,0.7014914109187104,0.20940121132598744,-0.26365904138300744,0.6651117080147343,0.2227381238764571,-0.24426607244123483,0.8727288025353191,0.11107323976058703,-0.24798590725311895,0.9750044917212827,0.024370732844605836,-0.29610197405200617,0.9996599392388086,0.00033994511987008204,-0.280450954778162
4.0,0.0,4.0,0.0,0.0,0.0,0.0,0.0,155.61284099984914,159.120467599947,None,right,0.8463610000908375,161.29489739984274,ae11,155.61284099984914,159.120467599947,161.29489739984274,None,True,5.0,['r'],False,0.2222222222222222,0.6666666666666666,0.6666666666666666,2.0,2.0,0.77250688571426,-0.023281607963558,succ_gain,1.0,6.0,,,ae11,1,2022-04-29_14h28.10.531,threat_forest,2021.2.3,59.998619923447386,True,34.0,0.4583333333333333,0.4625,-1.3888888888888888,-1.19,0,0,1,-0.1668092963371017,-0.023281607963558,0.2222222222222222,0.2222222222222222,0.6666666666666666,0.3333333333333333,-1.3333333333333337,-1.777777777777778,3.2222222222222223,3.2222222222222223,0.0,2.0,-1.0,5.0,0,0,0,0.45160770536998324,0.24765818582044172,-0.2416460797304507,0.17613372823916484,0.1451106380157369,-0.33395878341161334,0.5411378002696797,0.24830768138897194,-0.25406953395348064,0.5758299604760592,0.2442498170941993,-0.24570366964373036,0.3884375732243937,0.23755382493193752,-0.25011966632332194,0.2575754772764748,0.191230350782271,-0.22432511960013676,0.3049646400039663,0.21196120835121754,-0.24689259994340898,0.41860811980067586,0.24337536183761888,-0.2435250468020062,0.28247708027991764,0.2026837793964506,-0.23589459749205827,0.24968833437121865,0.18734407005014522,-0.2409036185281542
4.0,0.0,4.0,0.0,1.0,0.0,1.0,0.0,,,,left,0.7345595001243055,165.49141849996522,ae11,155.61284099984914,159.120467599947,165.49141849996522,None,False,6.0,['r'],False,0.2222222222222222,0.6666666666666666,0.6666666666666666,2.0,2.0,0.77250688571426,-0.1802912771224362,wait_cost,1.0,5.0,164.1701712999493,None,ae11,1,2022-04-29_14h28.10.531,threat_forest,2021.2.3,59.998619923447386,False,34.0,0.4583333333333333,0.4625,-1.3888888888888888,-1.19,0,0,0,-0.3084842789918228,-0.1802912771224362,0.2222222222222222,0.2222222222222222,0.6666666666666666,0.3333333333333333,-1.3333333333333337,-1.777777777777778,4.222222222222222,4.222222222222222,0.0,2.0,1.0,6.0,0,0,0,0.45160770536998324,0.24765818582044172,-0.2416460797304507,0.17613372823916484,0.1451106380157369,-0.33395878341161334,0.25609720999225605,0.19051142902643836,-0.2088917945551031,0.5758299604760592,0.2442498170941993,-0.24570366964373036,0.3884375732243937,0.23755382493193752,-0.25011966632332194,0.2575754772764748,0.191230350782271,-0.22432511960013676,0.3049646400039663,0.21196120835121754,-0.24689259994340898,0.41860811980067586,0.24337536183761888,-0.2435250468020062,0.28247708027991764,0.2026837793964506,-0.23589459749205827,0.019171906267294037,0.018804344277372133,-0.2765461328796699
4.0,0.0,4.0,0.0,2.0,0.0,2.0,0.0,,,,left,0.8743116003461182,170.7785384999588,ae11,170.7785384999588,None,166.2539570000954,168.25380459986627,True,5.0,['r'],True,0.25,0.25,0.0,0.0,2.0,0.5118595071429148,0.0722950122974537,succ_gain,0.0,6.0,168.25380459986627,None,ae11,1,2022-04-29_14h28.10.531,threat_forest,2021.2.3,59.998619923447386,True,34.0,0.4583333333333333,0.4625,-1.3888888888888888,-1.19,1,0,1,-0.1343184447303697,0.0722950122974537,0.25,0.25,0.25,1.0,-1.0,-1.0,4.0,4.0,1.0,2.0,-1.0,5.0,0,0,1,0.5070510527720841,0.24995028265480523,-0.24631770032368805,0.6257250867347733,0.23419320256553372,-0.24388792619918184,0.5411378002696797,0.24830768138897194,-0.25406953395348064,0.39379283817715804,0.23872003877753667,-0.2577515982130262,0.4733856964995509,0.24929167884918593,-0.2576641238894981,0.7014914109187104,0.20940121132598744,-0.26365904138300744,0.3405016577050909,0.22456027880517604,-0.2438219806208718,0.41860811980067586,0.24337536183761888,-0.2435250468020062,0.3168975566448999,0.21647349523739234,-0.23123850176409444,0.6514183072403547,0.22707249623246553,-0.23250191386253977
4.0,0.0,4.0,0.0,3.0,0.0,3.0,0.0,,,,left,0.7918597003445029,174.6421161997132,ae11,171.67093010013923,173.67068929970264,174.6421161997132,None,False,6.0,['r'],False,0.2222222222222222,0.6666666666666666,0.6666666666666666,2.0,2.0,0.77250688571426,-0.5059906550068587,wait_cost,1.0,5.0,173.67068929970264,None,ae11,1,2022-04-29_14h28.10.531,threat_forest,2021.2.3,59.998619923447386,False,34.0,0.4583333333333333,0.4625,-1.3888888888888888,-1.19,0,0,0,-0.2333710488895903,-0.5059906550068587,0.0,0.2222222222222222,0.6666666666666666,0.3333333333333333,-1.3333333333333337,-1.777777777777778,4.222222222222222,4.222222222222222,0.0,2.0,1.0,6.0,0,0,0,0.45160770536998324,0.24765818582044172,-0.2416460797304507,0.17613372823916484,0.1451106380157369,-0.33395878341161334,0.25609720999225605,0.19051142902643836,-0.2088917945551031,0.5758299604760592,0.2442498170941993,-0.24570366964373036,0.3884375732243937,0.23755382493193752,-0.25011966632332194,0.2575754772764748,0.191230350782271,-0.22432511960013676,0.3049646400039663,0.21196120835121754,-0.24689259994340898,0.41860811980067586,0.24337536183761888,-0.2435250468020062,0.09575244342472555,0.0865839130029203,-0.275095702008449,5.461341283799784e-05,5.461043021313606e-05,-0.28051129690655013
4.0,0.0,4.0,0.0,4.0,0.0,4.0,0.0,,,,left,0.5621779998764396,178.45780440000817,ae11,171.67093010013923,173.67068929970264,178.45780440000817,None,False,5.0,['r'],False,0.2222222222222222,0.6666666666666666,0.6666666666666666,2.0,2.0,0.77250688571426,-0.5782107338820301,wait_cost,1.0,4.0,177.45401619980112,None,ae11,1,2022-04-29_14h28.10.531,threat_forest,2021.2.3,59.998619923447386,False,34.0,0.4583333333333333,0.4625,-1.3888888888888888,-1.19,0,0,0,-0.5759367534766715,-0.5782107338820301,0.0,0.2222222222222222,0.6666666666666666,0.3333333333333333,-1.3333333333333337,-1.777777777777778,3.2222222222222223,3.2222222222222223,0.0,2.0,-1.0,5.0,0,0,0,0.45160770536998324,0.24765818582044172,-0.2416460797304507,0.17613372823916484,0.1451106380157369,-0.33395878341161334,0.5411378002696797,0.24830768138897194,-0.25406953395348064,0.5758299604760592,0.2442498170941993,-0.24570366964373036,0.3884375732243937,0.23755382493193752,-0.25011966632332194,0.2575754772764748,0.191230350782271,-0.22432511960013676,0.3049646400039663,0.21196120835121754,-0.24689259994340898,0.41860811980067586,0.24337536183761888,-0.2435250468020062,0.09575244342472555,0.0865839130029203,-0.275095702008449,1.482696089031901e-05,1.4826741051549773e-05,-0.2805197102981431
4.0,0.0,4.0,0.0,5.0,0.0,5.0,0.0,,,,left,0.3959697000682354,183.19249479984865,ae11,171.67093010013923,173.67068929970264,183.19249479984865,None,False,4.0,['r'],False,0.2222222222222222,0.6666666666666666,0.6666666666666666,2.0,2.0,0.77250688571426,-0.5933641975308642,wait_cost,1.0,3.0,181.054035499692,None,ae11,1,2022-04-29_14h28.10.531,threat_forest,2021.2.3,59.998619923447386,False,34.0,0.4583333333333333,0.4625,-1.3888888888888888,-1.19,0,0,0,-0.9264175856342804,-0.5933641975308642,0.0,0.2222222222222222,0.6666666666666666,0.3333333333333333,-1.3333333333333337,-1.777777777777778,2.2222222222222223,2.2222222222222223,0.0,2.0,-1.0,4.0,0,0,0,0.45160770536998324,0.24765818582044172,-0.2416460797304507,0.17613372823916484,0.1451106380157369,-0.33395878341161334,0.5411378002696797,0.24830768138897194,-0.25406953395348064,0.5758299604760592,0.2442498170941993,-0.24570366964373036,0.3884375732243937,0.23755382493193752,-0.25011966632332194,0.2575754772764748,0.191230350782271,-0.22432511960013676,0.3049646400039663,0.21196120835121754,-0.24689259994340898,0.41860811980067586,0.24337536183761888,-0.2435250468020062,0.09575244342472555,0.0865839130029203,-0.275095702008449,1.1278157132753796e-05,1.127802993592549e-05,-0.28052046077395104
4.0,0.0,4.0,0.0,6.0,0.0,6.0,0.0,,,,right,0.8299052002839744,189.0583583000116,ae11,189.0583583000116,None,183.62101210001856,185.62046229979023,False,3.0,['r'],True,0.25,0.25,0.0,0.0,2.0,0.5118595071429148,-0.5729166666666667,wait_cost,0.0,2.0,185.62046229979023,None,ae11,1,2022-04-29_14h28.10.531,threat_forest,2021.2.3,59.998619923447386,False,34.0,0.4583333333333333,0.4625,-1.3888888888888888,-1.19,1,0,0,-0.1864438012400295,-0.5729166666666667,0.0,0.25,0.25,1.0,-1.0,-1.0,2.0,2.0,1.0,2.0,-1.0,3.0,0,0,1,0.5070510527720841,0.24995028265480523,-0.24631770032368805,0.6257250867347733,0.23419320256553372,-0.24388792619918184,0.5411378002696797,0.24830768138897194,-0.25406953395348064,0.39379283817715804,0.23872003877753667,-0.2577515982130262,0.4733856964995509,0.24929167884918593,-0.2576641238894981,0.7014914109187104,0.20940121132598744,-0.26365904138300744,0.3405016577050909,0.22456027880517604,-0.2438219806208718,0.41860811980067586,0.24337536183761888,-0.2435250468020062,0.09575244342472555,0.0865839130029203,-0.275095702008449,1.631403203427094e-05,1.6313765886629732e-05,-0.28051939582448543
4.0,0.0,4.0,0.0,7.0,0.0,7.0,0.0,,,,left,0.4523962000384927,195.01277099968863,ae11,189.92085490003228,191.92087949998677,195.01277099968863,None,False,2.0,['r'],False,0.2222222222222222,0.6666666666666666,0.6666666666666666,2.0,2.0,0.77250688571426,-0.7777777777777778,wait_cost,1.0,1.0,191.9208794999868,None,ae11,1,2022-04-29_14h28.10.531,threat_forest,2021.2.3,59.998619923447386,False,34.0,0.4583333333333333,0.4625,-1.3888888888888888,-1.19,0,0,0,-0.7931969343366934,-0.7777777777777778,0.0,0.2222222222222222,0.6666666666666666,0.3333333333333333,-1.3333333333333337,-1.777777777777778,0.2222222222222221,0.2222222222222221,0.0,2.0,-1.0,2.0,0,0,0,0.45160770536998324,0.24765818582044172,-0.2416460797304507,0.17613372823916484,0.1451106380157369,-0.33395878341161334,0.5411378002696797,0.24830768138897194,-0.25406953395348064,0.5758299604760592,0.2442498170941993,-0.24570366964373036,0.3884375732243937,0.23755382493193752,-0.25011966632332194,0.2575754772764748,0.191230350782271,-0.22432511960013676,0.3049646400039663,0.21196120835121754,-0.24689259994340898,0.41860811980067586,0.24337536183761888,-0.2435250468020062,0.09575244342472555,0.0865839130029203,-0.275095702008449,4.039146881471719e-07,4.0391452500009685e-07,-0.2805227604146608
5.0,0.0,5.0,0.0,0.0,0.0,0.0,0.0,200.7104615997523,204.22141940006983,None,left,0.7181551996618509,206.9272825000808,ae11,206.9272825000808,None,200.7104615997523,204.22141940006986,True,4.0,['r'],True,0.3333333333333333,0.3333333333333333,0.0,0.0,2.0,0.5793801642856949,0.0501512138139916,unsucc_cost,0.0,2.0,,,ae11,1,2022-04-29_14h28.10.531,threat_forest,2021.2.3,59.998619923447386,True,46.0,0.3666666666666667,0.4125,-1.0533333333333337,-1.221111111111111,1,0,1,-0.3310695777742526,0.0501512138139916,0.3333333333333333,0.3333333333333333,0.3333333333333333,1.0,-0.6666666666666669,-0.6666666666666669,3.333333333333333,3.333333333333333,1.0,2.0,-1.0,4.0,0,0,1,0.5070510527720841,0.24995028265480523,-0.24631770032368805,0.6257250867347733,0.23419320256553372,-0.24388792619918184,0.5411378002696797,0.24830768138897194,-0.25406953395348064,0.42947784653781546,0.24502662587105614,-0.24401120818874356,0.5599030782213318,0.24641162121960902,-0.2558129786352063,0.7014914109187104,0.20940121132598744,-0.26365904138300744,0.45687313070247415,0.24814007314459413,-0.23807516204527435,0.41860811980067586,0.24337536183761888,-0.2435250468020062,0.4315223478165543,0.24531081115144304,-0.22150158586371682,0.5561353277761848,0.2468488249754603,-0.2283196471725322
5.0,0.0,5.0,0.0,1.0,0.0,1.0,0.0,,,,left,0.8969750003889203,212.19510489981624,ae11,207.671377599705,209.67090100003406,212.19510489981624,None,False,2.0,['r'],False,0.24,0.4,0.4,2.0,2.0,0.9801625908629508,-0.0088371924279834,wait_cost,1.0,1.0,209.6709010000341,None,ae11,1,2022-04-29_14h28.10.531,threat_forest,2021.2.3,59.998619923447386,False,46.0,0.3666666666666667,0.4125,-1.0533333333333337,-1.221111111111111,0,0,0,-0.1087272875581891,-0.0088371924279834,0.24,0.24,0.4,0.6,-1.6,-1.4400000000000002,0.5599999999999998,0.5599999999999998,0.0,2.0,-1.0,2.0,0,0,0,0.45160770536998324,0.24765818582044172,-0.2416460797304507,0.32737303055026923,0.22019992941860173,-0.25803644239785184,0.5411378002696797,0.24830768138897194,-0.25406953395348064,0.4585826534395439,0.24828460340389102,-0.23691293437952232,0.3248117229264175,0.2193090675759897,-0.238392923202515,0.2575754772764748,0.191230350782271,-0.22432511960013676,0.32747355366728736,0.22023462531580562,-0.24487621991857236,0.41860811980067586,0.24337536183761888,-0.2435250468020062,0.30424651928967567,0.21168057478979269,-0.2328568307186536,0.30164145659599684,0.2106538882586422,-0.23597409508068107
5.0,0.0,5.0,0.0,2.0,0.0,2.0,0.0,,,,left,0.6084262998774648,218.2407891997136,ae11,218.2407891997136,None,213.1217471999116,215.1212959997356,True,1.0,['r'],True,0.3333333333333333,0.3333333333333333,0.0,0.0,2.0,0.5793801642856949,0.1210402633744854,unsucc_cost,0.0,0.0,215.1212959997356,None,ae11,1,2022-04-29_14h28.10.531,threat_forest,2021.2.3,59.998619923447386,True,46.0,0.3666666666666667,0.4125,-1.0533333333333337,-1.221111111111111,1,0,1,-0.4968794915933233,0.1210402633744854,1.0,0.3333333333333333,0.3333333333333333,1.0,-0.6666666666666669,-0.6666666666666669,0.3333333333333331,0.3333333333333331,1.0,2.0,-1.0,1.0,1,0,1,0.5070510527720841,0.24995028265480523,-0.24631770032368805,0.6257250867347733,0.23419320256553372,-0.24388792619918184,0.5411378002696797,0.24830768138897194,-0.25406953395348064,0.42947784653781546,0.24502662587105614,-0.24401120818874356,0.5599030782213318,0.24641162121960902,-0.2558129786352063,0.7014914109187104,0.20940121132598744,-0.26365904138300744,0.45687313070247415,0.24814007314459413,-0.23807516204527435,0.8727288025353191,0.11107323976058703,-0.24798590725311895,0.9750044917212827,0.024370732844605836,-0.29610197405200617,0.8183685907862526,0.1486414404007756,-0.24908838936716016
6.0,0.0,6.0,0.0,0.0,0.0,0.0,0.0,222.3311724998057,225.82650389987973,None,right,1.085802000015974,226.51250310009345,ae11,222.3311724998057,225.82650389987975,226.51250310009345,None,True,4.0,['r'],False,0.4,0.4,0.0,0.0,1.0,0.6126016192893442,0.0461191598079562,succ_gain,1.0,5.0,,,ae11,1,2022-04-29_14h28.10.531,threat_forest,2021.2.3,59.998619923447386,True,7.0,0.45,0.4083333333333333,-1.0666666666666669,-1.06,1,0,1,0.0823188844620742,0.0461191598079562,0.4,0.4,0.4,1.0,-0.7999999999999999,-0.7999999999999999,3.2,3.2,0.0,1.0,-1.0,4.0,0,0,1,0.45160770536998324,0.24765818582044172,-0.2416460797304507,0.6257250867347733,0.23419320256553372,-0.24388792619918184,0.5411378002696797,0.24830768138897194,-0.25406953395348064,0.4585826534395439,0.24828460340389102,-0.23691293437952232,0.5254375339933034,0.24935293186433952,-0.2577034940142998,0.7014914109187104,0.20940121132598744,-0.26365904138300744,0.5541766283786269,0.24706489293752418,-0.23833720273558584,0.41860811980067586,0.24337536183761888,-0.2435250468020062,0.5295396004583072,0.2491274120047636,-0.2202129110909033,0.538100157053004,0.24854837803253646,-0.2279602283829842
6.0,0.0,6.0,0.0,1.0,0.0,1.0,0.0,,,,right,1.0046469001099467,233.17873589973897,ae11,233.17873589973897,None,227.62148319976404,229.62138739973307,False,5.0,['r'],True,0.3333333333333333,0.5,0.3333333333333333,2.0,1.0,1.0,0.0085305486968449,wait_cost,0.0,4.0,229.62138739973307,None,ae11,1,2022-04-29_14h28.10.531,threat_forest,2021.2.3,59.998619923447386,False,7.0,0.45,0.4083333333333333,-1.0666666666666669,-1.06,0,0,0,0.004636136601383,0.0085305486968449,0.3333333333333333,0.3333333333333333,0.5,0.6666666666666667,-1.5,-1.3333333333333337,3.6666666666666665,3.6666666666666665,1.0,1.0,1.0,5.0,0,0,0,0.5070510527720841,0.24995028265480523,-0.24631770032368805,0.3741574587670898,0.23416365481604332,-0.24391780175495137,0.25609720999225605,0.19051142902643836,-0.2088917945551031,0.5027119932023928,0.24999264509287014,-0.2331915620054812,0.34806675440817675,0.22691628888393467,-0.24328243356436793,0.2575754772764748,0.191230350782271,-0.22432511960013676,0.45687313070247415,0.24814007314459413,-0.23807516204527435,0.41860811980067586,0.24337536183761888,-0.2435250468020062,0.4315223478165543,0.24531081115144304,-0.22150158586371682,0.3714657702245809,0.23347895177603972,-0.23114708678775242
6.0,0.0,6.0,0.0,2.0,0.0,2.0,0.0,,,,right,0.5107799996621907,238.4438193999231,ae11,234.2049523000605,236.20472719985992,238.4438193999231,None,True,4.0,['r'],False,0.4,0.4,0.0,0.0,1.0,0.6126016192893442,0.0645959259259258,unsucc_cost,1.0,2.0,236.20472719985992,None,ae11,1,2022-04-29_14h28.10.531,threat_forest,2021.2.3,59.998619923447386,True,7.0,0.45,0.4083333333333333,-1.0666666666666669,-1.06,1,0,1,-0.6718163105194761,0.0645959259259258,0.4,0.4,0.4,1.0,-0.7999999999999999,-0.7999999999999999,3.2,3.2,0.0,1.0,-1.0,4.0,0,0,1,0.45160770536998324,0.24765818582044172,-0.2416460797304507,0.6257250867347733,0.23419320256553372,-0.24388792619918184,0.5411378002696797,0.24830768138897194,-0.25406953395348064,0.4585826534395439,0.24828460340389102,-0.23691293437952232,0.5254375339933034,0.24935293186433952,-0.2577034940142998,0.7014914109187104,0.20940121132598744,-0.26365904138300744,0.5541766283786269,0.24706489293752418,-0.23833720273558584,0.41860811980067586,0.24337536183761888,-0.2435250468020062,0.5295396004583072,0.2491274120047636,-0.2202129110909033,0.6192294515389534,0.2357843378857204,-0.23065954738347655
6.0,0.0,6.0,0.0,3.0,0.0,3.0,0.0,,,,right,0.9429343999363482,242.092698500026,ae11,242.092698500026,None,238.97165660001332,240.97142020007595,False,2.0,['r'],True,0.3333333333333333,0.5,0.3333333333333333,2.0,1.0,1.0,0.0040555555555554,wait_cost,0.0,1.0,240.97142020007595,None,ae11,1,2022-04-29_14h28.10.531,threat_forest,2021.2.3,59.998619923447386,False,7.0,0.45,0.4083333333333333,-1.0666666666666669,-1.06,0,0,0,-0.0587585640533467,0.0040555555555554,0.3333333333333333,0.3333333333333333,0.5,0.6666666666666667,-1.5,-1.3333333333333337,0.6666666666666665,0.6666666666666665,1.0,1.0,-1.0,2.0,0,0,0,0.5070510527720841,0.24995028265480523,-0.24631770032368805,0.3741574587670898,0.23416365481604332,-0.24391780175495137,0.5411378002696797,0.24830768138897194,-0.25406953395348064,0.5027119932023928,0.24999264509287014,-0.2331915620054812,0.34806675440817675,0.22691628888393467,-0.24328243356436793,0.2575754772764748,0.191230350782271,-0.22432511960013676,0.45687313070247415,0.24814007314459413,-0.23807516204527435,0.41860811980067586,0.24337536183761888,-0.2435250468020062,0.4315223478165543,0.24531081115144304,-0.22150158586371682,0.3528064112186978,0.22833404742168092,-0.23223512301450314
6.0,0.0,6.0,0.0,4.0,0.0,4.0,0.0,,,,right,0.6549015999771655,248.5599809000269,ae11,243.05507689993829,245.05520709976554,248.5599809000269,None,True,1.0,['r'],False,0.4,0.4,0.0,0.0,1.0,0.6126016192893442,0.1533333333333333,unsucc_cost,1.0,0.0,245.0552070997656,None,ae11,1,2022-04-29_14h28.10.531,threat_forest,2021.2.3,59.998619923447386,True,7.0,0.45,0.4083333333333333,-1.0666666666666669,-1.06,1,0,1,-0.4232702836748935,0.1533333333333333,1.0,0.4,0.4,1.0,-0.7999999999999999,-0.7999999999999999,0.2,0.2,0.0,1.0,-1.0,1.0,1,0,1,0.45160770536998324,0.24765818582044172,-0.2416460797304507,0.6257250867347733,0.23419320256553372,-0.24388792619918184,0.5411378002696797,0.24830768138897194,-0.25406953395348064,0.4585826534395439,0.24828460340389102,-0.23691293437952232,0.5254375339933034,0.24935293186433952,-0.2577034940142998,0.7014914109187104,0.20940121132598744,-0.26365904138300744,0.5541766283786269,0.24706489293752418,-0.23833720273558584,0.8727288025353191,0.11107323976058703,-0.24798590725311895,0.9750044917212827,0.024370732844605836,-0.29610197405200617,0.8897664125898134,0.09808214361686735,-0.2597805893986978
7.0,0.0,7.0,0.0,0.0,0.0,0.0,0.0,252.2633746000938,255.7717218999751,None,left,0.755145899951458,258.5113697000779,ae11,258.5113697000779,None,252.2633746000938,255.7717218999751,True,4.0,['r'],True,0.2222222222222222,0.6666666666666666,0.6666666666666666,2.0,2.0,0.77250688571426,-0.0834227138822206,figh_cost,0.0,1.0,,,ae11,1,2022-04-29_14h28.10.531,threat_forest,2021.2.3,59.998619923447386,True,49.0,0.5833333333333333,0.5166666666666666,-0.888888888888889,-0.977777777777778,0,0,1,-0.2808443034336977,-0.0834227138822206,0.2222222222222222,0.2222222222222222,0.6666666666666666,0.3333333333333333,-1.3333333333333337,-1.777777777777778,2.2222222222222223,2.2222222222222223,1.0,2.0,-1.0,4.0,0,0,0,0.5070510527720841,0.24995028265480523,-0.24631770032368805,0.17613372823916484,0.1451106380157369,-0.33395878341161334,0.5411378002696797,0.24830768138897194,-0.25406953395348064,0.5758299604760592,0.2442498170941993,-0.24570366964373036,0.3884375732243937,0.23755382493193752,-0.25011966632332194,0.2575754772764748,0.191230350782271,-0.22432511960013676,0.3049646400039663,0.21196120835121754,-0.24689259994340898,0.41860811980067586,0.24337536183761888,-0.2435250468020062,0.28247708027991764,0.2026837793964506,-0.23589459749205827,0.10100824587948586,0.09080558014383518,-0.2613194255207343
7.0,0.0,7.0,0.0,1.0,0.0,1.0,0.0,,,,right,0.6579511002637446,262.90717729972675,ae11,259.2886353000067,261.28849190007895,262.90717729972675,None,True,1.0,['r'],False,0.5,0.5,0.0,0.0,2.0,0.6309297535714574,0.1781925154320986,succ_gain,1.0,3.0,261.2884919000789,None,ae11,1,2022-04-29_14h28.10.531,threat_forest,2021.2.3,59.998619923447386,True,49.0,0.5833333333333333,0.5166666666666666,-0.888888888888889,-0.977777777777778,1,0,1,-0.4186246661269638,0.1781925154320986,1.0,0.5,0.5,1.0,0.0,0.0,1.0,1.0,0.0,2.0,-1.0,1.0,1,0,1,0.45160770536998324,0.24765818582044172,-0.2416460797304507,0.6257250867347733,0.23419320256553372,-0.24388792619918184,0.5411378002696797,0.24830768138897194,-0.25406953395348064,0.5027119932023928,0.24999264509287014,-0.2331915620054812,0.7181739953017445,0.20240010777407438,-0.22752475849258705,0.7014914109187104,0.20940121132598744,-0.26365904138300744,0.6906815068217164,0.21364056295619976,-0.2464833111218015,0.8727288025353191,0.11107323976058703,-0.24798590725311895,0.9750044917212827,0.024370732844605836,-0.29610197405200617,0.9267067544810969,0.06792134568020894,-0.2661589471916839
7.0,0.0,7.0,0.0,2.0,0.0,2.0,0.0,,,,right,0.8408017000183463,268.93902039993554,ae11,259.2886353000067,261.28849190007895,268.93902039993554,None,True,3.0,['r'],False,0.5,0.5,0.0,0.0,2.0,0.6309297535714574,0.1944444444444444,succ_gain,1.0,5.0,265.5882986998185,None,ae11,1,2022-04-29_14h28.10.531,threat_forest,2021.2.3,59.998619923447386,True,49.0,0.5833333333333333,0.5166666666666666,-0.888888888888889,-0.977777777777778,1,0,1,-0.1733994375156995,0.1944444444444444,0.5,0.5,0.5,1.0,0.0,0.0,3.0,3.0,0.0,2.0,1.0,3.0,0,0,1,0.45160770536998324,0.24765818582044172,-0.2416460797304507,0.6257250867347733,0.23419320256553372,-0.24388792619918184,0.25609720999225605,0.19051142902643836,-0.2088917945551031,0.5027119932023928,0.24999264509287014,-0.2331915620054812,0.7181739953017445,0.20240010777407438,-0.22752475849258705,0.7014914109187104,0.20940121132598744,-0.26365904138300744,0.6906815068217164,0.21364056295619976,-0.2464833111218015,0.41860811980067586,0.24337536183761888,-0.2435250468020062,0.6702253502695299,0.2210233301256159,-0.2297022506164746,0.9443062960976637,0.052591915247975074,-0.2694007908678632
7.0,0.0,7.0,0.0,3.0,0.0,3.0,0.0,,,,right,0.6023312001489103,273.61167880008,ae11,273.61167880008,None,269.80561979999766,271.80500819999725,False,5.0,['r'],True,0.2222222222222222,0.6666666666666666,0.6666666666666666,2.0,2.0,0.77250688571426,-0.064429012345679,wait_cost,0.0,4.0,271.80500819999725,None,ae11,1,2022-04-29_14h28.10.531,threat_forest,2021.2.3,59.998619923447386,False,49.0,0.5833333333333333,0.5166666666666666,-0.888888888888889,-0.977777777777778,0,0,0,-0.5069478185990262,-0.064429012345679,0.2222222222222222,0.2222222222222222,0.6666666666666666,0.3333333333333333,-1.3333333333333337,-1.777777777777778,3.2222222222222223,3.2222222222222223,1.0,2.0,1.0,5.0,0,0,0,0.5070510527720841,0.24995028265480523,-0.24631770032368805,0.17613372823916484,0.1451106380157369,-0.33395878341161334,0.25609720999225605,0.19051142902643836,-0.2088917945551031,0.5758299604760592,0.2442498170941993,-0.24570366964373036,0.3884375732243937,0.23755382493193752,-0.25011966632332194,0.2575754772764748,0.191230350782271,-0.22432511960013676,0.3049646400039663,0.21196120835121754,-0.24689259994340898,0.41860811980067586,0.24337536183761888,-0.2435250468020062,0.28247708027991764,0.2026837793964506,-0.23589459749205827,0.1366783967605907,0.11799741261954529,-0.25556893984256146
7.0,0.0,7.0,0.0,4.0,0.0,4.0,0.0,,,,right,0.8606779999099672,277.079381399788,ae11,274.23886410007253,276.2388822999783,277.079381399788,None,True,4.0,['r'],False,0.5,0.5,0.0,0.0,2.0,0.6309297535714574,0.1597222222222222,unsucc_cost,1.0,2.0,276.2388822999783,None,ae11,1,2022-04-29_14h28.10.531,threat_forest,2021.2.3,59.998619923447386,True,49.0,0.5833333333333333,0.5166666666666666,-0.888888888888889,-0.977777777777778,1,0,1,-0.1500348283482098,0.1597222222222222,0.5,0.5,0.5,1.0,0.0,0.0,4.0,4.0,0.0,2.0,-1.0,4.0,0,0,1,0.45160770536998324,0.24765818582044172,-0.2416460797304507,0.6257250867347733,0.23419320256553372,-0.24388792619918184,0.5411378002696797,0.24830768138897194,-0.25406953395348064,0.5027119932023928,0.24999264509287014,-0.2331915620054812,0.7181739953017445,0.20240010777407438,-0.22752475849258705,0.7014914109187104,0.20940121132598744,-0.26365904138300744,0.6906815068217164,0.21364056295619976,-0.2464833111218015,0.41860811980067586,0.24337536183761888,-0.2435250468020062,0.6702253502695299,0.2210233301256159,-0.2297022506164746,0.9005815748374814,0.08953440190072336,-0.26158825228288607
7.0,0.0,7.0,0.0,5.0,0.0,5.0,0.0,,,,right,0.7123028999194503,280.98905239999294,ae11,274.23886410007253,276.2388822999783,280.98905239999294,None,True,2.0,['r'],False,0.5,0.5,0.0,0.0,2.0,0.6309297535714574,0.1388888888888888,unsucc_cost,1.0,0.0,279.9720827001147,None,ae11,1,2022-04-29_14h28.10.531,threat_forest,2021.2.3,59.998619923447386,True,49.0,0.5833333333333333,0.5166666666666666,-0.888888888888889,-0.977777777777778,1,0,1,-0.3392520368009354,0.1388888888888888,0.5,0.5,0.5,1.0,0.0,0.0,2.0,2.0,0.0,2.0,-1.0,2.0,0,0,1,0.45160770536998324,0.24765818582044172,-0.2416460797304507,0.6257250867347733,0.23419320256553372,-0.24388792619918184,0.5411378002696797,0.24830768138897194,-0.25406953395348064,0.5027119932023928,0.24999264509287014,-0.2331915620054812,0.7181739953017445,0.20240010777407438,-0.22752475849258705,0.7014914109187104,0.20940121132598744,-0.26365904138300744,0.6906815068217164,0.21364056295619976,-0.2464833111218015,0.41860811980067586,0.24337536183761888,-0.2435250468020062,0.6702253502695299,0.2210233301256159,-0.2297022506164746,0.8614726079075132,0.11933755373254123,-0.2552855289218779
8.0,0.0,8.0,0.0,0.0,0.0,0.0,0.0,284.9512292998843,288.4550075000152,None,right,0.8137217001058161,292.1455016001128,ae11,284.9512292998843,288.4550075000152,292.1455016001128,None,True,5.0,['p'],False,0.25,0.5,0.5,1.0,1.0,0.9463946303571862,0.0122551342604393,succ_gain,1.0,6.0,,,ae11,1,2022-04-29_14h28.10.531,threat_forest,2021.2.3,59.998619923447386,True,71.0,0.35,0.4666666666666666,-1.7350000000000003,-1.3119444444444446,0,0,1,-0.2061368631998064,0.0122551342604393,0.25,0.25,0.5,0.5,-2.0,-1.75,3.25,3.25,0.0,1.0,-1.0,5.0,0,0,0,0.45160770536998324,0.24765818582044172,-0.2416460797304507,0.2633568951884144,0.1940000409451329,-0.2845269955785059,0.5411378002696797,0.24830768138897194,-0.25406953395348064,0.5027119932023928,0.24999264509287014,-0.2331915620054812,0.24075625204699025,0.18279267914727643,-0.21492216398940184,0.2575754772764748,0.191230350782271,-0.22432511960013676,0.3405016577050909,0.22456027880517604,-0.2438219806208718,0.41860811980067586,0.24337536183761888,-0.2435250468020062,0.3168975566448999,0.21647349523739234,-0.23123850176409444,0.38729674632236366,0.23729797661047436,-0.2303394454625633
8.0,0.0,8.0,0.0,1.0,0.0,1.0,0.0,,,,left,0.8886720999144018,297.906667499803,ae11,284.9512292998843,288.4550075000152,297.906667499803,None,False,6.0,['p'],False,0.25,0.5,0.5,1.0,1.0,0.9463946303571862,-0.1389304220625,wait_cost,1.0,5.0,294.98877219995484,None,ae11,1,2022-04-29_14h28.10.531,threat_forest,2021.2.3,59.998619923447386,False,71.0,0.35,0.4666666666666666,-1.7350000000000003,-1.3119444444444446,0,0,0,-0.1180269529980977,-0.1389304220625,0.25,0.25,0.5,0.5,-2.0,-1.75,4.25,4.25,0.0,1.0,1.0,6.0,0,0,0,0.45160770536998324,0.24765818582044172,-0.2416460797304507,0.2633568951884144,0.1940000409451329,-0.2845269955785059,0.25609720999225605,0.19051142902643836,-0.2088917945551031,0.5027119932023928,0.24999264509287014,-0.2331915620054812,0.24075625204699025,0.18279267914727643,-0.21492216398940184,0.2575754772764748,0.191230350782271,-0.22432511960013676,0.3405016577050909,0.22456027880517604,-0.2438219806208718,0.41860811980067586,0.24337536183761888,-0.2435250468020062,0.3168975566448999,0.21647349523739234,-0.23123850176409444,0.039611585559027274,0.038042507848527134,-0.272477676508107
8.0,0.0,8.0,0.0,2.0,0.0,2.0,0.0,,,,right,1.3201218997128308,302.97242729971185,ae11,284.9512292998843,288.4550075000152,302.97242729971185,None,True,5.0,['p'],False,0.25,0.5,0.5,1.0,1.0,0.9463946303571862,0.0321252749999999,unsucc_cost,1.0,3.0,300.82221619971097,None,ae11,1,2022-04-29_14h28.10.531,threat_forest,2021.2.3,59.998619923447386,True,71.0,0.35,0.4666666666666666,-1.7350000000000003,-1.3119444444444446,0,0,1,0.2777240806017368,0.0321252749999999,0.25,0.25,0.5,0.5,-2.0,-1.75,3.25,3.25,0.0,1.0,-1.0,5.0,0,0,0,0.45160770536998324,0.24765818582044172,-0.2416460797304507,0.2633568951884144,0.1940000409451329,-0.2845269955785059,0.5411378002696797,0.24830768138897194,-0.25406953395348064,0.5027119932023928,0.24999264509287014,-0.2331915620054812,0.24075625204699025,0.18279267914727643,-0.21492216398940184,0.2575754772764748,0.191230350782271,-0.22432511960013676,0.3405016577050909,0.22456027880517604,-0.2438219806208718,0.41860811980067586,0.24337536183761888,-0.2435250468020062,0.3168975566448999,0.21647349523739234,-0.23123850176409444,0.4750330180859537,0.24937664981410373,-0.22778506677805038
8.0,0.0,8.0,0.0,3.0,0.0,3.0,0.0,,,,right,1.395718699786812,307.57288149977103,ae11,284.9512292998843,288.4550075000152,307.57288149977103,None,True,3.0,['p'],False,0.25,0.5,0.5,1.0,1.0,0.9463946303571862,0.0315734062499999,succ_gain,1.0,4.0,306.33928339974955,None,ae11,1,2022-04-29_14h28.10.531,threat_forest,2021.2.3,59.998619923447386,True,71.0,0.35,0.4666666666666666,-1.7350000000000003,-1.3119444444444446,0,0,1,0.3334094795847235,0.0315734062499999,0.25,0.25,0.5,0.5,-2.0,-1.75,1.25,1.25,0.0,1.0,-1.0,3.0,0,0,0,0.45160770536998324,0.24765818582044172,-0.2416460797304507,0.2633568951884144,0.1940000409451329,-0.2845269955785059,0.5411378002696797,0.24830768138897194,-0.25406953395348064,0.5027119932023928,0.24999264509287014,-0.2331915620054812,0.24075625204699025,0.18279267914727643,-0.21492216398940184,0.2575754772764748,0.191230350782271,-0.22432511960013676,0.3405016577050909,0.22456027880517604,-0.2438219806208718,0.41860811980067586,0.24337536183761888,-0.2435250468020062,0.3168975566448999,0.21647349523739234,-0.23123850176409444,0.47254898711195326,0.24924644189142037,-0.22781260294337663
8.0,0.0,8.0,0.0,4.0,0.0,4.0,0.0,,,,left,0.7325797998346388,311.7406570999883,ae11,284.9512292998843,288.4550075000152,311.7406570999883,None,False,4.0,['p'],False,0.25,0.5,0.5,1.0,1.0,0.9463946303571862,0.0339687500000001,wait_cost,1.0,3.0,310.98916140012443,None,ae11,1,2022-04-29_14h28.10.531,threat_forest,2021.2.3,59.998619923447386,False,71.0,0.35,0.4666666666666666,-1.7350000000000003,-1.3119444444444446,0,0,0,-0.3111830022708634,0.0339687500000001,0.25,0.25,0.5,0.5,-2.0,-1.75,2.25,2.25,0.0,1.0,1.0,4.0,0,0,0,0.45160770536998324,0.24765818582044172,-0.2416460797304507,0.2633568951884144,0.1940000409451329,-0.2845269955785059,0.25609720999225605,0.19051142902643836,-0.2088917945551031,0.5027119932023928,0.24999264509287014,-0.2331915620054812,0.24075625204699025,0.18279267914727643,-0.21492216398940184,0.2575754772764748,0.191230350782271,-0.22432511960013676,0.3405016577050909,0.22456027880517604,-0.2438219806208718,0.41860811980067586,0.24337536183761888,-0.2435250468020062,0.3168975566448999,0.21647349523739234,-0.23123850176409444,0.48333899999837815,0.24972241107894594,-0.22771194573321757
8.0,0.0,8.0,0.0,5.0,0.0,5.0,0.0,,,,left,0.7118739997968078,318.26191469980404,ae11,284.9512292998843,288.4550075000152,318.26191469980404,None,False,3.0,['p'],False,0.25,0.5,0.5,1.0,1.0,0.9463946303571862,0.0737499999999999,wait_cost,1.0,2.0,314.5225005997345,None,ae11,1,2022-04-29_14h28.10.531,threat_forest,2021.2.3,59.998619923447386,False,71.0,0.35,0.4666666666666666,-1.7350000000000003,-1.3119444444444446,0,0,0,-0.3398543498081108,0.0737499999999999,0.25,0.25,0.5,0.5,-2.0,-1.75,1.25,1.25,0.0,1.0,-1.0,3.0,0,0,0,0.45160770536998324,0.24765818582044172,-0.2416460797304507,0.2633568951884144,0.1940000409451329,-0.2845269955785059,0.5411378002696797,0.24830768138897194,-0.25406953395348064,0.5027119932023928,0.24999264509287014,-0.2331915620054812,0.24075625204699025,0.18279267914727643,-0.21492216398940184,0.2575754772764748,0.191230350782271,-0.22432511960013676,0.3405016577050909,0.22456027880517604,-0.2438219806208718,0.41860811980067586,0.24337536183761888,-0.2435250468020062,0.3168975566448999,0.21647349523739234,-0.23123850176409444,0.6573592041569264,0.22523808086709882,-0.2328898531195128
8.0,0.0,8.0,0.0,6.0,0.0,6.0,0.0,,,,left,0.6960630998946726,323.5897299000062,ae11,284.9512292998843,288.4550075000152,323.5897299000062,None,False,2.0,['p'],False,0.25,0.5,0.5,1.0,1.0,0.9463946303571862,0.045,wait_cost,1.0,1.0,321.0061065000482,None,ae11,1,2022-04-29_14h28.10.531,threat_forest,2021.2.3,59.998619923447386,False,71.0,0.35,0.4666666666666666,-1.7350000000000003,-1.3119444444444446,0,0,0,-0.3623149619889487,0.045,0.25,0.25,0.5,0.5,-2.0,-1.75,0.25,0.25,0.0,1.0,-1.0,2.0,0,0,0,0.45160770536998324,0.24765818582044172,-0.2416460797304507,0.2633568951884144,0.1940000409451329,-0.2845269955785059,0.5411378002696797,0.24830768138897194,-0.25406953395348064,0.5027119932023928,0.24999264509287014,-0.2331915620054812,0.24075625204699025,0.18279267914727643,-0.21492216398940184,0.2575754772764748,0.191230350782271,-0.22432511960013676,0.3405016577050909,0.22456027880517604,-0.2438219806208718,0.41860811980067586,0.24337536183761888,-0.2435250468020062,0.3168975566448999,0.21647349523739234,-0.23123850176409444,0.5330744201947294,0.24890608272878248,-0.2278845815601886
8.0,0.0,8.0,0.0,7.0,0.0,7.0,0.0,,,,left,0.494882000144571,328.9897214998491,ae11,284.9512292998843,288.4550075000152,328.9897214998491,None,False,1.0,['p'],False,0.25,0.5,0.5,1.0,1.0,0.9463946303571862,0.25,wait_cost,1.0,0.0,326.3059673998505,None,ae11,1,2022-04-29_14h28.10.531,threat_forest,2021.2.3,59.998619923447386,False,71.0,0.35,0.4666666666666666,-1.7350000000000003,-1.3119444444444446,0,0,0,-0.7034359283776418,0.25,1.0,0.25,0.5,0.5,-2.0,-1.75,-0.75,0.0,0.0,1.0,-1.0,1.0,1,0,0,0.45160770536998324,0.24765818582044172,-0.2416460797304507,0.2633568951884144,0.1940000409451329,-0.2845269955785059,0.5411378002696797,0.24830768138897194,-0.25406953395348064,0.5027119932023928,0.24999264509287014,-0.2331915620054812,0.24075625204699025,0.18279267914727643,-0.21492216398940184,0.2575754772764748,0.191230350782271,-0.22432511960013676,0.3405016577050909,0.22456027880517604,-0.2438219806208718,0.8727288025353191,0.11107323976058703,-0.24798590725311895,0.9750044917212827,0.024370732844605836,-0.29610197405200617,0.978826246487169,0.02072542567500887,-0.2761398656274138
9.0,0.0,9.0,0.0,0.0,0.0,0.0,0.0,333.78669859981164,337.2898587998934,None,right,0.7241283999755979,338.8851302000694,ae11,338.8851302000694,None,333.78669859981164,337.2898587998934,False,4.0,['p'],True,0.27,0.3,0.1,1.0,2.0,0.7963326591781347,0.0116156252879662,wait_cost,0.0,3.0,,,ae11,1,2022-04-29_14h28.10.531,threat_forest,2021.2.3,59.998619923447386,False,1.0,0.4833333333333333,0.4166666666666666,-0.7877777777777778,-1.2613888888888891,1,0,0,-0.3227865542881302,0.0116156252879662,0.27,0.27,0.3,0.9,-1.1,-1.02,2.98,2.98,1.0,2.0,-1.0,4.0,0,0,1,0.5070510527720841,0.24995028265480523,-0.24631770032368805,0.551174613172533,0.24738115896664156,-0.23055366102696678,0.5411378002696797,0.24830768138897194,-0.25406953395348064,0.4150935936629341,0.24279090216292504,-0.2488822605155755,0.44750518640372117,0.2472442945454919,-0.2563481760075623,0.7014914109187104,0.20940121132598744,-0.26365904138300744,0.3672784582426037,0.2323849923535397,-0.2419149576620967,0.41860811980067586,0.24337536183761888,-0.2435250468020062,0.34301553776298893,0.22535587861615644,-0.22823936619226412,0.38456054446885307,0.23667373210667236,-0.23047145970183897
9.0,0.0,9.0,0.0,1.0,0.0,1.0,0.0,,,,right,0.7775288997218013,344.0598662998528,ae11,344.0598662998528,None,333.78669859981164,337.2898587998934,False,3.0,['p'],True,0.27,0.3,0.1,1.0,2.0,0.7963326591781347,0.0431681748711396,wait_cost,0.0,2.0,341.6396107999608,None,ae11,1,2022-04-29_14h28.10.531,threat_forest,2021.2.3,59.998619923447386,False,1.0,0.4833333333333333,0.4166666666666666,-0.7877777777777778,-1.2613888888888891,1,0,0,-0.2516344655593428,0.0431681748711396,0.27,0.27,0.3,0.9,-1.1,-1.02,1.98,1.98,1.0,2.0,-1.0,3.0,0,0,1,0.5070510527720841,0.24995028265480523,-0.24631770032368805,0.551174613172533,0.24738115896664156,-0.23055366102696678,0.5411378002696797,0.24830768138897194,-0.25406953395348064,0.4150935936629341,0.24279090216292504,-0.2488822605155755,0.44750518640372117,0.2472442945454919,-0.2563481760075623,0.7014914109187104,0.20940121132598744,-0.26365904138300744,0.3672784582426037,0.2323849923535397,-0.2419149576620967,0.41860811980067586,0.24337536183761888,-0.2435250468020062,0.34301553776298893,0.22535587861615644,-0.22823936619226412,0.524834324860057,0.2493832563087452,-0.2277836696470239
9.0,0.0,9.0,0.0,2.0,0.0,2.0,0.0,,,,right,0.581220000050962,349.59306399989873,ae11,344.85682020010427,346.8561177998781,349.59306399989873,None,True,2.0,['p'],False,0.4444444444444445,0.6666666666666666,0.3333333333333333,1.0,2.0,0.9656336071428248,0.0702178235965045,succ_gain,1.0,4.0,346.8561177998781,None,ae11,1,2022-04-29_14h28.10.531,threat_forest,2021.2.3,59.998619923447386,True,1.0,0.4833333333333333,0.4166666666666666,-0.7877777777777778,-1.2613888888888891,1,1,1,-0.5426259362281075,0.0702178235965045,0.4444444444444445,0.4444444444444445,0.6666666666666666,0.6666666666666667,-0.3333333333333335,-0.5555555555555556,1.4444444444444444,1.4444444444444444,0.0,2.0,-1.0,2.0,0,1,1,0.45160770536998324,0.24765818582044172,-0.2416460797304507,0.3741574587670898,0.23416365481604332,-0.24391780175495137,0.5411378002696797,0.24830768138897194,-0.25406953395348064,0.5758299604760592,0.2442498170941993,-0.24570366964373036,0.6429280126649505,0.2295715831956478,-0.24498911311598437,0.7014914109187104,0.20940121132598744,-0.26365904138300744,0.6172500933918276,0.23625241559960772,-0.24097239728899594,0.41860811980067586,0.24337536183761888,-0.2435250468020062,0.5940954760457701,0.24114604138771992,-0.22290781982303096,0.6428550401793339,0.22959243749536082,-0.23196900067417484
9.0,0.0,9.0,0.0,3.0,0.0,3.0,0.0,,,,right,0.6524991998448968,355.1135279000737,ae11,355.1135279000737,None,350.20681319991127,352.2063651997596,False,4.0,['p'],True,0.27,0.3,0.1,1.0,2.0,0.7963326591781347,0.03128469792524,wait_cost,0.0,3.0,352.2063651997596,None,ae11,1,2022-04-29_14h28.10.531,threat_forest,2021.2.3,59.998619923447386,False,1.0,0.4833333333333333,0.4166666666666666,-0.7877777777777778,-1.2613888888888891,1,0,0,-0.4269453660773863,0.03128469792524,0.27,0.27,0.3,0.9,-1.1,-1.02,2.98,2.98,1.0,2.0,1.0,4.0,0,0,1,0.5070510527720841,0.24995028265480523,-0.24631770032368805,0.551174613172533,0.24738115896664156,-0.23055366102696678,0.25609720999225605,0.19051142902643836,-0.2088917945551031,0.4150935936629341,0.24279090216292504,-0.2488822605155755,0.44750518640372117,0.2472442945454919,-0.2563481760075623,0.7014914109187104,0.20940121132598744,-0.26365904138300744,0.3672784582426037,0.2323849923535397,-0.2419149576620967,0.41860811980067586,0.24337536183761888,-0.2435250468020062,0.34301553776298893,0.22535587861615644,-0.22823936619226412,0.47125000794641503,0.24917343795691882,-0.22782804169985532
9.0,0.0,9.0,0.0,4.0,0.0,4.0,0.0,,,,right,0.795864500105381,359.21044990001246,ae11,355.7901107999496,357.7899397998117,359.21044990001246,None,True,3.0,['p'],False,0.4444444444444445,0.6666666666666666,0.3333333333333333,1.0,2.0,0.9656336071428248,0.1229938271604937,figh_cost,1.0,0.0,357.7899397998117,None,ae11,1,2022-04-29_14h28.10.531,threat_forest,2021.2.3,59.998619923447386,True,1.0,0.4833333333333333,0.4166666666666666,-0.7877777777777778,-1.2613888888888891,1,1,1,-0.2283263336261087,0.1229938271604937,0.4444444444444445,0.4444444444444445,0.6666666666666666,0.6666666666666667,-0.3333333333333335,-0.5555555555555556,2.4444444444444446,2.4444444444444446,0.0,2.0,-1.0,3.0,0,1,1,0.45160770536998324,0.24765818582044172,-0.2416460797304507,0.3741574587670898,0.23416365481604332,-0.24391780175495137,0.5411378002696797,0.24830768138897194,-0.25406953395348064,0.5758299604760592,0.2442498170941993,-0.24570366964373036,0.6429280126649505,0.2295715831956478,-0.24498911311598437,0.7014914109187104,0.20940121132598744,-0.26365904138300744,0.6172500933918276,0.23625241559960772,-0.24097239728899594,0.41860811980067586,0.24337536183761888,-0.2435250468020062,0.5940954760457701,0.24114604138771992,-0.22290781982303096,0.8235524186087789,0.14531383241240955,-0.24979210663582035
10.0,0.0,10.0,0.0,0.0,0.0,0.0,0.0,364.14924159972,367.6568760997616,None,left,0.7363102999515831,369.9498439999297,ae11,364.14924159972,367.6568760997616,369.9498439999297,None,False,5.0,['p'],False,0.2040816326530612,0.2857142857142857,0.2857142857142857,2.0,2.0,0.9335459102197724,-0.0417655517413427,wait_cost,1.0,4.0,,,ae11,1,2022-04-29_14h28.10.531,threat_forest,2021.2.3,59.998619923447386,False,21.0,0.4761904761904761,0.4797619047619047,-1.012471655328798,-0.900124716553288,0,0,0,-0.30610364590783,-0.0417655517413427,0.2040816326530612,0.2040816326530612,0.2857142857142857,0.7142857142857143,-1.7142857142857144,-1.469387755102041,3.5306122448979598,3.5306122448979598,0.0,2.0,-1.0,5.0,0,0,0,0.45160770536998324,0.24765818582044172,-0.2416460797304507,0.4091413799190268,0.2417447111569814,-0.236252640265103,0.5411378002696797,0.24830768138897194,-0.25406953395348064,0.40897145374960864,0.24171380376754034,-0.2512289738531782,0.2992589217778128,0.20970301951419373,-0.23221867512515798,0.2575754772764748,0.191230350782271,-0.22432511960013676,0.2829196842286224,0.20287613650459901,-0.24910679481284875,0.41860811980067586,0.24337536183761888,-0.2435250468020062,0.26126544813900054,0.19300581374772777,-0.2391623613120067,0.19247821125415795,0.15543034944655773,-0.24765268163127802
10.0,0.0,10.0,0.0,1.0,0.0,1.0,0.0,,,,left,0.7915603998117149,375.8614488998428,ae11,375.8614488998428,None,370.70691550010815,372.7069592997432,True,4.0,['p'],True,0.4444444444444445,0.6666666666666666,0.3333333333333333,1.0,2.0,0.9656336071428248,0.1275977123343487,unsucc_cost,0.0,2.0,372.7069592997432,None,ae11,1,2022-04-29_14h28.10.531,threat_forest,2021.2.3,59.998619923447386,True,21.0,0.4761904761904761,0.4797619047619047,-1.012471655328798,-0.900124716553288,1,0,1,-0.2337490920081829,0.1275977123343487,0.4444444444444445,0.4444444444444445,0.6666666666666666,0.6666666666666667,-0.3333333333333335,-0.5555555555555556,3.4444444444444446,3.4444444444444446,1.0,2.0,-1.0,4.0,0,0,1,0.5070510527720841,0.24995028265480523,-0.24631770032368805,0.3741574587670898,0.23416365481604332,-0.24391780175495137,0.5411378002696797,0.24830768138897194,-0.25406953395348064,0.5758299604760592,0.2442498170941993,-0.24570366964373036,0.6429280126649505,0.2295715831956478,-0.24498911311598437,0.7014914109187104,0.20940121132598744,-0.26365904138300744,0.6172500933918276,0.23625241559960772,-0.24097239728899594,0.41860811980067586,0.24337536183761888,-0.2435250468020062,0.5940954760457701,0.24114604138771992,-0.22290781982303096,0.8353078806442176,0.1375686251778831,-0.2514300507985174
10.0,0.0,10.0,0.0,2.0,0.0,2.0,0.0,,,,left,0.7186410999856889,379.1902185999788,ae11,379.1902185999788,None,370.70691550010815,372.7069592997432,True,2.0,['p'],True,0.4444444444444445,0.6666666666666666,0.3333333333333333,1.0,2.0,0.9656336071428248,0.0826028463262662,figh_cost,0.0,0.0,378.6736920997501,None,ae11,1,2022-04-29_14h28.10.531,threat_forest,2021.2.3,59.998619923447386,True,21.0,0.4761904761904761,0.4797619047619047,-1.012471655328798,-0.900124716553288,1,0,1,-0.3303932114132299,0.0826028463262662,0.4444444444444445,0.4444444444444445,0.6666666666666666,0.6666666666666667,-0.3333333333333335,-0.5555555555555556,1.4444444444444444,1.4444444444444444,1.0,2.0,-1.0,2.0,0,0,1,0.5070510527720841,0.24995028265480523,-0.24631770032368805,0.3741574587670898,0.23416365481604332,-0.24391780175495137,0.5411378002696797,0.24830768138897194,-0.25406953395348064,0.5758299604760592,0.2442498170941993,-0.24570366964373036,0.6429280126649505,0.2295715831956478,-0.24498911311598437,0.7014914109187104,0.20940121132598744,-0.26365904138300744,0.6172500933918276,0.23625241559960772,-0.24097239728899594,0.41860811980067586,0.24337536183761888,-0.2435250468020062,0.5940954760457701,0.24114604138771992,-0.22290781982303096,0.6924031885951117,0.2129810130184339,-0.23548195842109929
11.0,0.0,11.0,0.0,0.0,0.0,0.0,0.0,382.6538430000656,386.1570500996895,None,left,1.137201300356537,386.7575535997749,ae11,382.6538430000656,386.1570500996895,386.7575535997749,None,False,4.0,['p'],False,0.2962962962962963,0.3333333333333333,0.1111111111111111,1.0,2.0,0.8325252476189534,0.0040645764059328,wait_cost,1.0,3.0,,,ae11,1,2022-04-29_14h28.10.531,threat_forest,2021.2.3,59.998619923447386,False,22.0,0.4166666666666666,0.4464285714285714,-0.7129629629629629,-0.8627173091458804,0,0,0,0.128570244266211,0.0040645764059328,0.2962962962962963,0.2962962962962963,0.3333333333333333,0.8888888888888888,-1.0000000000000002,-0.925925925925926,3.074074074074074,3.074074074074074,0.0,2.0,-1.0,4.0,0,0,0,0.45160770536998324,0.24765818582044172,-0.2416460797304507,0.5426807923341245,0.2481783499657313,-0.22974762589525582,0.5411378002696797,0.24830768138897194,-0.25406953395348064,0.42947784653781546,0.24502662587105614,-0.24401120818874356,0.4733856964995509,0.24929167884918596,-0.2576641238894981,0.2575754772764748,0.191230350782271,-0.22432511960013676,0.40374608556041647,0.2407351839550573,-0.23987986628196623,0.41860811980067586,0.24337536183761888,-0.2435250468020062,0.37883461560540715,0.23531894962451055,-0.22487533658538356,0.35284359945621163,0.2283449937789961,-0.23223280809618987
11.0,0.0,11.0,0.0,1.0,0.0,1.0,0.0,,,,left,1.0189935001544654,391.195370899979,ae11,382.6538430000656,386.1570500996895,391.195370899979,None,False,3.0,['p'],False,0.2962962962962963,0.3333333333333333,0.1111111111111111,1.0,2.0,0.8325252476189534,0.0620848397426785,wait_cost,1.0,2.0,389.9234436000697,None,ae11,1,2022-04-29_14h28.10.531,threat_forest,2021.2.3,59.998619923447386,False,22.0,0.4166666666666666,0.4464285714285714,-0.7129629629629629,-0.8627173091458804,0,0,0,0.0188153755690816,0.0620848397426785,0.2962962962962963,0.2962962962962963,0.3333333333333333,0.8888888888888888,-1.0000000000000002,-0.925925925925926,2.074074074074074,2.074074074074074,0.0,2.0,-1.0,3.0,0,0,0,0.45160770536998324,0.24765818582044172,-0.2416460797304507,0.5426807923341245,0.2481783499657313,-0.22974762589525582,0.5411378002696797,0.24830768138897194,-0.25406953395348064,0.42947784653781546,0.24502662587105614,-0.24401120818874356,0.4733856964995509,0.24929167884918596,-0.2576641238894981,0.2575754772764748,0.191230350782271,-0.22432511960013676,0.40374608556041647,0.2407351839550573,-0.23987986628196623,0.41860811980067586,0.24337536183761888,-0.2435250468020062,0.37883461560540715,0.23531894962451055,-0.22487533658538356,0.6084838014108535,0.23823126483145046,-0.23014207514729954
11.0,0.0,11.0,0.0,2.0,0.0,2.0,0.0,,,,left,0.7242522998712957,397.4621704998426,ae11,382.6538430000656,386.1570500996895,397.4621704998426,None,False,2.0,['p'],False,0.2962962962962963,0.3333333333333333,0.1111111111111111,1.0,2.0,0.8325252476189534,-0.0199136464224679,wait_cost,1.0,1.0,394.2404447998852,None,ae11,1,2022-04-29_14h28.10.531,threat_forest,2021.2.3,59.998619923447386,False,22.0,0.4166666666666666,0.4464285714285714,-0.7129629629629629,-0.8627173091458804,0,0,0,-0.3226154668164273,-0.0199136464224679,0.2962962962962963,0.2962962962962963,0.3333333333333333,0.8888888888888888,-1.0000000000000002,-0.925925925925926,1.074074074074074,1.074074074074074,0.0,2.0,-1.0,2.0,0,0,0,0.45160770536998324,0.24765818582044172,-0.2416460797304507,0.5426807923341245,0.2481783499657313,-0.22974762589525582,0.5411378002696797,0.24830768138897194,-0.25406953395348064,0.42947784653781546,0.24502662587105614,-0.24401120818874356,0.4733856964995509,0.24929167884918596,-0.2576641238894981,0.2575754772764748,0.191230350782271,-0.22432511960013676,0.40374608556041647,0.2407351839550573,-0.23987986628196623,0.41860811980067586,0.24337536183761888,-0.2435250468020062,0.37883461560540715,0.23531894962451055,-0.22487533658538356,0.261252364123623,0.1929995663634409,-0.23970760312236583
11.0,0.0,11.0,0.0,3.0,0.0,3.0,0.0,,,,left,0.8397288001142442,401.0263396999799,ae11,401.0263396999799,None,398.2071706000716,400.20745670003816,True,1.0,['p'],True,0.4166666666666667,0.5,0.1666666666666666,1.0,2.0,0.9358932809493992,0.2234885831047097,succ_gain,0.0,3.0,400.20745670003816,None,ae11,1,2022-04-29_14h28.10.531,threat_forest,2021.2.3,59.998619923447386,True,22.0,0.4166666666666666,0.4464285714285714,-0.7129629629629629,-0.8627173091458804,1,0,1,-0.1746762962811738,0.2234885831047097,1.0,0.4166666666666667,0.5,0.8333333333333334,-0.4999999999999998,-0.4999999999999998,0.5000000000000002,0.5000000000000002,1.0,2.0,-1.0,1.0,1,0,1,0.5070510527720841,0.24995028265480523,-0.24631770032368805,0.49993730501930694,0.2499999960693394,-0.22790577023114378,0.5411378002696797,0.24830768138897194,-0.25406953395348064,0.5027119932023928,0.24999264509287014,-0.2331915620054812,0.6021501201248687,0.23956535295847492,-0.2514125677298631,0.7014914109187104,0.20940121132598744,-0.26365904138300744,0.5781503700079588,0.24389251966761916,-0.2391103669699211,0.8727288025353191,0.11107323976058703,-0.24798590725311895,0.9750044917212827,0.024370732844605836,-0.29610197405200617,0.9662665790613157,0.032595477250457756,-0.27362960591451047
11.0,0.0,11.0,0.0,4.0,0.0,4.0,0.0,,,,left,0.8092498001642525,404.9085701000877,ae11,401.89081679983065,403.89044889993966,404.9085701000877,None,False,3.0,['p'],False,0.2962962962962963,0.3333333333333333,0.1111111111111111,1.0,2.0,0.8325252476189534,0.1209705075445815,wait_cost,1.0,2.0,403.89044889993966,None,ae11,1,2022-04-29_14h28.10.531,threat_forest,2021.2.3,59.998619923447386,False,22.0,0.4166666666666666,0.4464285714285714,-0.7129629629629629,-0.8627173091458804,0,0,0,-0.2116476331152608,0.1209705075445815,0.2962962962962963,0.2962962962962963,0.3333333333333333,0.8888888888888888,-1.0000000000000002,-0.925925925925926,2.074074074074074,2.074074074074074,0.0,2.0,1.0,3.0,0,0,0,0.45160770536998324,0.24765818582044172,-0.2416460797304507,0.5426807923341245,0.2481783499657313,-0.22974762589525582,0.25609720999225605,0.19051142902643836,-0.2088917945551031,0.42947784653781546,0.24502662587105614,-0.24401120818874356,0.4733856964995509,0.24929167884918596,-0.2576641238894981,0.2575754772764748,0.191230350782271,-0.22432511960013676,0.40374608556041647,0.2407351839550573,-0.23987986628196623,0.41860811980067586,0.24337536183761888,-0.2435250468020062,0.37883461560540715,0.23531894962451055,-0.22487533658538356,0.818181319344813,0.14876064801999414,-0.24906317952859347
11.0,0.0,11.0,0.0,5.0,0.0,5.0,0.0,,,,left,0.6499393000267446,410.3637786000036,ae11,410.3637786000036,None,405.7408369998448,407.74075850006193,True,2.0,['p'],True,0.4166666666666667,0.5,0.1666666666666666,1.0,2.0,0.9358932809493992,0.0601851851851852,unsucc_cost,0.0,0.0,407.74075850006193,None,ae11,1,2022-04-29_14h28.10.531,threat_forest,2021.2.3,59.998619923447386,True,22.0,0.4166666666666666,0.4464285714285714,-0.7129629629629629,-0.8627173091458804,1,0,1,-0.4308763050273042,0.0601851851851852,0.4166666666666667,0.4166666666666667,0.5,0.8333333333333334,-0.4999999999999998,-0.4999999999999998,1.5000000000000002,1.5000000000000002,1.0,2.0,-1.0,2.0,0,0,1,0.5070510527720841,0.24995028265480523,-0.24631770032368805,0.49993730501930694,0.2499999960693394,-0.22790577023114378,0.5411378002696797,0.24830768138897194,-0.25406953395348064,0.5027119932023928,0.24999264509287014,-0.2331915620054812,0.6021501201248687,0.23956535295847492,-0.2514125677298631,0.7014914109187104,0.20940121132598744,-0.26365904138300744,0.5781503700079588,0.24389251966761916,-0.2391103669699211,0.41860811980067586,0.24337536183761888,-0.2435250468020062,0.5539839748646052,0.24708573045781768,-0.22090228459491512,0.6002835615066954,0.23994320729153282,-0.22978003626642038
12.0,0.0,12.0,0.0,0.0,0.0,0.0,0.0,415.9359993999824,419.4411031999625,None,right,0.9755470999516548,420.3484642999247,ae11,415.9359993999824,419.4411031999625,420.3484642999247,None,True,5.0,['r'],False,0.3333333333333333,0.3333333333333333,0.0,0.0,1.0,0.5793801642856949,0.0360091124884982,unsucc_cost,1.0,3.0,,,ae11,1,2022-04-29_14h28.10.531,threat_forest,2021.2.3,59.998619923447386,True,66.0,0.5,0.4583333333333333,-1.5,-1.1064814814814814,1,0,1,-0.0247568372022815,0.0360091124884982,0.3333333333333333,0.3333333333333333,0.3333333333333333,1.0,-1.0000000000000002,-1.0000000000000002,4.0,4.0,0.0,1.0,-1.0,5.0,0,0,1,0.45160770536998324,0.24765818582044172,-0.2416460797304507,0.6257250867347733,0.23419320256553372,-0.24388792619918184,0.5411378002696797,0.24830768138897194,-0.25406953395348064,0.42947784653781546,0.24502662587105614,-0.24401120818874356,0.4733856964995509,0.24929167884918596,-0.2576641238894981,0.7014914109187104,0.20940121132598744,-0.26365904138300744,0.45687313070247415,0.24814007314459413,-0.23807516204527435,0.41860811980067586,0.24337536183761888,-0.2435250468020062,0.4315223478165543,0.24531081115144304,-0.22150158586371682,0.4925426346608012,0.2499443877021977,-0.22766500246839574
12.0,0.0,12.0,0.0,1.0,0.0,1.0,0.0,,,,right,0.7028242000378668,426.3770027998835,ae11,415.9359993999824,419.4411031999625,426.3770027998835,None,True,3.0,['r'],False,0.3333333333333333,0.3333333333333333,0.0,0.0,1.0,0.5793801642856949,0.0403131826957271,succ_gain,1.0,4.0,423.34111629985273,None,ae11,1,2022-04-29_14h28.10.531,threat_forest,2021.2.3,59.998619923447386,True,66.0,0.5,0.4583333333333333,-1.5,-1.1064814814814814,1,0,1,-0.3526484895143466,0.0403131826957271,0.3333333333333333,0.3333333333333333,0.3333333333333333,1.0,-1.0000000000000002,-1.0000000000000002,2.0,2.0,0.0,1.0,-1.0,3.0,0,0,1,0.45160770536998324,0.24765818582044172,-0.2416460797304507,0.6257250867347733,0.23419320256553372,-0.24388792619918184,0.5411378002696797,0.24830768138897194,-0.25406953395348064,0.42947784653781546,0.24502662587105614,-0.24401120818874356,0.4733856964995509,0.24929167884918596,-0.2576641238894981,0.7014914109187104,0.20940121132598744,-0.26365904138300744,0.45687313070247415,0.24814007314459413,-0.23807516204527435,0.41860811980067586,0.24337536183761888,-0.2435250468020062,0.4315223478165543,0.24531081115144304,-0.22150158586371682,0.5119663777566181,0.24985680580338593,-0.22768352414968493
12.0,0.0,12.0,0.0,2.0,0.0,2.0,0.0,,,,right,0.9971585003659128,430.99564810004085,ae11,430.99564810004085,None,427.10779629973695,429.1079373997636,False,4.0,['r'],True,0.2222222222222222,0.6666666666666666,0.6666666666666666,2.0,1.0,0.77250688571426,-0.0169514936747448,wait_cost,0.0,3.0,429.1079373997636,None,ae11,1,2022-04-29_14h28.10.531,threat_forest,2021.2.3,59.998619923447386,False,66.0,0.5,0.4583333333333333,-1.5,-1.1064814814814814,0,0,0,-0.0028455443580439,-0.0169514936747448,0.2222222222222222,0.2222222222222222,0.6666666666666666,0.3333333333333333,-2.0,-2.0,2.0,2.0,1.0,1.0,1.0,4.0,0,0,0,0.5070510527720841,0.24995028265480523,-0.24631770032368805,0.17613372823916484,0.1451106380157369,-0.33395878341161334,0.25609720999225605,0.19051142902643836,-0.2088917945551031,0.5758299604760592,0.2442498170941993,-0.24570366964373036,0.24075625204699025,0.18279267914727643,-0.21492216398940184,0.2575754772764748,0.191230350782271,-0.22432511960013676,0.3049646400039663,0.21196120835121754,-0.24689259994340898,0.41860811980067586,0.24337536183761888,-0.2435250468020062,0.28247708027991764,0.2026837793964506,-0.23589459749205827,0.27170478215531146,0.19788129350924621,-0.23867522319498222
12.0,0.0,12.0,0.0,3.0,0.0,3.0,0.0,,,,right,0.697890100069344,435.0307660000399,ae11,432.0246724998578,434.02451829984784,435.0307660000399,None,True,3.0,['r'],False,0.3333333333333333,0.3333333333333333,0.0,0.0,1.0,0.5793801642856949,0.1003086419753085,unsucc_cost,1.0,1.0,434.02451829984784,None,ae11,1,2022-04-29_14h28.10.531,threat_forest,2021.2.3,59.998619923447386,True,66.0,0.5,0.4583333333333333,-1.5,-1.1064814814814814,1,0,1,-0.3596936383736656,0.1003086419753085,0.3333333333333333,0.3333333333333333,0.3333333333333333,1.0,-1.0000000000000002,-1.0000000000000002,2.0,2.0,0.0,1.0,-1.0,3.0,0,0,1,0.45160770536998324,0.24765818582044172,-0.2416460797304507,0.6257250867347733,0.23419320256553372,-0.24388792619918184,0.5411378002696797,0.24830768138897194,-0.25406953395348064,0.42947784653781546,0.24502662587105614,-0.24401120818874356,0.4733856964995509,0.24929167884918596,-0.2576641238894981,0.7014914109187104,0.20940121132598744,-0.26365904138300744,0.45687313070247415,0.24814007314459413,-0.23807516204527435,0.41860811980067586,0.24337536183761888,-0.2435250468020062,0.4315223478165543,0.24531081115144304,-0.22150158586371682,0.7560310781428565,0.18444808702500645,-0.24151605643299817
12.0,0.0,12.0,0.0,4.0,0.0,4.0,0.0,,,,left,0.8060440998524427,440.2456529997289,ae11,440.2456529997289,None,435.7576329000294,437.757938799914,True,1.0,['r'],True,0.2222222222222222,0.6666666666666666,0.6666666666666666,2.0,1.0,0.77250688571426,0.0679012345679012,figh_cost,0.0,0.0,437.757938799914,None,ae11,1,2022-04-29_14h28.10.531,threat_forest,2021.2.3,59.998619923447386,True,66.0,0.5,0.4583333333333333,-1.5,-1.1064814814814814,0,0,1,-0.2156168235151651,0.0679012345679012,1.0,0.2222222222222222,0.6666666666666666,0.3333333333333333,-2.0,-2.0,-1.0,0.0,1.0,1.0,-1.0,1.0,1,0,0,0.5070510527720841,0.24995028265480523,-0.24631770032368805,0.17613372823916484,0.1451106380157369,-0.33395878341161334,0.5411378002696797,0.24830768138897194,-0.25406953395348064,0.5758299604760592,0.2442498170941993,-0.24570366964373036,0.24075625204699025,0.18279267914727643,-0.21492216398940184,0.2575754772764748,0.191230350782271,-0.22432511960013676,0.3049646400039663,0.21196120835121754,-0.24689259994340898,0.8727288025353191,0.11107323976058703,-0.24798590725311895,0.9750044917212827,0.024370732844605836,-0.29610197405200617,0.633196254744844,0.2322587577219466,-0.23140513149433561
13.0,0.0,13.0,0.0,0.0,0.0,0.0,0.0,446.038227299694,449.54237919999287,None,right,1.227237899787724,450.2531556999311,ae11,450.2531556999311,None,446.038227299694,449.54237919999287,False,5.0,['p'],True,0.16,0.2,0.2,2.0,1.0,0.8198746470064713,-0.0406469608296754,wait_cost,0.0,4.0,,,ae11,1,2022-04-29_14h28.10.531,threat_forest,2021.2.3,59.998619923447386,False,3.0,0.35,0.425,-1.4225000000000003,-1.4612500000000002,0,0,0,0.2047660342926081,-0.0406469608296754,0.16,0.16,0.2,0.8,-2.0,-1.7200000000000004,3.28,3.28,1.0,1.0,-1.0,5.0,0,0,0,0.5070510527720841,0.24995028265480523,-0.24631770032368805,0.4742515370536501,0.2493370166559005,-0.2285761048177649,0.5411378002696797,0.24830768138897194,-0.25406953395348064,0.3728882973709553,0.23384261505474535,-0.26837821816943774,0.24075625204699025,0.18279267914727643,-0.21492216398940184,0.2575754772764748,0.191230350782271,-0.22432511960013676,0.23357537770306086,0.17901792063393335,-0.25492146970663915,0.41860811980067586,0.24337536183761888,-0.2435250468020062,0.21418458254169268,0.1683095471431335,-0.24750105246131276,0.19563666753786219,0.15736296185254214,-0.24724397581963403
13.0,0.0,13.0,0.0,1.0,0.0,1.0,0.0,,,,right,0.6488735000602901,454.6024164999835,ae11,451.5081325997599,453.50819549988955,454.6024164999835,None,True,4.0,['p'],False,0.375,0.5,0.25,1.0,1.0,0.9850568223215076,0.0507783712463378,figh_cost,1.0,1.0,453.5081954998896,None,ae11,1,2022-04-29_14h28.10.531,threat_forest,2021.2.3,59.998619923447386,True,3.0,0.35,0.425,-1.4225000000000003,-1.4612500000000002,1,0,1,-0.4325174964378162,0.0507783712463378,0.375,0.375,0.5,0.75,-1.25,-1.125,2.875,2.875,0.0,1.0,-1.0,4.0,0,0,1,0.45160770536998324,0.24765818582044172,-0.2416460797304507,0.4360185842908051,0.24590637844384716,-0.2320448029418814,0.5411378002696797,0.24830768138897194,-0.25406953395348064,0.5027119932023928,0.24999264509287014,-0.2331915620054812,0.4092533345327136,0.24176504270656834,-0.25282640931285105,0.7014914109187104,0.20940121132598744,-0.26365904138300744,0.5177734917340663,0.2496841029915791,-0.23769885429304358,0.41860811980067586,0.24337536183761888,-0.2435250468020062,0.4926428030247502,0.24994587165266743,-0.21993655829915093,0.5589285409282873,0.24652742706406322,-0.22838761589395376
13.0,0.0,13.0,0.0,2.0,0.0,2.0,0.0,,,,right,0.6447749002836645,460.6427986999042,ae11,451.5081325997599,453.50819549988955,460.6427986999042,None,True,1.0,['p'],False,0.375,0.5,0.25,1.0,1.0,0.9850568223215076,0.0417231582641601,succ_gain,1.0,2.0,457.2747427998111,None,ae11,1,2022-04-29_14h28.10.531,threat_forest,2021.2.3,59.998619923447386,True,3.0,0.35,0.425,-1.4225000000000003,-1.4612500000000002,1,0,1,-0.43885401490645,0.0417231582641601,1.0,0.375,0.5,0.75,-1.25,-1.125,-0.125,0.0,0.0,1.0,-1.0,1.0,1,0,1,0.45160770536998324,0.24765818582044172,-0.2416460797304507,0.4360185842908051,0.24590637844384716,-0.2320448029418814,0.5411378002696797,0.24830768138897194,-0.25406953395348064,0.5027119932023928,0.24999264509287014,-0.2331915620054812,0.4092533345327136,0.24176504270656834,-0.25282640931285105,0.7014914109187104,0.20940121132598744,-0.26365904138300744,0.5177734917340663,0.2496841029915791,-0.23769885429304358,0.8727288025353191,0.11107323976058703,-0.24798590725311895,0.9750044917212827,0.024370732844605836,-0.29610197405200617,0.5183244299069555,0.24966421526858507,-0.22772425289104922
13.0,0.0,13.0,0.0,3.0,0.0,3.0,0.0,,,,right,0.5351724997162819,466.5672021000646,ae11,466.5672021000646,None,461.3085830998607,463.307869900018,False,2.0,['p'],True,0.16,0.2,0.2,2.0,1.0,0.8198746470064713,-0.0276563437499999,wait_cost,0.0,1.0,463.307869900018,None,ae11,1,2022-04-29_14h28.10.531,threat_forest,2021.2.3,59.998619923447386,False,3.0,0.35,0.425,-1.4225000000000003,-1.4612500000000002,0,0,0,-0.6251661546790833,-0.0276563437499999,0.16,0.16,0.2,0.8,-2.0,-1.7200000000000004,0.2799999999999996,0.2799999999999996,1.0,1.0,1.0,2.0,0,0,0,0.5070510527720841,0.24995028265480523,-0.24631770032368805,0.4742515370536501,0.2493370166559005,-0.2285761048177649,0.25609720999225605,0.19051142902643836,-0.2088917945551031,0.3728882973709553,0.23384261505474535,-0.26837821816943774,0.24075625204699025,0.18279267914727643,-0.21492216398940184,0.2575754772764748,0.191230350782271,-0.22432511960013676,0.23357537770306086,0.17901792063393335,-0.25492146970663915,0.41860811980067586,0.24337536183761888,-0.2435250468020062,0.21418458254169268,0.1683095471431335,-0.24750105246131276,0.23518575653380808,0.17987341645742846,-0.2424835005213918
13.0,0.0,13.0,0.0,4.0,0.0,4.0,0.0,,,,right,0.6569531001150608,470.9808088000864,ae11,470.9808088000864,None,461.3085830998607,463.307869900018,False,1.0,['p'],True,0.16,0.2,0.2,2.0,1.0,0.8198746470064713,0.0513999999999998,wait_cost,0.0,0.0,469.1251912000589,None,ae11,1,2022-04-29_14h28.10.531,threat_forest,2021.2.3,59.998619923447386,False,3.0,0.35,0.425,-1.4225000000000003,-1.4612500000000002,0,0,0,-0.4201426479541336,0.0513999999999998,1.0,0.16,0.2,0.8,-2.0,-1.7200000000000004,-0.7200000000000004,0.0,1.0,1.0,-1.0,1.0,1,0,0,0.5070510527720841,0.24995028265480523,-0.24631770032368805,0.4742515370536501,0.2493370166559005,-0.2285761048177649,0.5411378002696797,0.24830768138897194,-0.25406953395348064,0.3728882973709553,0.23384261505474535,-0.26837821816943774,0.24075625204699025,0.18279267914727643,-0.21492216398940184,0.2575754772764748,0.191230350782271,-0.22432511960013676,0.23357537770306086,0.17901792063393335,-0.25492146970663915,0.8727288025353191,0.11107323976058703,-0.24798590725311895,0.9750044917212827,0.024370732844605836,-0.29610197405200617,0.5616934553023952,0.24619391757285133,-0.22845814595309788
14.0,0.0,14.0,0.0,0.0,0.0,0.0,0.0,475.7922577001154,479.2839724998921,None,right,0.7855714000761509,481.4550656001084,ae11,481.4550656001084,None,475.7922577001154,479.2839724998921,False,5.0,['p'],True,0.1975308641975308,0.2222222222222222,0.1111111111111111,1.0,1.0,0.7461067557824965,-0.0071988747894753,wait_cost,0.0,4.0,,,ae11,1,2022-04-29_14h28.10.531,threat_forest,2021.2.3,59.998619923447386,False,48.0,0.3111111111111111,0.3305555555555555,-1.3792592592592592,-1.4008796296296298,0,0,0,-0.2413439278029485,-0.0071988747894753,0.1975308641975308,0.1975308641975308,0.2222222222222222,0.8888888888888888,-1.6666666666666667,-1.5185185185185184,3.481481481481482,3.481481481481482,1.0,1.0,-1.0,5.0,0,0,0,0.5070510527720841,0.24995028265480523,-0.24631770032368805,0.5426807923341245,0.2481783499657313,-0.22974762589525582,0.5411378002696797,0.24830768138897194,-0.25406953395348064,0.38212577261707736,0.23610566651887904,-0.26344762586949566,0.30976648919465194,0.21381121136667153,-0.23485919862487412,0.2575754772764748,0.191230350782271,-0.22432511960013676,0.27520038749718284,0.19946513421858328,-0.24993811721611126,0.41860811980067586,0.24337536183761888,-0.2435250468020062,0.2538637045582872,0.18941692406622992,-0.24037414943780278,0.30790858132434273,0.21310088687117335,-0.23545660768852247
14.0,0.0,14.0,0.0,1.0,0.0,1.0,0.0,,,,right,1.2388814999721944,485.4164661001414,ae11,482.25870240014046,484.25852310005575,485.4164661001414,None,True,4.0,['p'],False,0.32,0.4,0.2,1.0,1.0,0.9455672104350704,0.0393429374403599,unsucc_cost,1.0,2.0,484.25852310005575,None,ae11,1,2022-04-29_14h28.10.531,threat_forest,2021.2.3,59.998619923447386,True,48.0,0.3111111111111111,0.3305555555555555,-1.3792592592592592,-1.4008796296296298,1,0,1,0.2142089564041183,0.0393429374403599,0.32,0.32,0.4,0.8,-1.4,-1.24,2.76,2.76,0.0,1.0,-1.0,4.0,0,0,1,0.45160770536998324,0.24765818582044172,-0.2416460797304507,0.4742515370536501,0.2493370166559005,-0.2285761048177649,0.5411378002696797,0.24830768138897194,-0.25406953395348064,0.4585826534395439,0.24828460340389102,-0.23691293437952232,0.3720692502212045,0.2336337232610352,-0.24760003701802283,0.7014914109187104,0.20940121132598744,-0.26365904138300744,0.4375683332996069,0.246102286993011,-0.2385718070600884,0.41860811980067586,0.24337536183761888,-0.2435250468020062,0.4123084563604138,0.24231019317410654,-0.2225147441264888,0.5075888422307603,0.24994240947359667,-0.2276654208210481
14.0,0.0,14.0,0.0,2.0,0.0,2.0,0.0,,,,right,1.0397067000158131,491.0825368999504,ae11,491.0825368999504,None,486.6755272997543,488.6754073998891,False,2.0,['p'],True,0.1975308641975308,0.2222222222222222,0.1111111111111111,1.0,1.0,0.7461067557824965,0.0037858795279334,wait_cost,0.0,1.0,488.6754073998891,None,ae11,1,2022-04-29_14h28.10.531,threat_forest,2021.2.3,59.998619923447386,False,48.0,0.3111111111111111,0.3305555555555555,-1.3792592592592592,-1.4008796296296298,0,0,0,0.0389386541628196,0.0037858795279334,0.1975308641975308,0.1975308641975308,0.2222222222222222,0.8888888888888888,-1.6666666666666667,-1.5185185185185184,0.4814814814814816,0.4814814814814816,1.0,1.0,-1.0,2.0,0,0,0,0.5070510527720841,0.24995028265480523,-0.24631770032368805,0.5426807923341245,0.2481783499657313,-0.22974762589525582,0.5411378002696797,0.24830768138897194,-0.25406953395348064,0.38212577261707736,0.23610566651887904,-0.26344762586949566,0.30976648919465194,0.21381121136667153,-0.23485919862487412,0.2575754772764748,0.191230350782271,-0.22432511960013676,0.27520038749718284,0.19946513421858328,-0.24993811721611126,0.41860811980067586,0.24337536183761888,-0.2435250468020062,0.2538637045582872,0.18941692406622992,-0.24037414943780278,0.35169550329423066,0.22800577625684845,-0.23230454528067856
14.0,0.0,14.0,0.0,3.0,0.0,3.0,0.0,,,,left,0.7277901000343263,496.6115688998252,ae11,496.6115688998252,None,486.6755272997543,488.6754073998891,True,1.0,['p'],True,0.1975308641975308,0.2222222222222222,0.1111111111111111,1.0,1.0,0.7461067557824965,0.0209731064269448,unsucc_cost,0.0,0.0,494.142064999789,None,ae11,1,2022-04-29_14h28.10.531,threat_forest,2021.2.3,59.998619923447386,True,48.0,0.3111111111111111,0.3305555555555555,-1.3792592592592592,-1.4008796296296298,0,0,1,-0.3177425964875165,0.0209731064269448,1.0,0.1975308641975308,0.2222222222222222,0.8888888888888888,-1.6666666666666667,-1.5185185185185184,-0.5185185185185184,0.0,1.0,1.0,-1.0,1.0,1,0,0,0.5070510527720841,0.24995028265480523,-0.24631770032368805,0.5426807923341245,0.2481783499657313,-0.22974762589525582,0.5411378002696797,0.24830768138897194,-0.25406953395348064,0.38212577261707736,0.23610566651887904,-0.26344762586949566,0.30976648919465194,0.21381121136667153,-0.23485919862487412,0.2575754772764748,0.191230350782271,-0.22432511960013676,0.27520038749718284,0.19946513421858328,-0.24993811721611126,0.8727288025353191,0.11107323976058703,-0.24798590725311895,0.9750044917212827,0.024370732844605836,-0.29610197405200617,0.4252411912803262,0.24441112051881528,-0.22883516905131976
15.0,0.0,15.0,0.0,0.0,0.0,0.0,0.0,500.9986363998614,504.5086594000459,None,right,0.7721493998542428,507.5188188999891,ae11,507.5188188999891,None,500.9986363998614,504.5086594000459,False,4.0,['r'],True,0.36,0.6,0.4,2.0,1.0,0.9801625908629508,0.0090639294214999,wait_cost,0.0,3.0,,,ae11,1,2022-04-29_14h28.10.531,threat_forest,2021.2.3,59.998619923447386,False,0.0,0.55,0.4305555555555556,-0.91,-1.1446296296296297,0,0,0,-0.2585772245532882,0.0090639294214999,0.36,0.36,0.6,0.6,-1.4000000000000004,-1.3200000000000005,2.68,2.68,1.0,1.0,-1.0,4.0,0,0,0,0.5070510527720841,0.24995028265480523,-0.24631770032368805,0.32737303055026923,0.22019992941860173,-0.25803644239785184,0.5411378002696797,0.24830768138897194,-0.25406953395348064,0.5467991214831104,0.24780984222840904,-0.23794731377090705,0.3720692502212044,0.23363372326103515,-0.24760003701802277,0.2575754772764748,0.191230350782271,-0.22432511960013676,0.4958155792702864,0.24998249062315672,-0.23762613187828477,0.41860811980067586,0.24337536183761888,-0.2435250468020062,0.47051745145745105,0.24913077933143618,-0.22021177411349813,0.3737168796384583,0.23405257351175238,-0.2310257781713195
15.0,0.0,15.0,0.0,1.0,0.0,1.0,0.0,,,,right,0.7480354001745582,511.0441590999253,ae11,511.0441590999253,None,500.9986363998614,504.5086594000459,False,3.0,['r'],True,0.36,0.6,0.4,2.0,1.0,0.9801625908629508,0.0196917849999999,wait_cost,0.0,2.0,510.3088410999626,None,ae11,1,2022-04-29_14h28.10.531,threat_forest,2021.2.3,59.998619923447386,False,0.0,0.55,0.4305555555555556,-0.91,-1.1446296296296297,0,0,0,-0.2903049756909452,0.0196917849999999,0.36,0.36,0.6,0.6,-1.4000000000000004,-1.3200000000000005,1.6799999999999995,1.6799999999999995,1.0,1.0,-1.0,3.0,0,0,0,0.5070510527720841,0.24995028265480523,-0.24631770032368805,0.32737303055026923,0.22019992941860173,-0.25803644239785184,0.5411378002696797,0.24830768138897194,-0.25406953395348064,0.5467991214831104,0.24780984222840904,-0.23794731377090705,0.3720692502212044,0.23363372326103515,-0.24760003701802277,0.2575754772764748,0.191230350782271,-0.22432511960013676,0.4958155792702864,0.24998249062315672,-0.23762613187828477,0.41860811980067586,0.24337536183761888,-0.2435250468020062,0.47051745145745105,0.24913077933143618,-0.22021177411349813,0.41959720011989216,0.24353538977143932,-0.22902036720319935
