miniblock.thisRepN,miniblock.thisTrialN,miniblock.thisN,miniblock.thisIndex,day.thisRepN,day.thisTrialN,day.thisN,day.thisIndex,forest.started,fixation_forest.started,fixation_forest.stopped,key_resp.keys,key_resp.rt,key_resp.started,Subject_ID,weather_left.started,weather_left.stopped,weather_right.started,weather_right.stopped,foraging T/F,in_LP,p/r heuristic,good_weather.T/F,p_succ_correct,p_succ_uncorrected,r_threat,n_oponents,gain_if_succ,weather_entropy,OP_value_difference,action_outcome,forest_side_L=0_R=1,out_LP,fixation_day.started,fixation_day.stopped,participant,session,date,expName,psychopyVersion,frameRate,foraging T/F NaNs,fora_NR,forest_mean_p,mvt_cutoff_p,forest_mean_ev,mvt_cutoff_ev,mvt_policy_eg,mvt_policy_p,fora_response,logRT,optimal policy,$\mathit{p}$ success cor + cap,$\mathit{p}$ success cor,$\mathit{p}$ success,risk threat encounter,expected gain naive,expected gain correct,expected state no bounds,expected state with bounds,weather type,gain magnitude,win stay lose shift,continuous energy state,binary energy state,$\mathit{p}$ success based MVT,expected gain based MVT,weather type fit,weather type_uncertain,weather type_uncertain_fit,risk threat encounter fit,risk threat encounter_uncertain,risk threat encounter_uncertain_fit,win stay lose shift fit,win stay lose shift_uncertain,win stay lose shift_uncertain_fit,$\mathit{p}$ success fit,$\mathit{p}$ success_uncertain,$\mathit{p}$ success_uncertain_fit,expected gain naive fit,expected gain naive_uncertain,expected gain naive_uncertain_fit,expected gain based MVT fit,expected gain based MVT_uncertain,expected gain based MVT_uncertain_fit,$\mathit{p}$ success cor fit,$\mathit{p}$ success cor_uncertain,$\mathit{p}$ success cor_uncertain_fit,binary energy state fit,binary energy state_uncertain,binary energy state_uncertain_fit,$\mathit{p}$ success cor + cap fit,$\mathit{p}$ success cor + cap_uncertain,$\mathit{p}$ success cor + cap_uncertain_fit,optimal policy fit,optimal policy_uncertain,optimal policy_uncertain_fit
0.0,0.0,0.0,0.0,0.0,0.0,0.0,0.0,26.49627520004288,29.99512269999832,None,left,1.0363224999746308,31.824071699986234,oy13,31.824071699986234,None,26.49627520004288,29.99512269999832,True,4.0,['p'],True,0.2777777777777778,0.3333333333333333,0.1666666666666666,1.0,2.0,0.8929352898779304,0.0253296004142655,unsucc_cost,0.0,2.0,,,oy13,1,2022-04-08_14h45.22.479,threat_forest,2021.2.3,60.12090311892305,True,54.0,0.2777777777777778,0.2777777777777778,-1.1882716049382718,-1.1882716049382718,1,0,1,0.0356783888073557,0.0253296004142655,0.2777777777777778,0.2777777777777778,0.3333333333333333,0.8333333333333334,-1.1666666666666663,-1.0555555555555556,2.9444444444444446,2.9444444444444446,1.0,2.0,,4.0,0,0,1,0.4108993356034028,0.24206107160408494,0.09879970680196948,0.41220425208873435,0.24229190664870154,0.12979237368217095,,,,0.3253044561447508,0.2194814669571187,0.14046906154993644,0.351298413032223,0.22788783803326465,0.12306643134429002,0.5528848158761811,0.2472031962497424,0.10074417701526239,0.2887045176394835,0.20535421913403665,0.13130510357991643,0.340178129270407,0.22445696963649323,0.16175575275048942,0.247943997151872,0.18646777142822452,0.17364889809519848,0.35407001565107343,0.22870443966792203,0.16401084923839387
0.0,0.0,0.0,0.0,1.0,0.0,1.0,0.0,,,,left,1.9501685000723228,36.43543079996016,oy13,32.882422400056385,34.8821411000099,36.43543079996016,None,False,2.0,['p'],False,0.1975308641975308,0.2222222222222222,0.1111111111111111,1.0,2.0,0.7461067557824965,-0.0062004160416093,wait_cost,1.0,1.0,34.8821411000099,None,oy13,1,2022-04-08_14h45.22.479,threat_forest,2021.2.3,60.12090311892305,False,54.0,0.2777777777777778,0.2777777777777778,-1.1882716049382718,-1.1882716049382718,0,0,0,0.667915779136,-0.0062004160416093,0.1975308641975308,0.1975308641975308,0.2222222222222222,0.8888888888888888,-1.4444444444444444,-1.3209876543209875,0.6790123456790123,0.6790123456790123,0.0,2.0,-1.0,2.0,0,0,0,0.4010782089690845,0.24021447925923595,0.16761524861142085,0.435919651023606,0.24589370887506354,0.12881614494853982,0.45912151163037,0.24832894918861403,0.13461120863406828,0.25253722892834385,0.1887621769335371,0.17359835881746974,0.2695988272847083,0.19691529961141835,0.13859397298577192,0.23295490694687723,0.178686918276249,0.16766322273921155,0.18193523132674985,0.14883480292883186,0.15219924331005824,0.340178129270407,0.22445696963649323,0.16175575275048942,0.1406158735590698,0.1208430496622895,0.10131660978378806,0.22211675328883576,0.1727809011972622,0.13700596865102685
0.0,0.0,0.0,0.0,2.0,0.0,2.0,0.0,,,,left,1.139763400075026,42.008728299988434,oy13,42.008728299988434,None,38.4153546000598,40.415446200058796,True,1.0,['p'],True,0.2777777777777778,0.3333333333333333,0.1666666666666666,1.0,2.0,0.8929352898779304,0.0818945598659017,unsucc_cost,0.0,0.0,40.4154462000588,None,oy13,1,2022-04-08_14h45.22.479,threat_forest,2021.2.3,60.12090311892305,True,54.0,0.2777777777777778,0.2777777777777778,-1.1882716049382718,-1.1882716049382718,1,0,1,0.1308206970723737,0.0818945598659017,1.0,0.2777777777777778,0.3333333333333333,0.8333333333333334,-1.1666666666666663,-1.0555555555555556,-0.0555555555555555,0.0,1.0,2.0,-1.0,1.0,1,0,1,0.4108993356034028,0.24206107160408494,0.09879970680196948,0.41220425208873435,0.24229190664870154,0.12979237368217095,0.45912151163037,0.24832894918861403,0.13461120863406828,0.3253044561447508,0.2194814669571187,0.14046906154993644,0.351298413032223,0.22788783803326465,0.12306643134429002,0.5528848158761811,0.2472031962497424,0.10074417701526239,0.2887045176394835,0.20535421913403665,0.13130510357991643,0.9302370987688143,0.06489603884299344,-0.10919059689863088,0.9944895223601536,0.005480112276027171,-0.025837685471537836,0.6384887981993619,0.2308208527732964,0.1650328425661973
1.0,0.0,1.0,0.0,0.0,0.0,0.0,0.0,45.817298399982974,49.314917400013655,None,left,1.3125418999698013,52.43934949999675,oy13,52.43934949999675,None,45.817298399982974,49.314917400013655,True,4.0,['r'],True,0.6,0.6,0.0,0.0,2.0,0.6126016192893442,0.1103326303155006,unsucc_cost,0.0,2.0,,,oy13,1,2022-04-08_14h45.22.479,threat_forest,2021.2.3,60.12090311892305,True,47.0,0.6333333333333333,0.4555555555555555,-0.0777777777777778,-0.6330246913580249,1,1,1,0.2719656387606038,0.1103326303155006,0.6,0.6,0.6,1.0,0.3999999999999999,0.3999999999999999,4.4,4.4,1.0,2.0,-1.0,4.0,0,1,1,0.4108993356034028,0.24206107160408494,0.09879970680196948,0.484131525740689,0.24974819152468158,0.1277714299754913,0.45912151163037,0.24832894918861403,0.13461120863406828,0.5309608205993448,0.24904142758781517,0.10859004604537348,0.8247114522576213,0.14456247277274656,0.16484014912138323,0.5528848158761811,0.2472031962497424,0.10074417701526239,0.8196528881630895,0.14782203108899541,0.15257364555546477,0.340178129270407,0.22445696963649323,0.16175575275048942,0.8459880659904228,0.13029225819220683,0.1117316310944827,0.7607932068386359,0.18198690326682054,0.1414514489152256
1.0,0.0,1.0,0.0,1.0,0.0,1.0,0.0,,,,left,2.786438000039197,56.96560740005225,oy13,56.96560740005225,None,45.817298399982974,49.314917400013655,True,2.0,['r'],True,0.6,0.6,0.0,0.0,2.0,0.6126016192893442,0.0858461728395062,unsucc_cost,0.0,0.0,55.782021400053054,None,oy13,1,2022-04-08_14h45.22.479,threat_forest,2021.2.3,60.12090311892305,True,47.0,0.6333333333333333,0.4555555555555555,-0.0777777777777778,-0.6330246913580249,1,1,1,1.0247640776594058,0.0858461728395062,0.6,0.6,0.6,1.0,0.3999999999999999,0.3999999999999999,2.4,2.4,1.0,2.0,-1.0,2.0,0,1,1,0.4108993356034028,0.24206107160408494,0.09879970680196948,0.484131525740689,0.24974819152468158,0.1277714299754913,0.45912151163037,0.24832894918861403,0.13461120863406828,0.5309608205993448,0.24904142758781517,0.10859004604537348,0.8247114522576213,0.14456247277274656,0.16484014912138323,0.5528848158761811,0.2472031962497424,0.10074417701526239,0.8196528881630895,0.14782203108899541,0.15257364555546477,0.340178129270407,0.22445696963649323,0.16175575275048942,0.8459880659904228,0.13029225819220683,0.1117316310944827,0.6571338339503475,0.22530895822806463,0.16237120744662709
2.0,0.0,2.0,0.0,0.0,0.0,0.0,0.0,64.74213180004153,68.24855769996066,None,left,1.260623599984683,69.40948999999091,oy13,64.74213180004153,68.24855769996066,69.40948999999091,None,False,4.0,['p'],False,0.1975308641975308,0.2222222222222222,0.1111111111111111,1.0,1.0,0.7461067557824965,0.0005623829220521,wait_cost,1.0,3.0,,,oy13,1,2022-04-08_14h45.22.479,threat_forest,2021.2.3,60.12090311892305,False,5.0,0.4444444444444444,0.5388888888888889,-1.259259259259259,-0.6685185185185185,0,0,0,0.2316065191533342,0.0005623829220521,0.1975308641975308,0.1975308641975308,0.2222222222222222,0.8888888888888888,-1.6666666666666667,-1.5185185185185184,2.481481481481482,2.481481481481482,0.0,1.0,-1.0,4.0,0,0,0,0.4010782089690845,0.24021447925923595,0.16761524861142085,0.435919651023606,0.24589370887506354,0.12881614494853982,0.45912151163037,0.24832894918861403,0.13461120863406828,0.25253722892834385,0.1887621769335371,0.17359835881746974,0.21360736468119199,0.16797925843514824,0.15310055227173877,0.23295490694687723,0.178686918276249,0.16766322273921155,0.18193523132674985,0.14883480292883186,0.15219924331005824,0.340178129270407,0.22445696963649323,0.16175575275048942,0.1406158735590698,0.1208430496622895,0.10131660978378806,0.24722092734457415,0.18610274042746294,0.14343894280562933
2.0,0.0,2.0,0.0,1.0,0.0,1.0,0.0,,,,left,1.0269688999978823,76.11826350004412,oy13,76.11826350004412,None,70.69947730004787,72.69942329998594,True,3.0,['p'],True,0.4444444444444445,0.6666666666666666,0.3333333333333333,1.0,1.0,0.9656336071428248,0.0515398167286913,succ_gain,0.0,4.0,72.69942329998594,None,oy13,1,2022-04-08_14h45.22.479,threat_forest,2021.2.3,60.12090311892305,True,5.0,0.4444444444444444,0.5388888888888889,-1.259259259259259,-0.6685185185185185,0,0,1,0.0266116481099867,0.0515398167286913,0.4444444444444445,0.4444444444444445,0.6666666666666666,0.6666666666666667,-1.0,-1.0,2.0,2.0,1.0,1.0,-1.0,3.0,0,0,0,0.4108993356034028,0.24206107160408494,0.09879970680196948,0.34384053641671664,0.22561422193338118,0.13431267602147556,0.45912151163037,0.24832894918861403,0.13461120863406828,0.583553325788417,0.2430188417496947,0.11508511921917286,0.40532074406837415,0.24103583849623367,0.11647491075561996,0.23295490694687723,0.178686918276249,0.16766322273921155,0.5860855267004499,0.24258928209270608,0.11754001787035417,0.340178129270407,0.22445696963649323,0.16175575275048942,0.5855101585555698,0.24268801278380128,0.2356154649200128,0.4852402845473072,0.2497821507997555,0.17418905125736678
2.0,0.0,2.0,0.0,2.0,0.0,2.0,0.0,,,,left,1.4079365000361577,81.09296100004576,oy13,77.16608610004187,79.16588059999049,81.09296100004576,None,False,4.0,['p'],False,0.1975308641975308,0.2222222222222222,0.1111111111111111,1.0,1.0,0.7461067557824965,0.0003541733178702,wait_cost,1.0,3.0,79.16588059999049,None,oy13,1,2022-04-08_14h45.22.479,threat_forest,2021.2.3,60.12090311892305,False,5.0,0.4444444444444444,0.5388888888888889,-1.259259259259259,-0.6685185185185185,0,0,0,0.3421251573127038,0.0003541733178702,0.1975308641975308,0.1975308641975308,0.2222222222222222,0.8888888888888888,-1.6666666666666667,-1.5185185185185184,2.481481481481482,2.481481481481482,0.0,1.0,1.0,4.0,0,0,0,0.4010782089690845,0.24021447925923595,0.16761524861142085,0.435919651023606,0.24589370887506354,0.12881614494853982,0.1384620395021216,0.11929030311903452,0.11725343518207175,0.25253722892834385,0.1887621769335371,0.17359835881746974,0.21360736468119199,0.16797925843514824,0.15310055227173877,0.23295490694687723,0.178686918276249,0.16766322273921155,0.18193523132674985,0.14883480292883186,0.15219924331005824,0.340178129270407,0.22445696963649323,0.16175575275048942,0.1406158735590698,0.1208430496622895,0.10131660978378806,0.24642031643298434,0.1856973440820522,0.1432431812319207
2.0,0.0,2.0,0.0,3.0,0.0,3.0,0.0,,,,left,1.366960100014694,88.34091390005779,oy13,77.16608610004187,79.16588059999049,88.34091390005779,None,False,3.0,['p'],False,0.1975308641975308,0.2222222222222222,0.1111111111111111,1.0,1.0,0.7461067557824965,0.022924045713029,wait_cost,1.0,2.0,84.53291850001551,None,oy13,1,2022-04-08_14h45.22.479,threat_forest,2021.2.3,60.12090311892305,False,5.0,0.4444444444444444,0.5388888888888889,-1.259259259259259,-0.6685185185185185,0,0,0,0.3125893693236578,0.022924045713029,0.1975308641975308,0.1975308641975308,0.2222222222222222,0.8888888888888888,-1.6666666666666667,-1.5185185185185184,1.4814814814814816,1.4814814814814816,0.0,1.0,-1.0,3.0,0,0,0,0.4010782089690845,0.24021447925923595,0.16761524861142085,0.435919651023606,0.24589370887506354,0.12881614494853982,0.45912151163037,0.24832894918861403,0.13461120863406828,0.25253722892834385,0.1887621769335371,0.17359835881746974,0.21360736468119199,0.16797925843514824,0.15310055227173877,0.23295490694687723,0.178686918276249,0.16766322273921155,0.18193523132674985,0.14883480292883186,0.15219924331005824,0.340178129270407,0.22445696963649323,0.16175575275048942,0.1406158735590698,0.1208430496622895,0.10131660978378806,0.34277465717998334,0.22528019157512824,0.16235731633657416
2.0,0.0,2.0,0.0,4.0,0.0,4.0,0.0,,,,left,0.973344499943778,94.521161200013,oy13,94.521161200013,None,89.73318290000316,91.73289039998781,True,2.0,['p'],True,0.4444444444444445,0.6666666666666666,0.3333333333333333,1.0,1.0,0.9656336071428248,0.084980270622703,figh_cost,0.0,0.0,91.7328903999878,None,oy13,1,2022-04-08_14h45.22.479,threat_forest,2021.2.3,60.12090311892305,True,5.0,0.4444444444444444,0.5388888888888889,-1.259259259259259,-0.6685185185185185,0,0,1,-0.027017199908751,0.084980270622703,0.4444444444444445,0.4444444444444445,0.6666666666666666,0.6666666666666667,-1.0,-1.0,1.0,1.0,1.0,1.0,-1.0,2.0,0,0,0,0.4108993356034028,0.24206107160408494,0.09879970680196948,0.34384053641671664,0.22561422193338118,0.13431267602147556,0.45912151163037,0.24832894918861403,0.13461120863406828,0.583553325788417,0.2430188417496947,0.11508511921917286,0.40532074406837415,0.24103583849623367,0.11647491075561996,0.23295490694687723,0.178686918276249,0.16766322273921155,0.5860855267004499,0.24258928209270608,0.11754001787035417,0.340178129270407,0.22445696963649323,0.16175575275048942,0.5855101585555698,0.24268801278380128,0.2356154649200128,0.6530871355893924,0.22656432891703499,0.16297741257018722
3.0,0.0,3.0,0.0,0.0,0.0,0.0,0.0,100.38583299994934,103.88007209997158,None,right,1.4056967000942675,105.04141039995012,oy13,100.38583299994934,103.88007209997158,105.04141039995012,None,True,5.0,['p'],False,0.32,0.4,0.2,1.0,1.0,0.9455672104350704,0.029786704162101,succ_gain,1.0,6.0,,,oy13,1,2022-04-08_14h45.22.479,threat_forest,2021.2.3,60.12090311892305,True,48.0,0.3111111111111111,0.3777777777777777,-1.3792592592592592,-1.3192592592592591,1,0,1,0.3405330518350554,0.029786704162101,0.32,0.32,0.4,0.8,-1.4,-1.24,3.76,3.76,0.0,1.0,-1.0,5.0,0,0,1,0.4010782089690845,0.24021447925923595,0.16761524861142085,0.39816098142920103,0.2396288142965364,0.13051417546669675,0.45912151163037,0.24832894918861403,0.13461120863406828,0.3737588948799405,0.2340631833780661,0.12474337200406477,0.2818451590184271,0.20240846535630466,0.13584007019984068,0.5528848158761811,0.2472031962497424,0.10074417701526239,0.3577492256843884,0.2297647172066089,0.1222810125355416,0.340178129270407,0.22445696963649323,0.16175575275048942,0.32278616407999156,0.21859525635851632,0.2090601644619634,0.37542697200155417,0.23448156069529838,0.16680055939890015
3.0,0.0,3.0,0.0,1.0,0.0,1.0,0.0,,,,right,1.2238119998946786,111.84162770002148,oy13,111.84162770002148,None,106.46663090004586,108.46627720003016,False,6.0,['p'],True,0.1975308641975308,0.2222222222222222,0.1111111111111111,1.0,1.0,0.7461067557824965,-0.1509253795256747,wait_cost,0.0,5.0,108.46627720003016,None,oy13,1,2022-04-08_14h45.22.479,threat_forest,2021.2.3,60.12090311892305,False,48.0,0.3111111111111111,0.3777777777777777,-1.3792592592592592,-1.3192592592592591,0,0,0,0.2019705774359475,-0.1509253795256747,0.1975308641975308,0.1975308641975308,0.2222222222222222,0.8888888888888888,-1.6666666666666667,-1.5185185185185184,4.481481481481482,4.481481481481482,1.0,1.0,1.0,6.0,0,0,0,0.4108993356034028,0.24206107160408494,0.09879970680196948,0.435919651023606,0.24589370887506354,0.12881614494853982,0.1384620395021216,0.11929030311903452,0.11725343518207175,0.25253722892834385,0.1887621769335371,0.17359835881746974,0.21360736468119199,0.16797925843514824,0.15310055227173877,0.23295490694687723,0.178686918276249,0.16766322273921155,0.18193523132674985,0.14883480292883186,0.15219924331005824,0.340178129270407,0.22445696963649323,0.16175575275048942,0.1406158735590698,0.1208430496622895,0.10131660978378806,0.014106533056170852,0.013907538781306013,0.060287715516753104
3.0,0.0,3.0,0.0,2.0,0.0,2.0,0.0,,,,right,2.707867599907331,117.4558420999674,oy13,117.4558420999674,None,106.46663090004586,108.46627720003016,False,5.0,['p'],True,0.1975308641975308,0.2222222222222222,0.1111111111111111,1.0,1.0,0.7461067557824965,-0.0374626039229961,wait_cost,0.0,4.0,115.08306690002792,None,oy13,1,2022-04-08_14h45.22.479,threat_forest,2021.2.3,60.12090311892305,False,48.0,0.3111111111111111,0.3777777777777777,-1.3792592592592592,-1.3192592592592591,0,0,0,0.9961614616492012,-0.0374626039229961,0.1975308641975308,0.1975308641975308,0.2222222222222222,0.8888888888888888,-1.6666666666666667,-1.5185185185185184,3.481481481481482,3.481481481481482,1.0,1.0,-1.0,5.0,0,0,0,0.4108993356034028,0.24206107160408494,0.09879970680196948,0.435919651023606,0.24589370887506354,0.12881614494853982,0.45912151163037,0.24832894918861403,0.13461120863406828,0.25253722892834385,0.1887621769335371,0.17359835881746974,0.21360736468119199,0.16797925843514824,0.15310055227173877,0.23295490694687723,0.178686918276249,0.16766322273921155,0.18193523132674985,0.14883480292883186,0.15219924331005824,0.340178129270407,0.22445696963649323,0.16175575275048942,0.1406158735590698,0.1208430496622895,0.10131660978378806,0.13010731059859815,0.11317939832739805,0.10822503826206854
3.0,0.0,3.0,0.0,3.0,0.0,3.0,0.0,,,,right,1.7856046999804676,123.64006989996416,oy13,123.64006989996416,None,106.46663090004586,108.46627720003016,False,4.0,['p'],True,0.1975308641975308,0.2222222222222222,0.1111111111111111,1.0,1.0,0.7461067557824965,-0.0434061105028649,wait_cost,0.0,3.0,122.18337109999266,None,oy13,1,2022-04-08_14h45.22.479,threat_forest,2021.2.3,60.12090311892305,False,48.0,0.3111111111111111,0.3777777777777777,-1.3792592592592592,-1.3192592592592591,0,0,0,0.5797571253589106,-0.0434061105028649,0.1975308641975308,0.1975308641975308,0.2222222222222222,0.8888888888888888,-1.6666666666666667,-1.5185185185185184,2.481481481481482,2.481481481481482,1.0,1.0,-1.0,4.0,0,0,0,0.4108993356034028,0.24206107160408494,0.09879970680196948,0.435919651023606,0.24589370887506354,0.12881614494853982,0.45912151163037,0.24832894918861403,0.13461120863406828,0.25253722892834385,0.1887621769335371,0.17359835881746974,0.21360736468119199,0.16797925843514824,0.15310055227173877,0.23295490694687723,0.178686918276249,0.16766322273921155,0.18193523132674985,0.14883480292883186,0.15219924331005824,0.340178129270407,0.22445696963649323,0.16175575275048942,0.1406158735590698,0.1208430496622895,0.10131660978378806,0.11681454085239859,0.10316890389784189,0.1033910772130463
3.0,0.0,3.0,0.0,4.0,0.0,4.0,0.0,,,,right,1.6864843999501318,128.03768019995186,oy13,128.03768019995186,None,106.46663090004586,108.46627720003016,False,3.0,['p'],True,0.1975308641975308,0.2222222222222222,0.1111111111111111,1.0,1.0,0.7461067557824965,-0.0400814118594538,wait_cost,0.0,2.0,127.45007989997976,None,oy13,1,2022-04-08_14h45.22.479,threat_forest,2021.2.3,60.12090311892305,False,48.0,0.3111111111111111,0.3777777777777777,-1.3792592592592592,-1.3192592592592591,0,0,0,0.5226461255213357,-0.0400814118594538,0.1975308641975308,0.1975308641975308,0.2222222222222222,0.8888888888888888,-1.6666666666666667,-1.5185185185185184,1.4814814814814816,1.4814814814814816,1.0,1.0,-1.0,3.0,0,0,0,0.4108993356034028,0.24206107160408494,0.09879970680196948,0.435919651023606,0.24589370887506354,0.12881614494853982,0.45912151163037,0.24832894918861403,0.13461120863406828,0.25253722892834385,0.1887621769335371,0.17359835881746974,0.21360736468119199,0.16797925843514824,0.15310055227173877,0.23295490694687723,0.178686918276249,0.16766322273921155,0.18193523132674985,0.14883480292883186,0.15219924331005824,0.340178129270407,0.22445696963649323,0.16175575275048942,0.1406158735590698,0.1208430496622895,0.10131660978378806,0.12409844578166276,0.10869802153623846,0.10606102918070909
3.0,0.0,3.0,0.0,5.0,0.0,5.0,0.0,,,,right,1.674536900012754,133.621679999982,oy13,133.621679999982,None,106.46663090004586,108.46627720003016,False,2.0,['p'],True,0.1975308641975308,0.2222222222222222,0.1111111111111111,1.0,1.0,0.7461067557824965,-0.0612345679012346,wait_cost,0.0,1.0,131.75003480003215,None,oy13,1,2022-04-08_14h45.22.479,threat_forest,2021.2.3,60.12090311892305,False,48.0,0.3111111111111111,0.3777777777777777,-1.3792592592592592,-1.3192592592592591,0,0,0,0.5155366494457247,-0.0612345679012346,0.1975308641975308,0.1975308641975308,0.2222222222222222,0.8888888888888888,-1.6666666666666667,-1.5185185185185184,0.4814814814814816,0.4814814814814816,1.0,1.0,-1.0,2.0,0,0,0,0.4108993356034028,0.24206107160408494,0.09879970680196948,0.435919651023606,0.24589370887506354,0.12881614494853982,0.45912151163037,0.24832894918861403,0.13461120863406828,0.25253722892834385,0.1887621769335371,0.17359835881746974,0.21360736468119199,0.16797925843514824,0.15310055227173877,0.23295490694687723,0.178686918276249,0.16766322273921155,0.18193523132674985,0.14883480292883186,0.15219924331005824,0.340178129270407,0.22445696963649323,0.16175575275048942,0.1406158735590698,0.1208430496622895,0.10131660978378806,0.08380649239561562,0.07678296422795924,0.09064958821830951
3.0,0.0,3.0,0.0,6.0,0.0,6.0,0.0,,,,left,0.7408848999766633,138.7544753999682,oy13,138.7544753999682,None,106.46663090004586,108.46627720003016,True,1.0,['p'],True,0.1975308641975308,0.2222222222222222,0.1111111111111111,1.0,1.0,0.7461067557824965,0.1975308641975308,unsucc_cost,0.0,0.0,137.31651769997552,None,oy13,1,2022-04-08_14h45.22.479,threat_forest,2021.2.3,60.12090311892305,True,48.0,0.3111111111111111,0.3777777777777777,-1.3792592592592592,-1.3192592592592591,0,0,1,-0.299909996416879,0.1975308641975308,1.0,0.1975308641975308,0.2222222222222222,0.8888888888888888,-1.6666666666666667,-1.5185185185185184,-0.5185185185185184,0.0,1.0,1.0,-1.0,1.0,1,0,0,0.4108993356034028,0.24206107160408494,0.09879970680196948,0.435919651023606,0.24589370887506354,0.12881614494853982,0.45912151163037,0.24832894918861403,0.13461120863406828,0.25253722892834385,0.1887621769335371,0.17359835881746974,0.21360736468119199,0.16797925843514824,0.15310055227173877,0.23295490694687723,0.178686918276249,0.16766322273921155,0.18193523132674985,0.14883480292883186,0.15219924331005824,0.9302370987688143,0.06489603884299344,-0.10919059689863088,0.9944895223601536,0.005480112276027171,-0.025837685471537836,0.9507653221640407,0.04681062433434859,0.07617626478625271
4.0,0.0,4.0,0.0,0.0,0.0,0.0,0.0,143.62220880005043,147.1334257000126,None,right,0.9866712000221014,149.99061850004364,oy13,143.62220880005043,147.1334257000126,149.99061850004364,None,True,4.0,['r'],False,0.2222222222222222,0.6666666666666666,0.6666666666666666,2.0,1.0,0.77250688571426,0.0018129330221619,succ_gain,1.0,5.0,,,oy13,1,2022-04-08_14h45.22.479,threat_forest,2021.2.3,60.12090311892305,True,20.0,0.4583333333333333,0.3847222222222222,-1.625,-1.5021296296296296,0,0,1,-0.0134184257257012,0.0018129330221619,0.2222222222222222,0.2222222222222222,0.6666666666666666,0.3333333333333333,-2.0,-2.0,2.0,2.0,0.0,1.0,-1.0,4.0,0,0,0,0.4010782089690845,0.24021447925923595,0.16761524861142085,0.2263641180795737,0.17512340412563052,0.14799765482672422,0.45912151163037,0.24832894918861403,0.13461120863406828,0.583553325788417,0.2430188417496947,0.11508511921917286,0.14637712138690046,0.12495085972138507,0.17467208908587945,0.23295490694687723,0.178686918276249,0.16766322273921155,0.21112107878835465,0.16654896887959597,0.14565065729433604,0.340178129270407,0.22445696963649323,0.16175575275048942,0.16873457789736318,0.14026322011916187,0.12272173472364561,0.25206621609632124,0.18852883879920396,0.1446104798473429
4.0,0.0,4.0,0.0,1.0,0.0,1.0,0.0,,,,left,1.3269918999867514,155.01732270000502,oy13,143.62220880005043,147.1334257000126,155.01732270000502,None,False,5.0,['r'],False,0.2222222222222222,0.6666666666666666,0.6666666666666666,2.0,1.0,0.77250688571426,-0.0087425853564993,wait_cost,1.0,4.0,153.00001049996354,None,oy13,1,2022-04-08_14h45.22.479,threat_forest,2021.2.3,60.12090311892305,False,20.0,0.4583333333333333,0.3847222222222222,-1.625,-1.5021296296296296,0,0,0,0.2829146513274857,-0.0087425853564993,0.2222222222222222,0.2222222222222222,0.6666666666666666,0.3333333333333333,-2.0,-2.0,3.0,3.0,0.0,1.0,1.0,5.0,0,0,0,0.4010782089690845,0.24021447925923595,0.16761524861142085,0.2263641180795737,0.17512340412563052,0.14799765482672422,0.1384620395021216,0.11929030311903452,0.11725343518207175,0.583553325788417,0.2430188417496947,0.11508511921917286,0.14637712138690046,0.12495085972138507,0.17467208908587945,0.23295490694687723,0.178686918276249,0.16766322273921155,0.21112107878835465,0.16654896887959597,0.14565065729433604,0.340178129270407,0.22445696963649323,0.16175575275048942,0.16873457789736318,0.14026322011916187,0.12272173472364561,0.2131642847017312,0.1677252724293305,0.13456465941156087
4.0,0.0,4.0,0.0,2.0,0.0,2.0,0.0,,,,left,1.3987273999955503,159.1337199000409,oy13,143.62220880005043,147.1334257000126,159.1337199000409,None,False,4.0,['r'],False,0.2222222222222222,0.6666666666666666,0.6666666666666666,2.0,1.0,0.77250688571426,-0.0031369211276067,wait_cost,1.0,3.0,158.36720480001532,None,oy13,1,2022-04-08_14h45.22.479,threat_forest,2021.2.3,60.12090311892305,False,20.0,0.4583333333333333,0.3847222222222222,-1.625,-1.5021296296296296,0,0,0,0.3355628232269977,-0.0031369211276067,0.2222222222222222,0.2222222222222222,0.6666666666666666,0.3333333333333333,-2.0,-2.0,2.0,2.0,0.0,1.0,-1.0,4.0,0,0,0,0.4010782089690845,0.24021447925923595,0.16761524861142085,0.2263641180795737,0.17512340412563052,0.14799765482672422,0.45912151163037,0.24832894918861403,0.13461120863406828,0.583553325788417,0.2430188417496947,0.11508511921917286,0.14637712138690046,0.12495085972138507,0.17467208908587945,0.23295490694687723,0.178686918276249,0.16766322273921155,0.21112107878835465,0.16654896887959597,0.14565065729433604,0.340178129270407,0.22445696963649323,0.16175575275048942,0.16873457789736318,0.14026322011916187,0.12272173472364561,0.23325768636429314,0.1788485381162702,0.13993596583872764
4.0,0.0,4.0,0.0,3.0,0.0,3.0,0.0,,,,left,1.960010900045745,165.48600390006322,oy13,143.62220880005043,147.1334257000126,165.48600390006322,None,False,3.0,['r'],False,0.2222222222222222,0.6666666666666666,0.6666666666666666,2.0,1.0,0.77250688571426,0.0121876071673525,wait_cost,1.0,2.0,162.55035879998468,None,oy13,1,2022-04-08_14h45.22.479,threat_forest,2021.2.3,60.12090311892305,False,20.0,0.4583333333333333,0.3847222222222222,-1.625,-1.5021296296296296,0,0,0,0.6729500344747913,0.0121876071673525,0.2222222222222222,0.2222222222222222,0.6666666666666666,0.3333333333333333,-2.0,-2.0,1.0,1.0,0.0,1.0,-1.0,3.0,0,0,0,0.4010782089690845,0.24021447925923595,0.16761524861142085,0.2263641180795737,0.17512340412563052,0.14799765482672422,0.45912151163037,0.24832894918861403,0.13461120863406828,0.583553325788417,0.2430188417496947,0.11508511921917286,0.14637712138690046,0.12495085972138507,0.17467208908587945,0.23295490694687723,0.178686918276249,0.16766322273921155,0.21112107878835465,0.16654896887959597,0.14565065729433604,0.340178129270407,0.22445696963649323,0.16175575275048942,0.16873457789736318,0.14026322011916187,0.12272173472364561,0.2946242990105138,0.20782082144307717,0.15392637261519204
4.0,0.0,4.0,0.0,4.0,0.0,4.0,0.0,,,,left,1.5027776000788435,172.68552020005882,oy13,143.62220880005043,147.1334257000126,172.68552020005882,None,False,2.0,['r'],False,0.2222222222222222,0.6666666666666666,0.6666666666666666,2.0,1.0,0.77250688571426,0.0176718964334705,wait_cost,1.0,1.0,169.4674467999721,None,oy13,1,2022-04-08_14h45.22.479,threat_forest,2021.2.3,60.12090311892305,False,20.0,0.4583333333333333,0.3847222222222222,-1.625,-1.5021296296296296,0,0,0,0.4073151291493386,0.0176718964334705,0.2222222222222222,0.2222222222222222,0.6666666666666666,0.3333333333333333,-2.0,-2.0,0.0,0.0,0.0,1.0,-1.0,2.0,0,0,0,0.4010782089690845,0.24021447925923595,0.16761524861142085,0.2263641180795737,0.17512340412563052,0.14799765482672422,0.45912151163037,0.24832894918861403,0.13461120863406828,0.583553325788417,0.2430188417496947,0.11508511921917286,0.14637712138690046,0.12495085972138507,0.17467208908587945,0.23295490694687723,0.178686918276249,0.16766322273921155,0.21112107878835465,0.16654896887959597,0.14565065729433604,0.340178129270407,0.22445696963649323,0.16175575275048942,0.16873457789736318,0.14026322011916187,0.12272173472364561,0.3187351120358518,0.21714304039134485,0.15842797277125756
4.0,0.0,4.0,0.0,5.0,0.0,5.0,0.0,,,,left,0.8739971000468358,179.53956589999143,oy13,179.53956589999143,None,174.21742720005568,176.2175198000623,True,1.0,['r'],True,0.25,0.25,0.0,0.0,1.0,0.5118595071429148,0.0607638888888888,unsucc_cost,0.0,0.0,176.2175198000623,None,oy13,1,2022-04-08_14h45.22.479,threat_forest,2021.2.3,60.12090311892305,True,20.0,0.4583333333333333,0.3847222222222222,-1.625,-1.5021296296296296,1,0,1,-0.1346782213563215,0.0607638888888888,1.0,0.25,0.25,1.0,-1.25,-1.25,-0.25,0.0,1.0,1.0,-1.0,1.0,1,0,1,0.4108993356034028,0.24206107160408494,0.09879970680196948,0.484131525740689,0.24974819152468158,0.1277714299754913,0.45912151163037,0.24832894918861403,0.13461120863406828,0.2696853877452428,0.19695517938194085,0.16476259427283235,0.3255605562663437,0.21957088046989257,0.12723599288092557,0.5528848158761811,0.2472031962497424,0.10074417701526239,0.24788345009453736,0.18643724526376637,0.13829834452001782,0.9302370987688143,0.06489603884299344,-0.10919059689863088,0.9944895223601536,0.005480112276027171,-0.025837685471537836,0.5328868544456672,0.2489184548046695,0.17377198166826482
5.0,0.0,5.0,0.0,0.0,0.0,0.0,0.0,183.1317789000459,186.62332919996692,None,left,1.141901700058952,190.0247727000388,oy13,190.0247727000388,None,183.1317789000459,186.62332919996697,True,5.0,['p'],True,0.375,0.5,0.25,1.0,1.0,0.9850568223215076,0.037518611380037,succ_gain,0.0,6.0,,,oy13,1,2022-04-08_14h45.22.479,threat_forest,2021.2.3,60.12090311892305,True,9.0,0.4,0.4291666666666667,-1.3025,-1.46375,1,0,1,0.1326950305228087,0.037518611380037,0.375,0.375,0.5,0.75,-1.25,-1.125,3.875,3.875,1.0,1.0,-1.0,5.0,0,0,1,0.4108993356034028,0.24206107160408494,0.09879970680196948,0.37741302477722494,0.23497243350573072,0.13177623607886532,0.45912151163037,0.24832894918861403,0.13461120863406828,0.45114108705400685,0.24761280662573582,0.11013074599315947,0.3255605562663437,0.21957088046989257,0.12723599288092557,0.5528848158761811,0.2472031962497424,0.10074417701526239,0.45690352688773606,0.2481426940052839,0.1154870284328987,0.340178129270407,0.22445696963649323,0.16175575275048942,0.43515899067766395,0.24579564351006072,0.23904072960088915,0.41360673152194366,0.2425362031616785,0.17069006038411855
5.0,0.0,5.0,0.0,1.0,0.0,1.0,0.0,,,,right,1.1864031000295654,195.5207350000273,oy13,195.5207350000273,None,183.1317789000459,186.62332919996697,False,6.0,['p'],True,0.375,0.5,0.25,1.0,1.0,0.9850568223215076,-0.1193507232516357,wait_cost,0.0,5.0,193.1844492000528,None,oy13,1,2022-04-08_14h45.22.479,threat_forest,2021.2.3,60.12090311892305,False,9.0,0.4,0.4291666666666667,-1.3025,-1.46375,1,0,0,0.1709261248098213,-0.1193507232516357,0.375,0.375,0.5,0.75,-1.25,-1.125,4.875,4.875,1.0,1.0,1.0,6.0,0,0,1,0.4108993356034028,0.24206107160408494,0.09879970680196948,0.37741302477722494,0.23497243350573072,0.13177623607886532,0.1384620395021216,0.11929030311903452,0.11725343518207175,0.45114108705400685,0.24761280662573582,0.11013074599315947,0.3255605562663437,0.21957088046989257,0.12723599288092557,0.5528848158761811,0.2472031962497424,0.10074417701526239,0.45690352688773606,0.2481426940052839,0.1154870284328987,0.340178129270407,0.22445696963649323,0.16175575275048942,0.43515899067766395,0.24579564351006072,0.23904072960088915,0.026757718472256362,0.02604174297441584,0.06614719337203182
5.0,0.0,5.0,0.0,2.0,0.0,2.0,0.0,,,,left,1.6136331999441609,202.2518469999777,oy13,196.73476300004404,198.73422900005244,202.2518469999777,None,False,5.0,['p'],False,0.24,0.3,0.2,2.0,1.0,0.9003120349047065,-0.0389128717617186,wait_cost,1.0,4.0,198.73422900005244,None,oy13,1,2022-04-08_14h45.22.479,threat_forest,2021.2.3,60.12090311892305,False,9.0,0.4,0.4291666666666667,-1.3025,-1.46375,0,0,0,0.4784882825231474,-0.0389128717617186,0.24,0.24,0.3,0.8,-1.7,-1.48,3.52,3.52,0.0,1.0,-1.0,5.0,0,0,0,0.4010782089690845,0.24021447925923595,0.16761524861142085,0.39816098142920103,0.2396288142965364,0.13051417546669675,0.45912151163037,0.24832894918861403,0.13461120863406828,0.3023382940694649,0.21092985000863065,0.14969157482374762,0.2059823384542428,0.16355361469916463,0.1553192715276451,0.23295490694687723,0.178686918276249,0.16766322273921155,0.23417193862200686,0.1793354417840179,0.14092374450120532,0.340178129270407,0.22445696963649323,0.16175575275048942,0.19163554851496847,0.15491136506033565,0.13886708078532295,0.126749685588794,0.11068420279193586,0.10702013493656384
5.0,0.0,5.0,0.0,3.0,0.0,3.0,0.0,,,,left,1.632132799946703,207.2898567999946,oy13,196.73476300004404,198.73422900005244,207.2898567999946,None,False,4.0,['p'],False,0.24,0.3,0.2,2.0,1.0,0.9003120349047065,-0.0391069940625,wait_cost,1.0,3.0,205.8844214000273,None,oy13,1,2022-04-08_14h45.22.479,threat_forest,2021.2.3,60.12090311892305,False,9.0,0.4,0.4291666666666667,-1.3025,-1.46375,0,0,0,0.4898876257477138,-0.0391069940625,0.24,0.24,0.3,0.8,-1.7,-1.48,2.52,2.52,0.0,1.0,-1.0,4.0,0,0,0,0.4010782089690845,0.24021447925923595,0.16761524861142085,0.39816098142920103,0.2396288142965364,0.13051417546669675,0.45912151163037,0.24832894918861403,0.13461120863406828,0.3023382940694649,0.21092985000863065,0.14969157482374762,0.2059823384542428,0.16355361469916463,0.1553192715276451,0.23295490694687723,0.178686918276249,0.16766322273921155,0.23417193862200686,0.1793354417840179,0.14092374450120532,0.340178129270407,0.22445696963649323,0.16175575275048942,0.19163554851496847,0.15491136506033565,0.13886708078532295,0.12630592239744542,0.11035273636477592,0.10686007333229194
5.0,0.0,5.0,0.0,4.0,0.0,4.0,0.0,,,,left,1.6955731000052765,213.93978180002887,oy13,213.93978180002887,None,208.9515794999897,210.95098540000618,True,3.0,['p'],True,0.375,0.5,0.25,1.0,1.0,0.9850568223215076,0.0731003906249999,unsucc_cost,0.0,1.0,210.95098540000612,None,oy13,1,2022-04-08_14h45.22.479,threat_forest,2021.2.3,60.12090311892305,True,9.0,0.4,0.4291666666666667,-1.3025,-1.46375,1,0,1,0.5280207957829076,0.0731003906249999,0.375,0.375,0.5,0.75,-1.25,-1.125,1.875,1.875,1.0,1.0,-1.0,3.0,0,0,1,0.4108993356034028,0.24206107160408494,0.09879970680196948,0.37741302477722494,0.23497243350573072,0.13177623607886532,0.45912151163037,0.24832894918861403,0.13461120863406828,0.45114108705400685,0.24761280662573582,0.11013074599315947,0.3255605562663437,0.21957088046989257,0.12723599288092557,0.5528848158761811,0.2472031962497424,0.10074417701526239,0.45690352688773606,0.2481426940052839,0.1154870284328987,0.340178129270407,0.22445696963649323,0.16175575275048942,0.43515899067766395,0.24579564351006072,0.23904072960088915,0.5955385566900395,0.2408723841855841,0.16988661993672988
5.0,0.0,5.0,0.0,5.0,0.0,5.0,0.0,,,,left,0.9527132000075652,220.1689731000224,oy13,220.1689731000224,None,208.9515794999897,210.95098540000618,True,1.0,['p'],True,0.375,0.5,0.25,1.0,1.0,0.9850568223215076,0.1279687499999999,succ_gain,0.0,2.0,217.66793090000283,None,oy13,1,2022-04-08_14h45.22.479,threat_forest,2021.2.3,60.12090311892305,True,9.0,0.4,0.4291666666666667,-1.3025,-1.46375,1,0,1,-0.0484413649989923,0.1279687499999999,1.0,0.375,0.5,0.75,-1.25,-1.125,-0.125,0.0,1.0,1.0,-1.0,1.0,1,0,1,0.4108993356034028,0.24206107160408494,0.09879970680196948,0.37741302477722494,0.23497243350573072,0.13177623607886532,0.45912151163037,0.24832894918861403,0.13461120863406828,0.45114108705400685,0.24761280662573582,0.11013074599315947,0.3255605562663437,0.21957088046989257,0.12723599288092557,0.5528848158761811,0.2472031962497424,0.10074417701526239,0.45690352688773606,0.2481426940052839,0.1154870284328987,0.9302370987688143,0.06489603884299344,-0.10919059689863088,0.9944895223601536,0.005480112276027171,-0.025837685471537836,0.8208069532261033,0.1470828987617848,0.12459667721343257
5.0,0.0,5.0,0.0,6.0,0.0,6.0,0.0,,,,left,1.5466072000563145,225.0115006000269,oy13,221.15174859995025,223.15157290000934,225.0115006000269,None,False,2.0,['p'],False,0.24,0.3,0.2,2.0,1.0,0.9003120349047065,-0.0675,wait_cost,1.0,1.0,223.1515729000093,None,oy13,1,2022-04-08_14h45.22.479,threat_forest,2021.2.3,60.12090311892305,False,9.0,0.4,0.4291666666666667,-1.3025,-1.46375,0,0,0,0.4360636285914498,-0.0675,0.24,0.24,0.3,0.8,-1.7,-1.48,0.52,0.52,0.0,1.0,1.0,2.0,0,0,0,0.4010782089690845,0.24021447925923595,0.16761524861142085,0.39816098142920103,0.2396288142965364,0.13051417546669675,0.1384620395021216,0.11929030311903452,0.11725343518207175,0.3023382940694649,0.21092985000863065,0.14969157482374762,0.2059823384542428,0.16355361469916463,0.1553192715276451,0.23295490694687723,0.178686918276249,0.16766322273921155,0.23417193862200686,0.1793354417840179,0.14092374450120532,0.340178129270407,0.22445696963649323,0.16175575275048942,0.19163554851496847,0.15491136506033565,0.13886708078532295,0.07437747998468627,0.06884547045581388,0.08681665708874207
5.0,0.0,5.0,0.0,7.0,0.0,7.0,0.0,,,,right,1.3137833999935538,229.6385698999511,oy13,221.15174859995025,223.15157290000934,229.6385698999511,None,True,1.0,['p'],False,0.24,0.3,0.2,2.0,1.0,0.9003120349047065,0.24,unsucc_cost,1.0,0.0,228.58484829997172,None,oy13,1,2022-04-08_14h45.22.479,threat_forest,2021.2.3,60.12090311892305,True,9.0,0.4,0.4291666666666667,-1.3025,-1.46375,0,0,1,0.2729110662872276,0.24,1.0,0.24,0.3,0.8,-1.7,-1.48,-0.48,0.0,0.0,1.0,-1.0,1.0,1,0,0,0.4010782089690845,0.24021447925923595,0.16761524861142085,0.39816098142920103,0.2396288142965364,0.13051417546669675,0.45912151163037,0.24832894918861403,0.13461120863406828,0.3023382940694649,0.21092985000863065,0.14969157482374762,0.2059823384542428,0.16355361469916463,0.1553192715276451,0.23295490694687723,0.178686918276249,0.16766322273921155,0.23417193862200686,0.1793354417840179,0.14092374450120532,0.9302370987688143,0.06489603884299344,-0.10919059689863088,0.9944895223601536,0.005480112276027171,-0.025837685471537836,0.9789403971651983,0.02061609596324216,0.06352720626726698
6.0,0.0,6.0,0.0,0.0,0.0,0.0,0.0,235.245657499996,238.75194129999727,None,right,0.8443676999304444,241.0909089000197,oy13,235.245657499996,238.75194129999727,241.0909089000197,None,True,4.0,['p'],False,0.4444444444444445,0.6666666666666666,0.3333333333333333,1.0,1.0,0.9656336071428248,0.045641051707109,succ_gain,1.0,5.0,,,oy13,1,2022-04-08_14h45.22.479,threat_forest,2021.2.3,60.12090311892305,True,39.0,0.4333333333333333,0.4166666666666667,-1.2000000000000002,-1.2512500000000002,1,1,1,-0.1691672158352382,0.045641051707109,0.4444444444444445,0.4444444444444445,0.6666666666666666,0.6666666666666667,-1.0,-1.0,3.0,3.0,0.0,1.0,-1.0,4.0,0,1,1,0.4010782089690845,0.24021447925923595,0.16761524861142085,0.34384053641671664,0.22561422193338118,0.13431267602147556,0.45912151163037,0.24832894918861403,0.13461120863406828,0.583553325788417,0.2430188417496947,0.11508511921917286,0.40532074406837415,0.24103583849623367,0.11647491075561996,0.5528848158761811,0.2472031962497424,0.10074417701526239,0.5860855267004499,0.24258928209270608,0.11754001787035417,0.340178129270407,0.22445696963649323,0.16175575275048942,0.5855101585555698,0.24268801278380128,0.2356154649200128,0.4548562853420812,0.24796204502688446,0.17331014158181846
6.0,0.0,6.0,0.0,1.0,0.0,1.0,0.0,,,,right,1.5455509000457823,246.1151696000016,oy13,246.1151696000016,None,241.95200970000587,243.95180669997353,False,5.0,['p'],True,0.2,0.2,0.0,0.0,1.0,0.4554859150035951,0.0004162250842519,wait_cost,0.0,4.0,243.9518066999736,None,oy13,1,2022-04-08_14h45.22.479,threat_forest,2021.2.3,60.12090311892305,False,39.0,0.4333333333333333,0.4166666666666667,-1.2000000000000002,-1.2512500000000002,0,0,0,0.435380416402794,0.0004162250842519,0.2,0.2,0.2,1.0,-1.4,-1.4,3.6,3.6,1.0,1.0,1.0,5.0,0,0,0,0.4108993356034028,0.24206107160408494,0.09879970680196948,0.484131525740689,0.24974819152468158,0.1277714299754913,0.1384620395021216,0.11929030311903452,0.11725343518207175,0.23934916851242272,0.1820611440448346,0.1808251049564243,0.2818451590184271,0.20240846535630466,0.13584007019984068,0.23295490694687723,0.178686918276249,0.16766322273921155,0.18470654558217015,0.15059003760127188,0.15155036685365608,0.340178129270407,0.22445696963649323,0.16175575275048942,0.14324102480671722,0.12272303361903866,0.10338874872656975,0.24665873624117057,0.18581820407707922,0.1433015432351621
6.0,0.0,6.0,0.0,2.0,0.0,2.0,0.0,,,,right,1.6893978000152856,252.6550088999793,oy13,252.6550088999793,None,241.95200970000587,243.95180669997353,False,4.0,['p'],True,0.2,0.2,0.0,0.0,1.0,0.4554859150035951,0.0025250114311842,wait_cost,0.0,3.0,249.6853398999665,None,oy13,1,2022-04-08_14h45.22.479,threat_forest,2021.2.3,60.12090311892305,False,39.0,0.4333333333333333,0.4166666666666667,-1.2000000000000002,-1.2512500000000002,0,0,0,0.5243721340819785,0.0025250114311842,0.2,0.2,0.2,1.0,-1.4,-1.4,2.6,2.6,1.0,1.0,-1.0,4.0,0,0,0,0.4108993356034028,0.24206107160408494,0.09879970680196948,0.484131525740689,0.24974819152468158,0.1277714299754913,0.45912151163037,0.24832894918861403,0.13461120863406828,0.23934916851242272,0.1820611440448346,0.1808251049564243,0.2818451590184271,0.20240846535630466,0.13584007019984068,0.23295490694687723,0.178686918276249,0.16766322273921155,0.18470654558217015,0.15059003760127188,0.15155036685365608,0.340178129270407,0.22445696963649323,0.16175575275048942,0.14324102480671722,0.12272303361903866,0.10338874872656975,0.2548531570133006,0.18990302537365453,0.1452740598954343
6.0,0.0,6.0,0.0,3.0,0.0,3.0,0.0,,,,right,1.58994860004168,259.5884806000395,oy13,259.5884806000395,None,241.95200970000587,243.95180669997353,False,3.0,['p'],True,0.2,0.2,0.0,0.0,1.0,0.4554859150035951,0.036599451303155,wait_cost,0.0,2.0,256.36859379999805,None,oy13,1,2022-04-08_14h45.22.479,threat_forest,2021.2.3,60.12090311892305,False,39.0,0.4333333333333333,0.4166666666666667,-1.2000000000000002,-1.2512500000000002,0,0,0,0.4637016886917995,0.036599451303155,0.2,0.2,0.2,1.0,-1.4,-1.4,1.6,1.6,1.0,1.0,-1.0,3.0,0,0,0,0.4108993356034028,0.24206107160408494,0.09879970680196948,0.484131525740689,0.24974819152468158,0.1277714299754913,0.45912151163037,0.24832894918861403,0.13461120863406828,0.23934916851242272,0.1820611440448346,0.1808251049564243,0.2818451590184271,0.20240846535630466,0.13584007019984068,0.23295490694687723,0.178686918276249,0.16766322273921155,0.18470654558217015,0.15059003760127188,0.15155036685365608,0.340178129270407,0.22445696963649323,0.16175575275048942,0.14324102480671722,0.12272303361903866,0.10338874872656975,0.40900328510069106,0.24171959787753386,0.17029573039734727
6.0,0.0,6.0,0.0,4.0,0.0,4.0,0.0,,,,right,1.6400705999694765,263.8722571999533,oy13,261.20222089998424,263.2024451000616,263.8722571999533,None,True,2.0,['p'],False,0.4444444444444445,0.6666666666666666,0.3333333333333333,1.0,1.0,0.9656336071428248,0.0928875171467763,figh_cost,1.0,0.0,263.2024451000616,None,oy13,1,2022-04-08_14h45.22.479,threat_forest,2021.2.3,60.12090311892305,True,39.0,0.4333333333333333,0.4166666666666667,-1.2000000000000002,-1.2512500000000002,1,1,1,0.4947392896714115,0.0928875171467763,0.4444444444444445,0.4444444444444445,0.6666666666666666,0.6666666666666667,-1.0,-1.0,1.0,1.0,0.0,1.0,-1.0,2.0,0,1,1,0.4010782089690845,0.24021447925923595,0.16761524861142085,0.34384053641671664,0.22561422193338118,0.13431267602147556,0.45912151163037,0.24832894918861403,0.13461120863406828,0.583553325788417,0.2430188417496947,0.11508511921917286,0.40532074406837415,0.24103583849623367,0.11647491075561996,0.5528848158761811,0.2472031962497424,0.10074417701526239,0.5860855267004499,0.24258928209270608,0.11754001787035417,0.340178129270407,0.22445696963649323,0.16175575275048942,0.5855101585555698,0.24268801278380128,0.2356154649200128,0.6891595200828243,0.21421867596203562,0.15701582836181766
7.0,0.0,7.0,0.0,0.0,0.0,0.0,0.0,269.64480360003654,273.1522430999903,None,left,1.084747500019148,275.60886389994994,oy13,275.60886389994994,None,269.64480360003654,273.1522430999903,True,5.0,['r'],True,0.3333333333333333,0.3333333333333333,0.0,0.0,2.0,0.5793801642856949,0.0435920879685414,succ_gain,0.0,6.0,,,oy13,1,2022-04-08_14h45.22.479,threat_forest,2021.2.3,60.12090311892305,True,46.0,0.3666666666666667,0.4,-1.0533333333333337,-1.126666666666667,1,0,1,0.0813472410328219,0.0435920879685414,0.3333333333333333,0.3333333333333333,0.3333333333333333,1.0,-0.6666666666666669,-0.6666666666666669,4.333333333333333,4.333333333333333,1.0,2.0,-1.0,5.0,0,0,1,0.4108993356034028,0.24206107160408494,0.09879970680196948,0.484131525740689,0.24974819152468158,0.1277714299754913,0.45912151163037,0.24832894918861403,0.13461120863406828,0.3253044561447508,0.2194814669571187,0.14046906154993644,0.5191513982714595,0.24963322394424792,0.11216476159271663,0.5528848158761811,0.2472031962497424,0.10074417701526239,0.3810279602022749,0.2358456537463685,0.12003300740239302,0.340178129270407,0.22445696963649323,0.16175575275048942,0.34873743760219134,0.22711963721684905,0.21845583056658155,0.4443689376837563,0.24690518490556618,0.17279979509527194
7.0,0.0,7.0,0.0,1.0,0.0,1.0,0.0,,,,left,1.9683701999019831,281.9424701000098,oy13,276.71920140006114,278.71935400005896,281.9424701000098,None,False,6.0,['r'],False,0.24,0.4,0.4,2.0,2.0,0.9801625908629508,-0.1497080721646091,wait_cost,1.0,5.0,278.71935400005896,None,oy13,1,2022-04-08_14h45.22.479,threat_forest,2021.2.3,60.12090311892305,False,46.0,0.3666666666666667,0.4,-1.0533333333333337,-1.126666666666667,0,0,0,0.6772058906459416,-0.1497080721646091,0.24,0.24,0.4,0.6,-1.6,-1.4400000000000002,4.56,4.56,0.0,2.0,1.0,6.0,0,0,0,0.4010782089690845,0.24021447925923595,0.16761524861142085,0.31804474273328004,0.21689228435300176,0.13667666092230782,0.1384620395021216,0.11929030311903452,0.11725343518207175,0.3737588948799405,0.2340631833780661,0.12474337200406477,0.22946769845838036,0.1768122738225942,0.14867227415063794,0.23295490694687723,0.178686918276249,0.16766322273921155,0.23417193862200686,0.1793354417840179,0.14092374450120532,0.340178129270407,0.22445696963649323,0.16175575275048942,0.19163554851496847,0.15491136506033565,0.13886708078532295,0.014461031701857318,0.0142519102639752,0.06045400883476364
7.0,0.0,7.0,0.0,2.0,0.0,2.0,0.0,,,,right,1.5820448000449687,287.8550751999719,oy13,287.8550751999719,None,283.9360669000307,285.93564509996213,False,5.0,['r'],True,0.3333333333333333,0.3333333333333333,0.0,0.0,2.0,0.5793801642856949,0.0885027489711933,wait_cost,0.0,4.0,285.93564509996213,None,oy13,1,2022-04-08_14h45.22.479,threat_forest,2021.2.3,60.12090311892305,False,46.0,0.3666666666666667,0.4,-1.0533333333333337,-1.126666666666667,1,0,0,0.4587181875569938,0.0885027489711933,0.3333333333333333,0.3333333333333333,0.3333333333333333,1.0,-0.6666666666666669,-0.6666666666666669,4.333333333333333,4.333333333333333,1.0,2.0,-1.0,5.0,0,0,1,0.4108993356034028,0.24206107160408494,0.09879970680196948,0.484131525740689,0.24974819152468158,0.1277714299754913,0.45912151163037,0.24832894918861403,0.13461120863406828,0.3253044561447508,0.2194814669571187,0.14046906154993644,0.5191513982714595,0.24963322394424792,0.11216476159271663,0.5528848158761811,0.2472031962497424,0.10074417701526239,0.3810279602022749,0.2358456537463685,0.12003300740239302,0.340178129270407,0.22445696963649323,0.16175575275048942,0.34873743760219134,0.22711963721684905,0.21845583056658155,0.6694053946233985,0.2213018122724906,0.16043619938051196
7.0,0.0,7.0,0.0,3.0,0.0,3.0,0.0,,,,left,1.7840244000544772,292.0921693999553,oy13,289.4728697000537,291.4859340999974,292.0921693999553,None,False,4.0,['r'],False,0.24,0.4,0.4,2.0,2.0,0.9801625908629508,-0.0324772740740739,wait_cost,1.0,3.0,291.4859340999974,None,oy13,1,2022-04-08_14h45.22.479,threat_forest,2021.2.3,60.12090311892305,False,46.0,0.3666666666666667,0.4,-1.0533333333333337,-1.126666666666667,0,0,0,0.5788717112248675,-0.0324772740740739,0.24,0.24,0.4,0.6,-1.6,-1.4400000000000002,2.56,2.56,0.0,2.0,-1.0,4.0,0,0,0,0.4010782089690845,0.24021447925923595,0.16761524861142085,0.31804474273328004,0.21689228435300176,0.13667666092230782,0.45912151163037,0.24832894918861403,0.13461120863406828,0.3737588948799405,0.2340631833780661,0.12474337200406477,0.22946769845838036,0.1768122738225942,0.14867227415063794,0.23295490694687723,0.178686918276249,0.16766322273921155,0.23417193862200686,0.1793354417840179,0.14092374450120532,0.340178129270407,0.22445696963649323,0.16175575275048942,0.19163554851496847,0.15491136506033565,0.13886708078532295,0.14222980383657685,0.12200048673718573,0.11248464782311055
7.0,0.0,7.0,0.0,4.0,0.0,4.0,0.0,,,,left,1.8030352999921888,299.24106040003244,oy13,299.24106040003244,None,293.90277000004426,295.9020462000044,True,3.0,['r'],True,0.3333333333333333,0.3333333333333333,0.0,0.0,2.0,0.5793801642856949,0.2144444444444444,unsucc_cost,0.0,1.0,295.9020462000044,None,oy13,1,2022-04-08_14h45.22.479,threat_forest,2021.2.3,60.12090311892305,True,46.0,0.3666666666666667,0.4,-1.0533333333333337,-1.126666666666667,1,0,1,0.5894715225055026,0.2144444444444444,0.3333333333333333,0.3333333333333333,0.3333333333333333,1.0,-0.6666666666666669,-0.6666666666666669,2.333333333333333,2.333333333333333,1.0,2.0,-1.0,3.0,0,0,1,0.4108993356034028,0.24206107160408494,0.09879970680196948,0.484131525740689,0.24974819152468158,0.1277714299754913,0.45912151163037,0.24832894918861403,0.13461120863406828,0.3253044561447508,0.2194814669571187,0.14046906154993644,0.5191513982714595,0.24963322394424792,0.11216476159271663,0.5528848158761811,0.2472031962497424,0.10074417701526239,0.3810279602022749,0.2358456537463685,0.12003300740239302,0.340178129270407,0.22445696963649323,0.16175575275048942,0.34873743760219134,0.22711963721684905,0.21845583056658155,0.9647877774983129,0.03397232188817877,0.06997678539019819
7.0,0.0,7.0,0.0,5.0,0.0,5.0,0.0,,,,right,0.9946719999425112,305.3952993999701,oy13,301.0695831000339,303.0690240999684,305.3952993999701,None,True,1.0,['r'],False,0.24,0.4,0.4,2.0,2.0,0.9801625908629508,0.24,figh_cost,1.0,0.0,303.0690240999684,None,oy13,1,2022-04-08_14h45.22.479,threat_forest,2021.2.3,60.12090311892305,True,46.0,0.3666666666666667,0.4,-1.0533333333333337,-1.126666666666667,0,0,1,-0.0053422444684721,0.24,1.0,0.24,0.4,0.6,-1.6,-1.4400000000000002,-0.4400000000000001,0.0,0.0,2.0,-1.0,1.0,1,0,0,0.4010782089690845,0.24021447925923595,0.16761524861142085,0.31804474273328004,0.21689228435300176,0.13667666092230782,0.45912151163037,0.24832894918861403,0.13461120863406828,0.3737588948799405,0.2340631833780661,0.12474337200406477,0.22946769845838036,0.1768122738225942,0.14867227415063794,0.23295490694687723,0.178686918276249,0.16766322273921155,0.23417193862200686,0.1793354417840179,0.14092374450120532,0.9302370987688143,0.06489603884299344,-0.10919059689863088,0.9944895223601536,0.005480112276027171,-0.025837685471537836,0.9789403971651983,0.02061609596324216,0.06352720626726698
8.0,0.0,8.0,0.0,0.0,0.0,0.0,0.0,311.3310533000622,314.8360579999862,None,left,1.2932690000161529,318.4939874999691,oy13,311.3310533000622,314.8360579999862,318.4939874999691,None,False,5.0,['p'],False,0.375,0.5,0.25,1.0,1.0,0.9850568223215076,0.0361323788439721,wait_cost,1.0,4.0,,,oy13,1,2022-04-08_14h45.22.479,threat_forest,2021.2.3,60.12090311892305,False,69.0,0.3928571428571428,0.3797619047619047,-1.2665816326530612,-1.1599574829931971,1,0,0,0.2571731214743334,0.0361323788439721,0.375,0.375,0.5,0.75,-1.25,-1.125,3.875,3.875,0.0,1.0,-1.0,5.0,0,0,1,0.4010782089690845,0.24021447925923595,0.16761524861142085,0.37741302477722494,0.23497243350573072,0.13177623607886532,0.45912151163037,0.24832894918861403,0.13461120863406828,0.45114108705400685,0.24761280662573582,0.11013074599315947,0.3255605562663437,0.21957088046989257,0.12723599288092557,0.5528848158761811,0.2472031962497424,0.10074417701526239,0.45690352688773606,0.2481426940052839,0.1154870284328987,0.340178129270407,0.22445696963649323,0.16175575275048942,0.43515899067766395,0.24579564351006072,0.23904072960088915,0.40667008333417276,0.24128952665514974,0.17008805358858026
8.0,0.0,8.0,0.0,1.0,0.0,1.0,0.0,,,,right,1.341637899982743,323.78830899996683,oy13,311.3310533000622,314.8360579999862,323.78830899996683,None,True,4.0,['p'],False,0.375,0.5,0.25,1.0,1.0,0.9850568223215076,0.0514035096049941,succ_gain,1.0,5.0,321.81938899995293,None,oy13,1,2022-04-08_14h45.22.479,threat_forest,2021.2.3,60.12090311892305,True,69.0,0.3928571428571428,0.3797619047619047,-1.2665816326530612,-1.1599574829931971,1,0,1,0.2938911809659041,0.0514035096049941,0.375,0.375,0.5,0.75,-1.25,-1.125,2.875,2.875,0.0,1.0,-1.0,4.0,0,0,1,0.4010782089690845,0.24021447925923595,0.16761524861142085,0.37741302477722494,0.23497243350573072,0.13177623607886532,0.45912151163037,0.24832894918861403,0.13461120863406828,0.45114108705400685,0.24761280662573582,0.11013074599315947,0.3255605562663437,0.21957088046989257,0.12723599288092557,0.5528848158761811,0.2472031962497424,0.10074417701526239,0.45690352688773606,0.2481426940052839,0.1154870284328987,0.340178129270407,0.22445696963649323,0.16175575275048942,0.43515899067766395,0.24579564351006072,0.23904072960088915,0.4845360735955836,0.2497608669801588,0.17417877352776723
8.0,0.0,8.0,0.0,2.0,0.0,2.0,0.0,,,,left,1.828085600049235,327.9401541999541,oy13,311.3310533000622,314.8360579999862,327.9401541999541,None,False,5.0,['p'],False,0.375,0.5,0.25,1.0,1.0,0.9850568223215076,0.0667717868390274,wait_cost,1.0,4.0,327.1529023000039,None,oy13,1,2022-04-08_14h45.22.479,threat_forest,2021.2.3,60.12090311892305,False,69.0,0.3928571428571428,0.3797619047619047,-1.2665816326530612,-1.1599574829931971,1,0,0,0.603269299096014,0.0667717868390274,0.375,0.375,0.5,0.75,-1.25,-1.125,3.875,3.875,0.0,1.0,1.0,5.0,0,0,1,0.4010782089690845,0.24021447925923595,0.16761524861142085,0.37741302477722494,0.23497243350573072,0.13177623607886532,0.1384620395021216,0.11929030311903452,0.11725343518207175,0.45114108705400685,0.24761280662573582,0.11013074599315947,0.3255605562663437,0.21957088046989257,0.12723599288092557,0.5528848158761811,0.2472031962497424,0.10074417701526239,0.45690352688773606,0.2481426940052839,0.1154870284328987,0.340178129270407,0.22445696963649323,0.16175575275048942,0.43515899067766395,0.24579564351006072,0.23904072960088915,0.5636544412168225,0.2459481121133741,0.17233763484623613
8.0,0.0,8.0,0.0,3.0,0.0,3.0,0.0,,,,left,1.6983849999960512,332.33830990002025,oy13,311.3310533000622,314.8360579999862,332.33830990002025,None,False,4.0,['p'],False,0.375,0.5,0.25,1.0,1.0,0.9850568223215076,0.0767058090154061,wait_cost,1.0,3.0,331.7867878000252,None,oy13,1,2022-04-08_14h45.22.479,threat_forest,2021.2.3,60.12090311892305,False,69.0,0.3928571428571428,0.3797619047619047,-1.2665816326530612,-1.1599574829931971,1,0,0,0.5296777995238499,0.0767058090154061,0.375,0.375,0.5,0.75,-1.25,-1.125,2.875,2.875,0.0,1.0,-1.0,4.0,0,0,1,0.4010782089690845,0.24021447925923595,0.16761524861142085,0.37741302477722494,0.23497243350573072,0.13177623607886532,0.45912151163037,0.24832894918861403,0.13461120863406828,0.45114108705400685,0.24761280662573582,0.11013074599315947,0.3255605562663437,0.21957088046989257,0.12723599288092557,0.5528848158761811,0.2472031962497424,0.10074417701526239,0.45690352688773606,0.2481426940052839,0.1154870284328987,0.340178129270407,0.22445696963649323,0.16175575275048942,0.43515899067766395,0.24579564351006072,0.23904072960088915,0.61336648015492,0.23714804117728408,0.16808817439919826
8.0,0.0,8.0,0.0,4.0,0.0,4.0,0.0,,,,right,1.7897611999651415,337.3542390000075,oy13,311.3310533000622,314.8360579999862,337.3542390000075,None,True,3.0,['p'],False,0.375,0.5,0.25,1.0,1.0,0.9850568223215076,0.0723316171972615,unsucc_cost,1.0,1.0,336.0694316000445,None,oy13,1,2022-04-08_14h45.22.479,threat_forest,2021.2.3,60.12090311892305,True,69.0,0.3928571428571428,0.3797619047619047,-1.2665816326530612,-1.1599574829931971,1,0,1,0.582082203112343,0.0723316171972615,0.375,0.375,0.5,0.75,-1.25,-1.125,1.875,1.875,0.0,1.0,-1.0,3.0,0,0,1,0.4010782089690845,0.24021447925923595,0.16761524861142085,0.37741302477722494,0.23497243350573072,0.13177623607886532,0.45912151163037,0.24832894918861403,0.13461120863406828,0.45114108705400685,0.24761280662573582,0.11013074599315947,0.3255605562663437,0.21957088046989257,0.12723599288092557,0.5528848158761811,0.2472031962497424,0.10074417701526239,0.45690352688773606,0.2481426940052839,0.1154870284328987,0.340178129270407,0.22445696963649323,0.16175575275048942,0.43515899067766395,0.24579564351006072,0.23904072960088915,0.5917025648274621,0.24159063960406507,0.1702334578217733
8.0,0.0,8.0,0.0,5.0,0.0,5.0,0.0,,,,right,1.5203864999348298,341.7232351000421,oy13,311.3310533000622,314.8360579999862,341.7232351000421,None,True,1.0,['p'],False,0.375,0.5,0.25,1.0,1.0,0.9850568223215076,0.1284279336734693,figh_cost,1.0,0.0,341.16950550000183,None,oy13,1,2022-04-08_14h45.22.479,threat_forest,2021.2.3,60.12090311892305,True,69.0,0.3928571428571428,0.3797619047619047,-1.2665816326530612,-1.1599574829931971,1,0,1,0.418964578808367,0.1284279336734693,1.0,0.375,0.5,0.75,-1.25,-1.125,-0.125,0.0,0.0,1.0,-1.0,1.0,1,0,1,0.4010782089690845,0.24021447925923595,0.16761524861142085,0.37741302477722494,0.23497243350573072,0.13177623607886532,0.45912151163037,0.24832894918861403,0.13461120863406828,0.45114108705400685,0.24761280662573582,0.11013074599315947,0.3255605562663437,0.21957088046989257,0.12723599288092557,0.5528848158761811,0.2472031962497424,0.10074417701526239,0.45690352688773606,0.2481426940052839,0.1154870284328987,0.9302370987688143,0.06489603884299344,-0.10919059689863088,0.9944895223601536,0.005480112276027171,-0.025837685471537836,0.8221996778814687,0.14618736757307776,0.12416423474869147
9.0,0.0,9.0,0.0,0.0,0.0,0.0,0.0,347.5227593999589,351.0172431999817,None,left,1.574618099955842,353.1303178999806,oy13,347.5227593999589,351.01724319998175,353.1303178999806,None,False,5.0,['r'],False,0.28125,0.375,0.25,2.0,2.0,0.9634951148421658,-0.0048305423367587,wait_cost,1.0,4.0,,,oy13,1,2022-04-08_14h45.22.479,threat_forest,2021.2.3,60.12090311892305,False,10.0,0.3541666666666666,0.3735119047619047,-0.8958333333333335,-1.0812074829931977,0,0,0,0.454012766656972,-0.0048305423367587,0.28125,0.28125,0.375,0.75,-1.25,-1.125,3.875,3.875,0.0,2.0,-1.0,5.0,0,0,0,0.4010782089690845,0.24021447925923595,0.16761524861142085,0.37741302477722494,0.23497243350573072,0.13177623607886532,0.45912151163037,0.24832894918861403,0.13461120863406828,0.35522722046863736,0.2290408423067635,0.13015972863868744,0.3255605562663437,0.21957088046989257,0.12723599288092557,0.23295490694687723,0.178686918276249,0.16766322273921155,0.29407936372458066,0.20759669155592644,0.1304761047106811,0.340178129270407,0.22445696963649323,0.16175575275048942,0.2536395500779891,0.18930652871422438,0.17677780752036035,0.2270510042866341,0.17549884573906496,0.13831843509720815
9.0,0.0,9.0,0.0,1.0,0.0,1.0,0.0,,,,right,1.1801424000877887,358.7476043000352,oy13,347.5227593999589,351.01724319998175,358.7476043000352,None,True,4.0,['r'],False,0.28125,0.375,0.25,2.0,2.0,0.9634951148421658,0.0125198670204943,unsucc_cost,1.0,2.0,356.7367335000308,None,oy13,1,2022-04-08_14h45.22.479,threat_forest,2021.2.3,60.12090311892305,True,10.0,0.3541666666666666,0.3735119047619047,-0.8958333333333335,-1.0812074829931977,0,0,1,0.1656351092370633,0.0125198670204943,0.28125,0.28125,0.375,0.75,-1.25,-1.125,2.875,2.875,0.0,2.0,-1.0,4.0,0,0,0,0.4010782089690845,0.24021447925923595,0.16761524861142085,0.37741302477722494,0.23497243350573072,0.13177623607886532,0.45912151163037,0.24832894918861403,0.13461120863406828,0.35522722046863736,0.2290408423067635,0.13015972863868744,0.3255605562663437,0.21957088046989257,0.12723599288092557,0.23295490694687723,0.178686918276249,0.16766322273921155,0.29407936372458066,0.20759669155592644,0.1304761047106811,0.340178129270407,0.22445696963649323,0.16175575275048942,0.2536395500779891,0.18930652871422438,0.17677780752036035,0.2960545748946695,0.20840626357860603,0.15420907638167608
9.0,0.0,9.0,0.0,2.0,0.0,2.0,0.0,,,,left,1.1098243999294937,363.1566561999498,oy13,347.5227593999589,351.01724319998175,363.1566561999498,None,False,2.0,['r'],False,0.28125,0.375,0.25,2.0,2.0,0.9634951148421658,-0.0033863208912037,wait_cost,1.0,1.0,361.9535018999595,None,oy13,1,2022-04-08_14h45.22.479,threat_forest,2021.2.3,60.12090311892305,False,10.0,0.3541666666666666,0.3735119047619047,-0.8958333333333335,-1.0812074829931977,0,0,0,0.1042018045478604,-0.0033863208912037,0.28125,0.28125,0.375,0.75,-1.25,-1.125,0.875,0.875,0.0,2.0,-1.0,2.0,0,0,0,0.4010782089690845,0.24021447925923595,0.16761524861142085,0.37741302477722494,0.23497243350573072,0.13177623607886532,0.45912151163037,0.24832894918861403,0.13461120863406828,0.35522722046863736,0.2290408423067635,0.13015972863868744,0.3255605562663437,0.21957088046989257,0.12723599288092557,0.23295490694687723,0.178686918276249,0.16766322273921155,0.29407936372458066,0.20759669155592644,0.1304761047106811,0.340178129270407,0.22445696963649323,0.16175575275048942,0.2536395500779891,0.18930652871422438,0.17677780752036035,0.2323363367517664,0.17835616337653623,0.13969820332558253
9.0,0.0,9.0,0.0,3.0,0.0,3.0,0.0,,,,left,0.9966959999874234,367.12497400003485,oy13,367.12497400003485,None,364.2896616000217,366.3033366999589,True,1.0,['r'],True,0.3333333333333333,0.3333333333333333,0.0,0.0,2.0,0.5793801642856949,0.1605812355324073,unsucc_cost,0.0,0.0,366.3033366999589,None,oy13,1,2022-04-08_14h45.22.479,threat_forest,2021.2.3,60.12090311892305,True,10.0,0.3541666666666666,0.3735119047619047,-0.8958333333333335,-1.0812074829931977,1,0,1,-0.003309470273102,0.1605812355324073,1.0,0.3333333333333333,0.3333333333333333,1.0,-0.6666666666666669,-0.6666666666666669,0.3333333333333331,0.3333333333333331,1.0,2.0,-1.0,1.0,1,0,1,0.4108993356034028,0.24206107160408494,0.09879970680196948,0.484131525740689,0.24974819152468158,0.1277714299754913,0.45912151163037,0.24832894918861403,0.13461120863406828,0.3253044561447508,0.2194814669571187,0.14046906154993644,0.5191513982714595,0.24963322394424792,0.11216476159271663,0.5528848158761811,0.2472031962497424,0.10074417701526239,0.3810279602022749,0.2358456537463685,0.12003300740239302,0.9302370987688143,0.06489603884299344,-0.10919059689863088,0.9944895223601536,0.005480112276027171,-0.025837685471537836,0.8999249736514956,0.09006001544985046,0.09706093472113565
10.0,0.0,10.0,0.0,0.0,0.0,0.0,0.0,373.5917005999945,377.0870828999905,None,right,1.2832542000105605,377.8027702999534,oy13,377.8027702999534,None,373.5917005999945,377.0870828999905,False,5.0,['p'],True,0.18,0.2,0.1,1.0,1.0,0.7058405977926203,-0.0277547547885865,wait_cost,0.0,4.0,,,oy13,1,2022-04-08_14h45.22.479,threat_forest,2021.2.3,60.12090311892305,False,11.0,0.35,0.3520833333333333,-1.3425000000000002,-1.1191666666666669,0,0,0,0.2493991954009501,-0.0277547547885865,0.18,0.18,0.2,0.9,-1.7000000000000002,-1.5600000000000005,3.4399999999999995,3.4399999999999995,1.0,1.0,-1.0,5.0,0,0,0,0.4108993356034028,0.24206107160408494,0.09879970680196948,0.4407017796038115,0.24648372105784502,0.1286562286594643,0.45912151163037,0.24832894918861403,0.13461120863406828,0.23934916851242272,0.1820611440448346,0.1808251049564243,0.20598233845424274,0.16355361469916455,0.15531927152764513,0.23295490694687723,0.178686918276249,0.16766322273921155,0.16318497752298708,0.1365556406338093,0.15673861314059204,0.340178129270407,0.22445696963649323,0.16175575275048942,0.12311757861090937,0.10795964044789594,0.08711637480141093,0.15456846451300463,0.13067705429109666,0.11667446980342959
10.0,0.0,10.0,0.0,1.0,0.0,1.0,0.0,,,,right,0.9378249999135732,383.4584337000269,oy13,379.1039590999717,381.10374389996286,383.4584337000269,None,True,4.0,['p'],False,0.375,0.5,0.25,1.0,1.0,0.9850568223215076,0.0519862670288086,succ_gain,1.0,5.0,381.10374389996286,None,oy13,1,2022-04-08_14h45.22.479,threat_forest,2021.2.3,60.12090311892305,True,11.0,0.35,0.3520833333333333,-1.3425000000000002,-1.1191666666666669,0,1,1,-0.0641919146380664,0.0519862670288086,0.375,0.375,0.5,0.75,-1.25,-1.125,2.875,2.875,0.0,1.0,-1.0,4.0,0,1,0,0.4010782089690845,0.24021447925923595,0.16761524861142085,0.37741302477722494,0.23497243350573072,0.13177623607886532,0.45912151163037,0.24832894918861403,0.13461120863406828,0.45114108705400685,0.24761280662573582,0.11013074599315947,0.3255605562663437,0.21957088046989257,0.12723599288092557,0.23295490694687723,0.178686918276249,0.16766322273921155,0.45690352688773606,0.2481426940052839,0.1154870284328987,0.340178129270407,0.22445696963649323,0.16175575275048942,0.43515899067766395,0.24579564351006072,0.23904072960088915,0.4875472007094367,0.24984492778982895,0.1742193655966759
10.0,0.0,10.0,0.0,2.0,0.0,2.0,0.0,,,,right,1.387090599979274,387.6176116999704,oy13,387.6176116999704,None,384.4205451000016,386.4202322999481,False,5.0,['p'],True,0.18,0.2,0.1,1.0,1.0,0.7058405977926203,-0.0842478930175782,wait_cost,0.0,4.0,386.4202322999481,None,oy13,1,2022-04-08_14h45.22.479,threat_forest,2021.2.3,60.12090311892305,False,11.0,0.35,0.3520833333333333,-1.3425000000000002,-1.1191666666666669,0,0,0,0.3272084600207769,-0.0842478930175782,0.18,0.18,0.2,0.9,-1.7000000000000002,-1.5600000000000005,3.4399999999999995,3.4399999999999995,1.0,1.0,1.0,5.0,0,0,0,0.4108993356034028,0.24206107160408494,0.09879970680196948,0.4407017796038115,0.24648372105784502,0.1286562286594643,0.1384620395021216,0.11929030311903452,0.11725343518207175,0.23934916851242272,0.1820611440448346,0.1808251049564243,0.20598233845424274,0.16355361469916455,0.15531927152764513,0.23295490694687723,0.178686918276249,0.16766322273921155,0.16318497752298708,0.1365556406338093,0.15673861314059204,0.340178129270407,0.22445696963649323,0.16175575275048942,0.12311757861090937,0.10795964044789594,0.08711637480141093,0.05377193113489523,0.05088051055691932,0.0781415694584947
10.0,0.0,10.0,0.0,3.0,0.0,3.0,0.0,,,,right,1.280351100023836,393.8392400000012,oy13,393.8392400000012,None,384.4205451000016,386.4202322999481,False,4.0,['p'],True,0.18,0.2,0.1,1.0,1.0,0.7058405977926203,-0.0879811640625001,wait_cost,0.0,3.0,391.0540161000099,None,oy13,1,2022-04-08_14h45.22.479,threat_forest,2021.2.3,60.12090311892305,False,11.0,0.35,0.3520833333333333,-1.3425000000000002,-1.1191666666666669,0,0,0,0.2471343372126325,-0.0879811640625001,0.18,0.18,0.2,0.9,-1.7000000000000002,-1.5600000000000005,2.4399999999999995,2.4399999999999995,1.0,1.0,-1.0,4.0,0,0,0,0.4108993356034028,0.24206107160408494,0.09879970680196948,0.4407017796038115,0.24648372105784502,0.1286562286594643,0.45912151163037,0.24832894918861403,0.13461120863406828,0.23934916851242272,0.1820611440448346,0.1808251049564243,0.20598233845424274,0.16355361469916455,0.15531927152764513,0.23295490694687723,0.178686918276249,0.16766322273921155,0.16318497752298708,0.1365556406338093,0.15673861314059204,0.340178129270407,0.22445696963649323,0.16175575275048942,0.12311757861090937,0.10795964044789594,0.08711637480141093,0.049975628418234296,0.047478064982436875,0.07649856476035458
10.0,0.0,10.0,0.0,4.0,0.0,4.0,0.0,,,,right,1.8237395000178367,397.69487540004775,oy13,397.69487540004775,None,384.4205451000016,386.4202322999481,False,3.0,['p'],True,0.18,0.2,0.1,1.0,1.0,0.7058405977926203,-0.08106525,wait_cost,0.0,2.0,397.1376267999876,None,oy13,1,2022-04-08_14h45.22.479,threat_forest,2021.2.3,60.12090311892305,False,11.0,0.35,0.3520833333333333,-1.3425000000000002,-1.1191666666666669,0,0,0,0.6008890634800046,-0.08106525,0.18,0.18,0.2,0.9,-1.7000000000000002,-1.5600000000000005,1.4399999999999995,1.4399999999999995,1.0,1.0,-1.0,3.0,0,0,0,0.4108993356034028,0.24206107160408494,0.09879970680196948,0.4407017796038115,0.24648372105784502,0.1286562286594643,0.45912151163037,0.24832894918861403,0.13461120863406828,0.23934916851242272,0.1820611440448346,0.1808251049564243,0.20598233845424274,0.16355361469916455,0.15531927152764513,0.23295490694687723,0.178686918276249,0.16766322273921155,0.16318497752298708,0.1365556406338093,0.15673861314059204,0.340178129270407,0.22445696963649323,0.16175575275048942,0.12311757861090937,0.10795964044789594,0.08711637480141093,0.057221523638928046,0.05394722087136765,0.07962245117847336
10.0,0.0,10.0,0.0,5.0,0.0,5.0,0.0,,,,right,1.3342778000514954,405.226205999963,oy13,405.226205999963,None,384.4205451000016,386.4202322999481,False,2.0,['p'],True,0.18,0.2,0.1,1.0,1.0,0.7058405977926203,-0.0975,wait_cost,0.0,1.0,401.53758010000456,None,oy13,1,2022-04-08_14h45.22.479,threat_forest,2021.2.3,60.12090311892305,False,11.0,0.35,0.3520833333333333,-1.3425000000000002,-1.1191666666666669,0,0,0,0.2883901717289248,-0.0975,0.18,0.18,0.2,0.9,-1.7000000000000002,-1.5600000000000005,0.4399999999999997,0.4399999999999997,1.0,1.0,-1.0,2.0,0,0,0,0.4108993356034028,0.24206107160408494,0.09879970680196948,0.4407017796038115,0.24648372105784502,0.1286562286594643,0.45912151163037,0.24832894918861403,0.13461120863406828,0.23934916851242272,0.1820611440448346,0.1808251049564243,0.20598233845424274,0.16355361469916455,0.15531927152764513,0.23295490694687723,0.178686918276249,0.16766322273921155,0.16318497752298708,0.1365556406338093,0.15673861314059204,0.340178129270407,0.22445696963649323,0.16175575275048942,0.12311757861090937,0.10795964044789594,0.08711637480141093,0.04141390045770872,0.039698789306587726,0.07274203546289726
10.0,0.0,10.0,0.0,6.0,0.0,6.0,0.0,,,,left,1.2186658999416975,409.88059529999737,oy13,409.88059529999737,None,384.4205451000016,386.4202322999481,True,1.0,['p'],True,0.18,0.2,0.1,1.0,1.0,0.7058405977926203,0.1799999999999999,unsucc_cost,0.0,0.0,408.5876049000072,None,oy13,1,2022-04-08_14h45.22.479,threat_forest,2021.2.3,60.12090311892305,True,11.0,0.35,0.3520833333333333,-1.3425000000000002,-1.1191666666666669,0,0,1,0.1977567357729101,0.1799999999999999,1.0,0.18,0.2,0.9,-1.7000000000000002,-1.5600000000000005,-0.5600000000000003,0.0,1.0,1.0,-1.0,1.0,1,0,0,0.4108993356034028,0.24206107160408494,0.09879970680196948,0.4407017796038115,0.24648372105784502,0.1286562286594643,0.45912151163037,0.24832894918861403,0.13461120863406828,0.23934916851242272,0.1820611440448346,0.1808251049564243,0.20598233845424274,0.16355361469916455,0.15531927152764513,0.23295490694687723,0.178686918276249,0.16766322273921155,0.16318497752298708,0.1365556406338093,0.15673861314059204,0.9302370987688143,0.06489603884299344,-0.10919059689863088,0.9944895223601536,0.005480112276027171,-0.025837685471537836,0.9307363045700416,0.06446623592534428,0.0847019714162421
11.0,0.0,11.0,0.0,0.0,0.0,0.0,0.0,416.2679199000122,419.7712833000114,None,right,1.0340831000357866,422.8428965000203,oy13,416.2679199000122,419.7712833000114,422.8428965000203,None,True,4.0,['r'],False,0.5,0.5,0.0,0.0,2.0,0.6309297535714574,0.096737473125,succ_gain,1.0,6.0,,,oy13,1,2022-04-08_14h45.22.479,threat_forest,2021.2.3,60.12090311892305,True,67.0,0.55,0.45,-0.4800000000000001,-0.91125,1,1,1,0.0335151403963851,0.096737473125,0.5,0.5,0.5,1.0,0.0,0.0,4.0,4.0,0.0,2.0,-1.0,4.0,0,1,1,0.4010782089690845,0.24021447925923595,0.16761524861142085,0.484131525740689,0.24974819152468158,0.1277714299754913,0.45912151163037,0.24832894918861403,0.13461120863406828,0.45114108705400685,0.24761280662573582,0.11013074599315947,0.7303927685677439,0.19691917219169,0.13859203153523242,0.5528848158761811,0.2472031962497424,0.10074417701526239,0.6822872784606636,0.21677134811140444,0.1270844108660344,0.340178129270407,0.22445696963649323,0.16175575275048942,0.6964499417141811,0.2114074204004949,0.20113765280995044,0.7059566489943245,0.2075818587350286,0.1538109800707973
11.0,0.0,11.0,0.0,1.0,0.0,1.0,0.0,,,,right,1.3345651999115944,429.1760013999883,oy13,429.1760013999883,None,423.90481650002766,425.9048091999721,False,6.0,['r'],True,0.36,0.6,0.4,2.0,2.0,0.9801625908629508,-0.1255866,wait_cost,0.0,5.0,425.9048091999721,None,oy13,1,2022-04-08_14h45.22.479,threat_forest,2021.2.3,60.12090311892305,False,67.0,0.55,0.45,-0.4800000000000001,-0.91125,0,0,0,0.2886055458526285,-0.1255866,0.36,0.36,0.6,0.6,-0.8000000000000003,-0.9600000000000002,5.04,5.04,1.0,2.0,1.0,6.0,0,0,0,0.4108993356034028,0.24206107160408494,0.09879970680196948,0.31804474273328004,0.21689228435300176,0.13667666092230782,0.1384620395021216,0.11929030311903452,0.11725343518207175,0.5309608205993448,0.24904142758781517,0.10859004604537348,0.4731878597498942,0.24928110913520865,0.11234128820753499,0.23295490694687723,0.178686918276249,0.16766322273921155,0.4291625225511564,0.2449820517886845,0.11665545699328661,0.340178129270407,0.22445696963649323,0.16175575275048942,0.40328726359367134,0.24064664661679996,0.233365448734537,0.02359609897416591,0.02303932308736728,0.06469735681411408
11.0,0.0,11.0,0.0,2.0,0.0,2.0,0.0,,,,left,1.916606100043282,436.2746799000306,oy13,436.2746799000306,None,423.90481650002766,425.9048091999721,True,5.0,['r'],True,0.36,0.6,0.4,2.0,2.0,0.9801625908629508,-0.050683,unsucc_cost,0.0,3.0,432.5379909999901,None,oy13,1,2022-04-08_14h45.22.479,threat_forest,2021.2.3,60.12090311892305,True,67.0,0.55,0.45,-0.4800000000000001,-0.91125,0,0,1,0.6505559656644414,-0.050683,0.36,0.36,0.6,0.6,-0.8000000000000003,-0.9600000000000002,4.04,4.04,1.0,2.0,-1.0,5.0,0,0,0,0.4108993356034028,0.24206107160408494,0.09879970680196948,0.31804474273328004,0.21689228435300176,0.13667666092230782,0.45912151163037,0.24832894918861403,0.13461120863406828,0.5309608205993448,0.24904142758781517,0.10859004604537348,0.4731878597498942,0.24928110913520865,0.11234128820753499,0.23295490694687723,0.178686918276249,0.16766322273921155,0.4291625225511564,0.2449820517886845,0.11665545699328661,0.340178129270407,0.22445696963649323,0.16175575275048942,0.40328726359367134,0.24064664661679996,0.233365448734537,0.10215876395590072,0.09172235090290327,0.09786365879106176
11.0,0.0,11.0,0.0,3.0,0.0,3.0,0.0,,,,right,1.0170581999700516,442.56078549998347,oy13,438.22150059998967,440.22150139999576,442.56078549998347,None,True,3.0,['r'],False,0.5,0.5,0.0,0.0,2.0,0.6309297535714574,0.16185,succ_gain,1.0,5.0,440.22150139999576,None,oy13,1,2022-04-08_14h45.22.479,threat_forest,2021.2.3,60.12090311892305,True,67.0,0.55,0.45,-0.4800000000000001,-0.91125,1,1,1,0.0169143425382096,0.16185,0.5,0.5,0.5,1.0,0.0,0.0,3.0,3.0,0.0,2.0,-1.0,3.0,0,1,1,0.4010782089690845,0.24021447925923595,0.16761524861142085,0.484131525740689,0.24974819152468158,0.1277714299754913,0.45912151163037,0.24832894918861403,0.13461120863406828,0.45114108705400685,0.24761280662573582,0.11013074599315947,0.7303927685677439,0.19691917219169,0.13859203153523242,0.5528848158761811,0.2472031962497424,0.10074417701526239,0.6822872784606636,0.21677134811140444,0.1270844108660344,0.340178129270407,0.22445696963649323,0.16175575275048942,0.6964499417141811,0.2114074204004949,0.20113765280995044,0.9022637849352922,0.08818384732953298,0.09615495313562528
11.0,0.0,11.0,0.0,4.0,0.0,4.0,0.0,,,,right,1.4867735999869185,447.57238809997216,oy13,438.22150059998967,440.22150139999576,447.57238809997216,None,True,5.0,['r'],False,0.5,0.5,0.0,0.0,2.0,0.6309297535714574,-0.205,succ_gain,1.0,6.0,445.60448360000737,None,oy13,1,2022-04-08_14h45.22.479,threat_forest,2021.2.3,60.12090311892305,True,67.0,0.55,0.45,-0.4800000000000001,-0.91125,1,1,1,0.3966084030194728,-0.205,0.0,0.5,0.5,1.0,0.0,0.0,5.0,5.0,0.0,2.0,1.0,5.0,0,1,1,0.4010782089690845,0.24021447925923595,0.16761524861142085,0.484131525740689,0.24974819152468158,0.1277714299754913,0.1384620395021216,0.11929030311903452,0.11725343518207175,0.45114108705400685,0.24761280662573582,0.11013074599315947,0.7303927685677439,0.19691917219169,0.13859203153523242,0.5528848158761811,0.2472031962497424,0.10074417701526239,0.6822872784606636,0.21677134811140444,0.1270844108660344,0.340178129270407,0.22445696963649323,0.16175575275048942,0.028341438263527273,0.02753820114068195,-0.001525017921530307,0.00465379847544742,0.004632140635197344,0.05580872462694444
11.0,0.0,11.0,0.0,5.0,0.0,5.0,0.0,,,,left,1.3516628000652418,453.7223654000554,oy13,438.22150059998967,440.22150139999576,453.7223654000554,None,False,6.0,['r'],False,0.5,0.5,0.0,0.0,2.0,0.6309297535714574,0.0,wait_cost,1.0,5.0,451.08808580006007,None,oy13,1,2022-04-08_14h45.22.479,threat_forest,2021.2.3,60.12090311892305,False,67.0,0.55,0.45,-0.4800000000000001,-0.91125,1,1,0,0.3013355382775979,0.0,0.0,0.5,0.5,1.0,0.0,0.0,6.0,6.0,0.0,2.0,1.0,6.0,0,1,1,0.4010782089690845,0.24021447925923595,0.16761524861142085,0.484131525740689,0.24974819152468158,0.1277714299754913,0.1384620395021216,0.11929030311903452,0.11725343518207175,0.45114108705400685,0.24761280662573582,0.11013074599315947,0.7303927685677439,0.19691917219169,0.13859203153523242,0.5528848158761811,0.2472031962497424,0.10074417701526239,0.6822872784606636,0.21677134811140444,0.1270844108660344,0.340178129270407,0.22445696963649323,0.16175575275048942,0.028341438263527273,0.02753820114068195,-0.001525017921530307,0.2450624572267971,0.18500684928476133,0.14290974865492412
11.0,0.0,11.0,0.0,6.0,0.0,6.0,0.0,,,,right,1.451748999999836,459.2149835999589,oy13,459.2149835999589,None,455.1048805000028,457.10475249995943,False,5.0,['r'],True,0.36,0.6,0.4,2.0,2.0,0.9801625908629508,0.0,wait_cost,0.0,4.0,457.1047524999594,None,oy13,1,2022-04-08_14h45.22.479,threat_forest,2021.2.3,60.12090311892305,False,67.0,0.55,0.45,-0.4800000000000001,-0.91125,0,0,0,0.3727690364458387,0.0,0.0,0.36,0.6,0.6,-0.8000000000000003,-0.9600000000000002,4.04,4.04,1.0,2.0,-1.0,5.0,0,0,0,0.4108993356034028,0.24206107160408494,0.09879970680196948,0.31804474273328004,0.21689228435300176,0.13667666092230782,0.45912151163037,0.24832894918861403,0.13461120863406828,0.5309608205993448,0.24904142758781517,0.10859004604537348,0.4731878597498942,0.24928110913520865,0.11234128820753499,0.23295490694687723,0.178686918276249,0.16766322273921155,0.4291625225511564,0.2449820517886845,0.11665545699328661,0.340178129270407,0.22445696963649323,0.16175575275048942,0.028341438263527273,0.02753820114068195,-0.001525017921530307,0.2450624572267971,0.18500684928476133,0.14290974865492412
11.0,0.0,11.0,0.0,7.0,0.0,7.0,0.0,,,,right,1.912680399953388,464.9418077999726,oy13,464.9418077999726,None,455.1048805000028,457.10475249995943,False,4.0,['r'],True,0.36,0.6,0.4,2.0,2.0,0.9801625908629508,0.0,wait_cost,0.0,3.0,462.68810869997833,None,oy13,1,2022-04-08_14h45.22.479,threat_forest,2021.2.3,60.12090311892305,False,67.0,0.55,0.45,-0.4800000000000001,-0.91125,0,0,0,0.6485056090430769,0.0,0.0,0.36,0.6,0.6,-0.8000000000000003,-0.9600000000000002,3.04,3.04,1.0,2.0,-1.0,4.0,0,0,0,0.4108993356034028,0.24206107160408494,0.09879970680196948,0.31804474273328004,0.21689228435300176,0.13667666092230782,0.45912151163037,0.24832894918861403,0.13461120863406828,0.5309608205993448,0.24904142758781517,0.10859004604537348,0.4731878597498942,0.24928110913520865,0.11234128820753499,0.23295490694687723,0.178686918276249,0.16766322273921155,0.4291625225511564,0.2449820517886845,0.11665545699328661,0.340178129270407,0.22445696963649323,0.16175575275048942,0.028341438263527273,0.02753820114068195,-0.001525017921530307,0.2450624572267971,0.18500684928476133,0.14290974865492412
12.0,0.0,12.0,0.0,0.0,0.0,0.0,0.0,472.3341099000536,475.8276116000488,None,right,1.4535389000084251,478.5336117000552,oy13,478.5336117000552,None,472.3341099000536,475.82761160004884,False,5.0,['p'],True,0.24,0.3,0.2,2.0,2.0,0.9003120349047065,-0.0305436800767033,wait_cost,0.0,4.0,,,oy13,1,2022-04-08_14h45.22.479,threat_forest,2021.2.3,60.12090311892305,False,15.0,0.4833333333333333,0.5166666666666666,-0.8977777777777778,-0.6888888888888889,0,0,0,0.3740012036503636,-0.0305436800767033,0.24,0.24,0.3,0.8,-1.4,-1.24,3.76,3.76,1.0,2.0,-1.0,5.0,0,0,0,0.4108993356034028,0.24206107160408494,0.09879970680196948,0.39816098142920103,0.2396288142965364,0.13051417546669675,0.45912151163037,0.24832894918861403,0.13461120863406828,0.3023382940694649,0.21092985000863065,0.14969157482374762,0.2818451590184271,0.20240846535630466,0.13584007019984068,0.23295490694687723,0.178686918276249,0.16766322273921155,0.23417193862200686,0.1793354417840179,0.14092374450120532,0.340178129270407,0.22445696963649323,0.16175575275048942,0.19163554851496847,0.15491136506033565,0.13886708078532295,0.1471793859628463,0.12551761431044584,0.11418303123596016
12.0,0.0,12.0,0.0,1.0,0.0,1.0,0.0,,,,right,1.6043871999718249,483.4609121000394,oy13,480.0053885000525,482.0049827999901,483.4609121000394,None,True,4.0,['p'],False,0.4444444444444445,0.6666666666666666,0.3333333333333333,1.0,2.0,0.9656336071428248,0.112530937087955,unsucc_cost,1.0,2.0,482.0049827999901,None,oy13,1,2022-04-08_14h45.22.479,threat_forest,2021.2.3,60.12090311892305,True,15.0,0.4833333333333333,0.5166666666666666,-0.8977777777777778,-0.6888888888888889,1,0,1,0.4727418768040405,0.112530937087955,0.4444444444444445,0.4444444444444445,0.6666666666666666,0.6666666666666667,-0.3333333333333335,-0.5555555555555556,3.4444444444444446,3.4444444444444446,0.0,2.0,-1.0,4.0,0,0,1,0.4010782089690845,0.24021447925923595,0.16761524861142085,0.34384053641671664,0.22561422193338118,0.13431267602147556,0.45912151163037,0.24832894918861403,0.13461120863406828,0.583553325788417,0.2430188417496947,0.11508511921917286,0.6310280425678578,0.2328316520608357,0.12058793645519479,0.5528848158761811,0.2472031962497424,0.10074417701526239,0.5860855267004499,0.24258928209270608,0.11754001787035417,0.340178129270407,0.22445696963649323,0.16175575275048942,0.5855101585555698,0.24268801278380128,0.2356154649200128,0.7689698667374238,0.17765521078725252,0.1393597207923118
12.0,0.0,12.0,0.0,2.0,0.0,2.0,0.0,,,,right,1.7957304000156,489.7396391000366,oy13,480.0053885000525,482.0049827999901,489.7396391000366,None,True,2.0,['p'],False,0.4444444444444445,0.6666666666666666,0.3333333333333333,1.0,2.0,0.9656336071428248,0.0768585517248386,unsucc_cost,1.0,0.0,487.0883361999877,None,oy13,1,2022-04-08_14h45.22.479,threat_forest,2021.2.3,60.12090311892305,True,15.0,0.4833333333333333,0.5166666666666666,-0.8977777777777778,-0.6888888888888889,1,0,1,0.5854118472622829,0.0768585517248386,0.4444444444444445,0.4444444444444445,0.6666666666666666,0.6666666666666667,-0.3333333333333335,-0.5555555555555556,1.4444444444444444,1.4444444444444444,0.0,2.0,-1.0,2.0,0,0,1,0.4010782089690845,0.24021447925923595,0.16761524861142085,0.34384053641671664,0.22561422193338118,0.13431267602147556,0.45912151163037,0.24832894918861403,0.13461120863406828,0.583553325788417,0.2430188417496947,0.11508511921917286,0.6310280425678578,0.2328316520608357,0.12058793645519479,0.5528848158761811,0.2472031962497424,0.10074417701526239,0.5860855267004499,0.24258928209270608,0.11754001787035417,0.340178129270407,0.22445696963649323,0.16175575275048942,0.5855101585555698,0.24268801278380128,0.2356154649200128,0.61411545171795,0.23697766367920817,0.16800590092158688
13.0,0.0,13.0,0.0,0.0,0.0,0.0,0.0,496.26706700003706,499.77203460002784,None,left,1.5095340000698343,501.3771523999749,oy13,501.3771523999749,None,496.26706700003706,499.77203460002784,True,5.0,['p'],True,0.4444444444444445,0.6666666666666666,0.3333333333333333,1.0,1.0,0.9656336071428248,0.0468159241685405,succ_gain,0.0,6.0,,,oy13,1,2022-04-08_14h45.22.479,threat_forest,2021.2.3,60.12090311892305,True,23.0,0.4333333333333333,0.4583333333333333,-1.3600000000000003,-1.128888888888889,1,0,1,0.4118009939719311,0.0468159241685405,0.4444444444444445,0.4444444444444445,0.6666666666666666,0.6666666666666667,-1.0,-1.0,4.0,4.0,1.0,1.0,-1.0,5.0,0,0,1,0.4108993356034028,0.24206107160408494,0.09879970680196948,0.34384053641671664,0.22561422193338118,0.13431267602147556,0.45912151163037,0.24832894918861403,0.13461120863406828,0.583553325788417,0.2430188417496947,0.11508511921917286,0.40532074406837415,0.24103583849623367,0.11647491075561996,0.5528848158761811,0.2472031962497424,0.10074417701526239,0.5860855267004499,0.24258928209270608,0.11754001787035417,0.340178129270407,0.22445696963649323,0.16175575275048942,0.5855101585555698,0.24268801278380128,0.2356154649200128,0.46088843941295526,0.24847028582844594,0.17355556564708924
13.0,0.0,13.0,0.0,1.0,0.0,1.0,0.0,,,,right,1.4866329999640584,508.5067838999676,oy13,508.5067838999676,None,496.26706700003706,499.77203460002784,False,6.0,['p'],True,0.4444444444444445,0.6666666666666666,0.3333333333333333,1.0,1.0,0.9656336071428248,-0.1294202433609751,wait_cost,0.0,5.0,504.905533400015,None,oy13,1,2022-04-08_14h45.22.479,threat_forest,2021.2.3,60.12090311892305,False,23.0,0.4333333333333333,0.4583333333333333,-1.3600000000000003,-1.128888888888889,1,0,0,0.3965138313433575,-0.1294202433609751,0.4444444444444445,0.4444444444444445,0.6666666666666666,0.6666666666666667,-1.0,-1.0,5.0,5.0,1.0,1.0,1.0,6.0,0,0,1,0.4108993356034028,0.24206107160408494,0.09879970680196948,0.34384053641671664,0.22561422193338118,0.13431267602147556,0.1384620395021216,0.11929030311903452,0.11725343518207175,0.583553325788417,0.2430188417496947,0.11508511921917286,0.40532074406837415,0.24103583849623367,0.11647491075561996,0.5528848158761811,0.2472031962497424,0.10074417701526239,0.5860855267004499,0.24258928209270608,0.11754001787035417,0.340178129270407,0.22445696963649323,0.16175575275048942,0.5855101585555698,0.24268801278380128,0.2356154649200128,0.02183655821567662,0.02135972294096999,0.06388629580781205
13.0,0.0,13.0,0.0,2.0,0.0,2.0,0.0,,,,left,1.4555533999809995,512.8574339000043,oy13,512.8574339000043,None,496.26706700003706,499.77203460002784,True,5.0,['p'],True,0.4444444444444445,0.6666666666666666,0.3333333333333333,1.0,1.0,0.9656336071428248,0.0703882944673067,succ_gain,0.0,6.0,512.0224626000272,None,oy13,1,2022-04-08_14h45.22.479,threat_forest,2021.2.3,60.12090311892305,True,23.0,0.4333333333333333,0.4583333333333333,-1.3600000000000003,-1.128888888888889,1,0,1,0.3753861719407056,0.0703882944673067,0.4444444444444445,0.4444444444444445,0.6666666666666666,0.6666666666666667,-1.0,-1.0,4.0,4.0,1.0,1.0,-1.0,5.0,0,0,1,0.4108993356034028,0.24206107160408494,0.09879970680196948,0.34384053641671664,0.22561422193338118,0.13431267602147556,0.45912151163037,0.24832894918861403,0.13461120863406828,0.583553325788417,0.2430188417496947,0.11508511921917286,0.40532074406837415,0.24103583849623367,0.11647491075561996,0.5528848158761811,0.2472031962497424,0.10074417701526239,0.5860855267004499,0.24258928209270608,0.11754001787035417,0.340178129270407,0.22445696963649323,0.16175575275048942,0.5855101585555698,0.24268801278380128,0.2356154649200128,0.5819569029353235,0.24328306606125,0.1710507125168273
13.0,0.0,13.0,0.0,3.0,0.0,3.0,0.0,,,,right,1.2025622999062762,519.7592554000439,oy13,519.7592554000439,None,496.26706700003706,499.77203460002784,False,6.0,['p'],True,0.4444444444444445,0.6666666666666666,0.3333333333333333,1.0,1.0,0.9656336071428248,-0.3031374485596708,wait_cost,0.0,5.0,516.3387258000439,None,oy13,1,2022-04-08_14h45.22.479,threat_forest,2021.2.3,60.12090311892305,False,23.0,0.4333333333333333,0.4583333333333333,-1.3600000000000003,-1.128888888888889,1,0,0,0.1844545303096251,-0.3031374485596708,0.0,0.4444444444444445,0.6666666666666666,0.6666666666666667,-1.0,-1.0,5.0,5.0,1.0,1.0,1.0,6.0,0,0,1,0.4108993356034028,0.24206107160408494,0.09879970680196948,0.34384053641671664,0.22561422193338118,0.13431267602147556,0.1384620395021216,0.11929030311903452,0.11725343518207175,0.583553325788417,0.2430188417496947,0.11508511921917286,0.40532074406837415,0.24103583849623367,0.11647491075561996,0.5528848158761811,0.2472031962497424,0.10074417701526239,0.5860855267004499,0.24258928209270608,0.11754001787035417,0.340178129270407,0.22445696963649323,0.16175575275048942,0.028341438263527273,0.02753820114068195,-0.001525017921530307,0.000613747553385335,0.0006133708673260488,0.05386810354577978
13.0,0.0,13.0,0.0,4.0,0.0,4.0,0.0,,,,left,1.6115750999888403,524.0738019000273,oy13,520.9894292999525,522.9890100000193,524.0738019000273,None,False,5.0,['p'],False,0.16,0.2,0.2,2.0,1.0,0.8198746470064713,-0.4821530864197531,wait_cost,1.0,4.0,522.9890100000193,None,oy13,1,2022-04-08_14h45.22.479,threat_forest,2021.2.3,60.12090311892305,False,23.0,0.4333333333333333,0.4583333333333333,-1.3600000000000003,-1.128888888888889,0,0,0,0.4772120237247794,-0.4821530864197531,0.0,0.16,0.2,0.8,-2.0,-1.7200000000000004,3.28,3.28,0.0,1.0,-1.0,5.0,0,0,0,0.4010782089690845,0.24021447925923595,0.16761524861142085,0.39816098142920103,0.2396288142965364,0.13051417546669675,0.45912151163037,0.24832894918861403,0.13461120863406828,0.23934916851242272,0.1820611440448346,0.1808251049564243,0.14637712138690046,0.12495085972138507,0.17467208908587945,0.23295490694687723,0.178686918276249,0.16766322273921155,0.14372897650921124,0.12307095782082586,0.16172364069091502,0.340178129270407,0.22445696963649323,0.16175575275048942,0.028341438263527273,0.02753820114068195,-0.001525017921530307,1.5140394829825976e-05,1.5140165598270382e-05,0.053579224317003314
13.0,0.0,13.0,0.0,5.0,0.0,5.0,0.0,,,,left,1.543344600009732,528.8776165000163,oy13,520.9894292999525,522.9890100000193,528.8776165000163,None,False,4.0,['p'],False,0.16,0.2,0.2,2.0,1.0,0.8198746470064713,-0.5406222222222223,wait_cost,1.0,3.0,527.7227161000483,None,oy13,1,2022-04-08_14h45.22.479,threat_forest,2021.2.3,60.12090311892305,False,23.0,0.4333333333333333,0.4583333333333333,-1.3600000000000003,-1.128888888888889,0,0,0,0.433951879625675,-0.5406222222222223,0.0,0.16,0.2,0.8,-2.0,-1.7200000000000004,2.28,2.28,0.0,1.0,-1.0,4.0,0,0,0,0.4010782089690845,0.24021447925923595,0.16761524861142085,0.39816098142920103,0.2396288142965364,0.13051417546669675,0.45912151163037,0.24832894918861403,0.13461120863406828,0.23934916851242272,0.1820611440448346,0.1808251049564243,0.14637712138690046,0.12495085972138507,0.17467208908587945,0.23295490694687723,0.178686918276249,0.16766322273921155,0.14372897650921124,0.12307095782082586,0.16172364069091502,0.340178129270407,0.22445696963649323,0.16175575275048942,0.028341438263527273,0.02753820114068195,-0.001525017921530307,4.517608777766968e-06,4.517588368977901e-06,0.05357409478769505
13.0,0.0,13.0,0.0,6.0,0.0,6.0,0.0,,,,left,1.3047536000376567,533.7133951999713,oy13,520.9894292999525,522.9890100000193,533.7133951999713,None,False,3.0,['p'],False,0.16,0.2,0.2,2.0,1.0,0.8198746470064713,-0.6465777777777778,wait_cost,1.0,2.0,532.4395438999636,None,oy13,1,2022-04-08_14h45.22.479,threat_forest,2021.2.3,60.12090311892305,False,23.0,0.4333333333333333,0.4583333333333333,-1.3600000000000003,-1.128888888888889,0,0,0,0.2660142107157026,-0.6465777777777778,0.0,0.16,0.2,0.8,-2.0,-1.7200000000000004,1.2799999999999996,1.2799999999999996,0.0,1.0,-1.0,3.0,0,0,0,0.4010782089690845,0.24021447925923595,0.16761524861142085,0.39816098142920103,0.2396288142965364,0.13051417546669675,0.45912151163037,0.24832894918861403,0.13461120863406828,0.23934916851242272,0.1820611440448346,0.1808251049564243,0.14637712138690046,0.12495085972138507,0.17467208908587945,0.23295490694687723,0.178686918276249,0.16766322273921155,0.14372897650921124,0.12307095782082586,0.16172364069091502,0.340178129270407,0.22445696963649323,0.16175575275048942,0.028341438263527273,0.02753820114068195,-0.001525017921530307,5.047805793707046e-07,5.047803245672716e-07,0.05357215704546659
13.0,0.0,13.0,0.0,7.0,0.0,7.0,0.0,,,,right,1.1134253999916837,538.4935347000137,oy13,538.4935347000137,None,535.0396477000322,537.0390754999826,False,2.0,['p'],True,0.4444444444444445,0.6666666666666666,0.3333333333333333,1.0,1.0,0.9656336071428248,-0.5555555555555556,wait_cost,0.0,1.0,537.0390754999826,None,oy13,1,2022-04-08_14h45.22.479,threat_forest,2021.2.3,60.12090311892305,False,23.0,0.4333333333333333,0.4583333333333333,-1.3600000000000003,-1.128888888888889,1,0,0,0.1074412095047978,-0.5555555555555556,0.0,0.4444444444444445,0.6666666666666666,0.6666666666666667,-1.0,-1.0,1.0,1.0,1.0,1.0,-1.0,2.0,0,0,1,0.4108993356034028,0.24206107160408494,0.09879970680196948,0.34384053641671664,0.22561422193338118,0.13431267602147556,0.45912151163037,0.24832894918861403,0.13461120863406828,0.583553325788417,0.2430188417496947,0.11508511921917286,0.40532074406837415,0.24103583849623367,0.11647491075561996,0.5528848158761811,0.2472031962497424,0.10074417701526239,0.5860855267004499,0.24258928209270608,0.11754001787035417,0.340178129270407,0.22445696963649323,0.16175575275048942,0.028341438263527273,0.02753820114068195,-0.001525017921530307,3.317124275971756e-06,3.3171132726582956e-06,0.053573515091067996
14.0,0.0,14.0,0.0,0.0,0.0,0.0,0.0,543.2880049999803,546.7893869000254,None,right,1.0867663999088109,549.42997930001,oy13,549.42997930001,None,543.2880049999803,546.7893869000254,False,5.0,['p'],True,0.4444444444444445,0.6666666666666666,0.3333333333333333,1.0,2.0,0.9656336071428248,0.014840682614443,wait_cost,0.0,4.0,,,oy13,1,2022-04-08_14h45.22.479,threat_forest,2021.2.3,60.12090311892305,False,1.0,0.4833333333333333,0.4583333333333333,-0.7877777777777778,-1.0738888888888891,1,0,0,0.0832066815562544,0.014840682614443,0.4444444444444445,0.4444444444444445,0.6666666666666666,0.6666666666666667,-0.3333333333333335,-0.5555555555555556,4.444444444444445,4.444444444444445,1.0,2.0,-1.0,5.0,0,0,1,0.4108993356034028,0.24206107160408494,0.09879970680196948,0.34384053641671664,0.22561422193338118,0.13431267602147556,0.45912151163037,0.24832894918861403,0.13461120863406828,0.583553325788417,0.2430188417496947,0.11508511921917286,0.6310280425678578,0.2328316520608357,0.12058793645519479,0.5528848158761811,0.2472031962497424,0.10074417701526239,0.5860855267004499,0.24258928209270608,0.11754001787035417,0.340178129270407,0.22445696963649323,0.16175575275048942,0.5855101585555698,0.24268801278380128,0.2356154649200128,0.3061559660797652,0.21242449051353088,0.15614943533459744
14.0,0.0,14.0,0.0,1.0,0.0,1.0,0.0,,,,left,2.2370580999413505,556.0157405999489,oy13,550.5396360000595,552.5395793999778,556.0157405999489,None,False,4.0,['p'],False,0.27,0.3,0.1,1.0,2.0,0.7963326591781347,0.0265089794654627,wait_cost,1.0,3.0,552.5395793999778,None,oy13,1,2022-04-08_14h45.22.479,threat_forest,2021.2.3,60.12090311892305,False,1.0,0.4833333333333333,0.4583333333333333,-0.7877777777777778,-1.0738888888888891,1,0,0,0.8051616544288107,0.0265089794654627,0.27,0.27,0.3,0.9,-1.1,-1.02,2.98,2.98,0.0,2.0,-1.0,4.0,0,0,1,0.4010782089690845,0.24021447925923595,0.16761524861142085,0.4407017796038115,0.24648372105784502,0.1286562286594643,0.45912151163037,0.24832894918861403,0.13461120863406828,0.3023382940694649,0.21092985000863065,0.14969157482374762,0.3725390786400796,0.23375371352608015,0.12012567703032664,0.5528848158761811,0.2472031962497424,0.10074417701526239,0.2768794452090366,0.20021721802977271,0.13320415396070395,0.340178129270407,0.22445696963649323,0.16175575275048942,0.23550021909500332,0.18003986590120877,0.1665639901015777,0.3596688340298492,0.23030716385745797,0.16478478766461863
14.0,0.0,14.0,0.0,2.0,0.0,2.0,0.0,,,,left,1.6821373000275344,561.0444567999803,oy13,550.5396360000595,552.5395793999778,561.0444567999803,None,False,3.0,['p'],False,0.27,0.3,0.1,1.0,2.0,0.7963326591781347,0.0676296630795609,wait_cost,1.0,2.0,560.2731879999628,None,oy13,1,2022-04-08_14h45.22.479,threat_forest,2021.2.3,60.12090311892305,False,1.0,0.4833333333333333,0.4583333333333333,-0.7877777777777778,-1.0738888888888891,1,0,0,0.5200651872487381,0.0676296630795609,0.27,0.27,0.3,0.9,-1.1,-1.02,1.98,1.98,0.0,2.0,-1.0,3.0,0,0,1,0.4010782089690845,0.24021447925923595,0.16761524861142085,0.4407017796038115,0.24648372105784502,0.1286562286594643,0.45912151163037,0.24832894918861403,0.13461120863406828,0.3023382940694649,0.21092985000863065,0.14969157482374762,0.3725390786400796,0.23375371352608015,0.12012567703032664,0.5528848158761811,0.2472031962497424,0.10074417701526239,0.2768794452090366,0.20021721802977271,0.13320415396070395,0.340178129270407,0.22445696963649323,0.16175575275048942,0.23550021909500332,0.18003986590120877,0.1665639901015777,0.568013649929599,0.24537414342325395,0.17206047148423403
14.0,0.0,14.0,0.0,3.0,0.0,3.0,0.0,,,,left,2.1665075999917462,565.6279299999587,oy13,550.5396360000595,552.5395793999778,565.6279299999587,None,False,2.0,['p'],False,0.27,0.3,0.1,1.0,2.0,0.7963326591781347,-0.0185194067215362,wait_cost,1.0,1.0,564.7731664000312,None,oy13,1,2022-04-08_14h45.22.479,threat_forest,2021.2.3,60.12090311892305,False,1.0,0.4833333333333333,0.4583333333333333,-0.7877777777777778,-1.0738888888888891,1,0,0,0.7731164701500154,-0.0185194067215362,0.27,0.27,0.3,0.9,-1.1,-1.02,0.98,0.98,0.0,2.0,-1.0,2.0,0,0,1,0.4010782089690845,0.24021447925923595,0.16761524861142085,0.4407017796038115,0.24648372105784502,0.1286562286594643,0.45912151163037,0.24832894918861403,0.13461120863406828,0.3023382940694649,0.21092985000863065,0.14969157482374762,0.3725390786400796,0.23375371352608015,0.12012567703032664,0.5528848158761811,0.2472031962497424,0.10074417701526239,0.2768794452090366,0.20021721802977271,0.13320415396070395,0.340178129270407,0.22445696963649323,0.16175575275048942,0.23550021909500332,0.18003986590120877,0.1665639901015777,0.1812082002859206,0.1483717884350583,0.1252190682972032
14.0,0.0,14.0,0.0,4.0,0.0,4.0,0.0,,,,right,0.9645465000066906,571.7630184000591,oy13,550.5396360000595,552.5395793999778,571.7630184000591,None,True,1.0,['p'],False,0.27,0.3,0.1,1.0,2.0,0.7963326591781347,0.1375484166666667,unsucc_cost,1.0,0.0,569.8233963999664,None,oy13,1,2022-04-08_14h45.22.479,threat_forest,2021.2.3,60.12090311892305,True,1.0,0.4833333333333333,0.4583333333333333,-0.7877777777777778,-1.0738888888888891,1,0,1,-0.0360972362830005,0.1375484166666667,1.0,0.27,0.3,0.9,-1.1,-1.02,-0.02,0.0,0.0,2.0,-1.0,1.0,1,0,1,0.4010782089690845,0.24021447925923595,0.16761524861142085,0.4407017796038115,0.24648372105784502,0.1286562286594643,0.45912151163037,0.24832894918861403,0.13461120863406828,0.3023382940694649,0.21092985000863065,0.14969157482374762,0.3725390786400796,0.23375371352608015,0.12012567703032664,0.5528848158761811,0.2472031962497424,0.10074417701526239,0.2768794452090366,0.20021721802977271,0.13320415396070395,0.9302370987688143,0.06489603884299344,-0.10919059689863088,0.9944895223601536,0.005480112276027171,-0.025837685471537836,0.848125372365439,0.1288087251154245,0.11577227356072596
