miniblock.thisRepN,miniblock.thisTrialN,miniblock.thisN,miniblock.thisIndex,day.thisRepN,day.thisTrialN,day.thisN,day.thisIndex,forest.started,fixation_forest.started,fixation_forest.stopped,key_resp.keys,key_resp.rt,key_resp.started,Subject_ID,weather_left.started,weather_left.stopped,weather_right.started,weather_right.stopped,foraging T/F,in_LP,p/r heuristic,good_weather.T/F,p_succ_correct,p_succ_uncorrected,r_threat,n_oponents,gain_if_succ,weather_entropy,OP_value_difference,action_outcome,forest_side_L=0_R=1,out_LP,fixation_day.started,fixation_day.stopped,participant,session,date,expName,psychopyVersion,frameRate,foraging T/F NaNs,fora_NR,forest_mean_p,mvt_cutoff_p,forest_mean_ev,mvt_cutoff_ev,mvt_policy_eg,mvt_policy_p,fora_response,logRT,optimal policy,$\mathit{p}$ success cor + cap,$\mathit{p}$ success cor,$\mathit{p}$ success,risk threat encounter,expected gain naive,expected gain correct,expected state no bounds,expected state with bounds,weather type,gain magnitude,win stay lose shift,continuous energy state,binary energy state,$\mathit{p}$ success based MVT,expected gain based MVT,weather type fit,weather type_uncertain,weather type_uncertain_fit,risk threat encounter fit,risk threat encounter_uncertain,risk threat encounter_uncertain_fit,win stay lose shift fit,win stay lose shift_uncertain,win stay lose shift_uncertain_fit,$\mathit{p}$ success fit,$\mathit{p}$ success_uncertain,$\mathit{p}$ success_uncertain_fit,expected gain naive fit,expected gain naive_uncertain,expected gain naive_uncertain_fit,expected gain based MVT fit,expected gain based MVT_uncertain,expected gain based MVT_uncertain_fit,$\mathit{p}$ success cor fit,$\mathit{p}$ success cor_uncertain,$\mathit{p}$ success cor_uncertain_fit,binary energy state fit,binary energy state_uncertain,binary energy state_uncertain_fit,$\mathit{p}$ success cor + cap fit,$\mathit{p}$ success cor + cap_uncertain,$\mathit{p}$ success cor + cap_uncertain_fit,optimal policy fit,optimal policy_uncertain,optimal policy_uncertain_fit
0.0,0.0,0.0,0.0,0.0,0.0,0.0,0.0,23.675078300060704,27.17791319999378,None,left,0.6872826999751851,30.92087569995784,fj4,30.92087569995784,None,23.675078300060704,27.17791319999378,True,5.0,['r'],True,0.5,0.5,0.0,0.0,1.0,0.6309297535714574,0.07495910506875,unsucc_cost,0.0,3.0,,,fj4,1,2022-05-05_11h29.50.201,threat_forest,2021.2.3,60.05692195058074,True,0.0,0.55,0.55,-0.91,-0.91,1,0,1,-0.3750095721663016,0.07495910506875,0.5,0.5,0.5,1.0,-0.5,-0.5,4.5,4.5,1.0,1.0,,5.0,0,0,1,0.4270816798925621,0.24468291859270924,0.26730087303495265,0.5435130337698874,0.24810661589214064,0.28924788375393384,,,,0.45951922659365085,0.24836130698442382,0.252783554588043,0.5075071830078864,0.24994364220328605,0.23259647731680166,0.5617301678932961,0.2461893863718655,0.2568023693571385,0.5722318209775356,0.24478256403826923,0.26876578388775907,0.309603252920687,0.21374907870161614,0.3390130053098759,0.5943091190473485,0.24110579006451305,0.4172692038731137,0.5988596931541463,0.24022676106946803,0.33538031848350897
0.0,0.0,0.0,0.0,1.0,0.0,1.0,0.0,,,,left,0.3814218000043183,35.32057870004792,fj4,35.32057870004792,None,23.675078300060704,27.17791319999378,True,3.0,['r'],True,0.5,0.5,0.0,0.0,1.0,0.6309297535714574,0.103973876875,unsucc_cost,0.0,1.0,33.65517170005478,None,fj4,1,2022-05-05_11h29.50.201,threat_forest,2021.2.3,60.05692195058074,True,0.0,0.55,0.55,-0.91,-0.91,1,0,1,-0.9638494295984052,0.103973876875,0.5,0.5,0.5,1.0,-0.5,-0.5,2.5,2.5,1.0,1.0,-1.0,3.0,0,0,1,0.4270816798925621,0.24468291859270924,0.26730087303495265,0.5435130337698874,0.24810661589214064,0.28924788375393384,0.5134219864495955,0.24981985027974687,0.27351518827565474,0.45951922659365085,0.24836130698442382,0.252783554588043,0.5075071830078864,0.24994364220328605,0.23259647731680166,0.5617301678932961,0.2461893863718655,0.2568023693571385,0.5722318209775356,0.24478256403826923,0.26876578388775907,0.309603252920687,0.21374907870161614,0.3390130053098759,0.5943091190473485,0.24110579006451305,0.4172692038731137,0.7192188493147671,0.2019430961051094,0.29944386603079526
0.0,0.0,0.0,0.0,2.0,0.0,2.0,0.0,,,,left,0.6589403999969363,41.38149020005949,fj4,41.38149020005949,None,23.675078300060704,27.17791319999378,True,1.0,['r'],True,0.5,0.5,0.0,0.0,1.0,0.6309297535714574,0.1165484374999999,succ_gain,0.0,2.0,37.73478810000233,None,fj4,1,2022-05-05_11h29.50.201,threat_forest,2021.2.3,60.05692195058074,True,0.0,0.55,0.55,-0.91,-0.91,1,0,1,-0.4171221886349261,0.1165484374999999,1.0,0.5,0.5,1.0,-0.5,-0.5,0.5,0.5,1.0,1.0,-1.0,1.0,1,0,1,0.4270816798925621,0.24468291859270924,0.26730087303495265,0.5435130337698874,0.24810661589214064,0.28924788375393384,0.5134219864495955,0.24981985027974687,0.27351518827565474,0.45951922659365085,0.24836130698442382,0.252783554588043,0.5075071830078864,0.24994364220328605,0.23259647731680166,0.5617301678932961,0.2461893863718655,0.2568023693571385,0.5722318209775356,0.24478256403826923,0.26876578388775907,0.9999995797539468,4.202458766016978e-07,0.031323705033554285,0.98132471974634,0.018326514161107362,0.08183581747773844,0.76396887322744,0.18032043396703568,0.27914691247242013
0.0,0.0,0.0,0.0,3.0,0.0,3.0,0.0,,,,left,2.64061879995279,46.4444437000202,fj4,42.06421970005613,44.078709200024605,46.4444437000202,None,False,2.0,['r'],False,0.36,0.6,0.4,2.0,1.0,0.9801625908629508,-0.0082544999999999,wait_cost,1.0,1.0,44.078709200024605,None,fj4,1,2022-05-05_11h29.50.201,threat_forest,2021.2.3,60.05692195058074,False,0.0,0.55,0.55,-0.91,-0.91,0,0,0,0.9710132836137728,-0.0082544999999999,0.36,0.36,0.6,0.6,-1.4000000000000004,-1.3200000000000005,0.6799999999999997,0.6799999999999997,0.0,1.0,1.0,2.0,0,0,0,0.48148435686337854,0.24965717095923728,0.28535504528897904,0.3645657220608021,0.23165755635908813,0.2507807816808938,0.1090912571941992,0.0971903547979883,0.2984866986462855,0.4736266823046265,0.24930444811373895,0.23396522331717673,0.40800782145533815,0.24153743908660705,0.2879715907248823,0.35937604761673414,0.23022490401610898,0.2913921933524413,0.46442293477957997,0.2487342724303019,0.26314679057008095,0.309603252920687,0.21374907870161614,0.3390130053098759,0.34965355559101896,0.22739594665357718,0.3966266230781456,0.2409224934886344,0.18287884561985332,0.2815484651660179
0.0,0.0,0.0,0.0,4.0,0.0,4.0,0.0,,,,left,1.3436598000116646,54.55256450001616,fj4,54.55256450001616,None,49.10766890004743,51.12225730007049,True,1.0,['r'],True,0.5,0.5,0.0,0.0,1.0,0.6309297535714574,0.2324999999999999,unsucc_cost,0.0,0.0,51.12225730007049,None,fj4,1,2022-05-05_11h29.50.201,threat_forest,2021.2.3,60.05692195058074,True,0.0,0.55,0.55,-0.91,-0.91,1,0,1,0.2953970850680991,0.2324999999999999,1.0,0.5,0.5,1.0,-0.5,-0.5,0.5,0.5,1.0,1.0,-1.0,1.0,1,0,1,0.4270816798925621,0.24468291859270924,0.26730087303495265,0.5435130337698874,0.24810661589214064,0.28924788375393384,0.5134219864495955,0.24981985027974687,0.27351518827565474,0.45951922659365085,0.24836130698442382,0.252783554588043,0.5075071830078864,0.24994364220328605,0.23259647731680166,0.5617301678932961,0.2461893863718655,0.2568023693571385,0.5722318209775356,0.24478256403826923,0.26876578388775907,0.9999995797539468,4.202458766016978e-07,0.031323705033554285,0.98132471974634,0.018326514161107362,0.08183581747773844,0.9655123946694154,0.03329821040914637,0.14113877894342988
1.0,0.0,1.0,0.0,0.0,0.0,0.0,0.0,59.06664370000362,62.56279970007017,None,left,0.925290000042878,64.89322710002307,fj4,64.89322710002307,None,59.06664370000362,62.56279970007017,True,4.0,['r'],True,0.5714285714285714,0.5714285714285714,0.0,0.0,2.0,0.6216097450797566,0.0806960090466623,unsucc_cost,0.0,2.0,,,fj4,1,2022-05-05_11h29.50.201,threat_forest,2021.2.3,60.05692195058074,True,19.0,0.5982142857142857,0.5741071428571429,-0.0446428571428572,-0.4773214285714287,1,0,1,-0.0776480770449504,0.0806960090466623,0.5714285714285714,0.5714285714285714,0.5714285714285714,1.0,0.2857142857142856,0.2857142857142856,4.285714285714286,4.285714285714286,1.0,2.0,-1.0,4.0,0,0,1,0.4270816798925621,0.24468291859270924,0.26730087303495265,0.5435130337698874,0.24810661589214064,0.28924788375393384,0.5134219864495955,0.24981985027974687,0.27351518827565474,0.46959068757321937,0.24907527371773044,0.23853790026746502,0.5941603752357123,0.24113382373546988,0.2906303708581053,0.5617301678932961,0.2461893863718655,0.2568023693571385,0.6253085544344613,0.23429776618554565,0.2836742749065904,0.309603252920687,0.21374907870161614,0.3390130053098759,0.7095545511786472,0.20608689008031578,0.36454209017770256,0.6242112964912618,0.23457155382395986,0.33007183805255624
1.0,0.0,1.0,0.0,1.0,0.0,1.0,0.0,,,,right,1.988779500010424,71.18937849998474,fj4,65.84216450003441,67.85648760001641,71.18937849998474,None,True,2.0,['r'],False,0.46875,0.625,0.25,2.0,2.0,0.9634951148421658,-0.0053720830436505,unsucc_cost,1.0,0.0,67.85648760001641,None,fj4,1,2022-05-05_11h29.50.201,threat_forest,2021.2.3,60.05692195058074,True,19.0,0.5982142857142857,0.5741071428571429,-0.0446428571428572,-0.4773214285714287,1,0,1,0.6875211340031757,-0.0053720830436505,0.46875,0.46875,0.625,0.75,-0.25,-0.375,1.625,1.625,0.0,2.0,-1.0,2.0,0,0,1,0.48148435686337854,0.24965717095923728,0.28535504528897904,0.43000860031370797,0.24510120396995366,0.28221954958382556,0.5134219864495955,0.24981985027974687,0.27351518827565474,0.4771610252003976,0.24947838123010307,0.23049476603249452,0.5353817107194173,0.24874813454656747,0.24047177739605718,0.5617301678932961,0.2461893863718655,0.2568023693571385,0.5483971783855375,0.24765771312431847,0.2646775663627992,0.309603252920687,0.21374907870161614,0.3390130053098759,0.5394341015130338,0.2484449516378598,0.4283196025687173,0.2508665799494558,0.1879325390139191,0.2862923112041523
2.0,0.0,2.0,0.0,0.0,0.0,0.0,0.0,78.3086093000602,81.79838970000856,None,right,1.2708175000734627,84.10845369996969,fj4,78.3086093000602,81.79838970000856,84.10845369996969,None,True,4.0,['p'],False,0.375,0.5,0.25,1.0,1.0,0.9850568223215076,0.0365041143210029,succ_gain,1.0,5.0,,,fj4,1,2022-05-05_11h29.50.201,threat_forest,2021.2.3,60.05692195058074,True,3.0,0.35,0.4741071428571428,-1.4225000000000003,-0.7335714285714288,0,0,1,0.2396603942292201,0.0365041143210029,0.375,0.375,0.5,0.75,-1.25,-1.125,2.875,2.875,0.0,1.0,-1.0,4.0,0,0,0,0.48148435686337854,0.24965717095923728,0.28535504528897904,0.43000860031370797,0.24510120396995366,0.28221954958382556,0.5134219864495955,0.24981985027974687,0.27351518827565474,0.45951922659365085,0.24836130698442382,0.252783554588043,0.4242947577212008,0.2442687162915083,0.2699795456992009,0.35937604761673414,0.23022490401610898,0.2913921933524413,0.47599311089532764,0.249423669275516,0.262166526875954,0.309603252920687,0.21374907870161614,0.3390130053098759,0.37445173999320985,0.23423763440926743,0.40692798743640846,0.4219408852142907,0.24390677459887153,0.3388347064410849
2.0,0.0,2.0,0.0,1.0,0.0,1.0,0.0,,,,right,1.3105655999388546,89.70318569999654,fj4,78.3086093000602,81.79838970000856,89.70318569999654,None,True,5.0,['p'],False,0.375,0.5,0.25,1.0,1.0,0.9850568223215076,0.0614399095687865,unsucc_cost,1.0,3.0,87.42158650001511,None,fj4,1,2022-05-05_11h29.50.201,threat_forest,2021.2.3,60.05692195058074,True,3.0,0.35,0.4741071428571428,-1.4225000000000003,-0.7335714285714288,0,0,1,0.2704587997119118,0.0614399095687865,0.375,0.375,0.5,0.75,-1.25,-1.125,3.875,3.875,0.0,1.0,1.0,5.0,0,0,0,0.48148435686337854,0.24965717095923728,0.28535504528897904,0.43000860031370797,0.24510120396995366,0.28221954958382556,0.1090912571941992,0.0971903547979883,0.2984866986462855,0.45951922659365085,0.24836130698442382,0.252783554588043,0.4242947577212008,0.2442687162915083,0.2699795456992009,0.35937604761673414,0.23022490401610898,0.2913921933524413,0.47599311089532764,0.249423669275516,0.262166526875954,0.309603252920687,0.21374907870161614,0.3390130053098759,0.37445173999320985,0.23423763440926743,0.40692798743640846,0.5372225498267733,0.24861448178439338,0.3432537790557707
2.0,0.0,2.0,0.0,2.0,0.0,2.0,0.0,,,,right,1.6464611999690533,95.64999369997533,fj4,95.64999369997533,None,91.03515450004488,93.0496373999631,False,3.0,['p'],True,0.16,0.2,0.2,2.0,1.0,0.8198746470064713,-0.0265462120898438,wait_cost,0.0,2.0,93.0496373999631,None,fj4,1,2022-05-05_11h29.50.201,threat_forest,2021.2.3,60.05692195058074,False,3.0,0.35,0.4741071428571428,-1.4225000000000003,-0.7335714285714288,0,0,0,0.4986282573996519,-0.0265462120898438,0.16,0.16,0.2,0.8,-2.0,-1.7200000000000004,1.2799999999999996,1.2799999999999996,1.0,1.0,-1.0,3.0,0,0,0,0.4270816798925621,0.24468291859270924,0.26730087303495265,0.4525050925852345,0.2477442337696629,0.2884004316508646,0.5134219864495955,0.24981985027974687,0.27351518827565474,0.41767154027835535,0.24322202471986157,0.3553267616892457,0.34516385676533373,0.22602576874821392,0.3901533358260676,0.35937604761673414,0.23022490401610898,0.2913921933524413,0.3182443282572651,0.2169648757893472,0.30832017122542,0.309603252920687,0.21374907870161614,0.3390130053098759,0.11379797445482359,0.10084799546480291,0.20608642297868796,0.18422509541564647,0.15028620963474246,0.25095411860912564
2.0,0.0,2.0,0.0,3.0,0.0,3.0,0.0,,,,left,1.635444000014104,102.25841790006962,fj4,97.31274259998465,99.32716630003415,102.25841790006962,None,False,2.0,['p'],False,0.375,0.5,0.25,1.0,1.0,0.9850568223215076,0.0506547607421876,wait_cost,1.0,1.0,99.32716630003416,None,fj4,1,2022-05-05_11h29.50.201,threat_forest,2021.2.3,60.05692195058074,False,3.0,0.35,0.4741071428571428,-1.4225000000000003,-0.7335714285714288,0,0,0,0.491914327125225,0.0506547607421876,0.375,0.375,0.5,0.75,-1.25,-1.125,0.875,0.875,0.0,1.0,-1.0,2.0,0,0,0,0.48148435686337854,0.24965717095923728,0.28535504528897904,0.43000860031370797,0.24510120396995366,0.28221954958382556,0.5134219864495955,0.24981985027974687,0.27351518827565474,0.45951922659365085,0.24836130698442382,0.252783554588043,0.4242947577212008,0.2442687162915083,0.2699795456992009,0.35937604761673414,0.23022490401610898,0.2913921933524413,0.47599311089532764,0.249423669275516,0.262166526875954,0.309603252920687,0.21374907870161614,0.3390130053098759,0.37445173999320985,0.23423763440926743,0.40692798743640846,0.48712492546221287,0.24983423245564645,0.3443987455066698
2.0,0.0,2.0,0.0,4.0,0.0,4.0,0.0,,,,right,0.9985860999440774,108.46886739996262,fj4,97.31274259998465,99.32716630003415,108.46886739996262,None,True,1.0,['p'],False,0.375,0.5,0.25,1.0,1.0,0.9850568223215076,0.12046875,succ_gain,1.0,2.0,105.93768770003226,None,fj4,1,2022-05-05_11h29.50.201,threat_forest,2021.2.3,60.05692195058074,True,3.0,0.35,0.4741071428571428,-1.4225000000000003,-0.7335714285714288,0,0,1,-0.001414900555789,0.12046875,1.0,0.375,0.5,0.75,-1.25,-1.125,-0.125,0.0,0.0,1.0,-1.0,1.0,1,0,0,0.48148435686337854,0.24965717095923728,0.28535504528897904,0.43000860031370797,0.24510120396995366,0.28221954958382556,0.5134219864495955,0.24981985027974687,0.27351518827565474,0.45951922659365085,0.24836130698442382,0.252783554588043,0.4242947577212008,0.2442687162915083,0.2699795456992009,0.35937604761673414,0.23022490401610898,0.2913921933524413,0.47599311089532764,0.249423669275516,0.262166526875954,0.9999995797539468,4.202458766016978e-07,0.031323705033554285,0.98132471974634,0.018326514161107362,0.08183581747773844,0.7768682033082589,0.17334399799685665,0.27259820926531747
2.0,0.0,2.0,0.0,5.0,0.0,5.0,0.0,,,,right,0.8294141999213025,114.49703359999694,fj4,97.31274259998465,99.32716630003415,114.49703359999694,None,True,2.0,['p'],False,0.375,0.5,0.25,1.0,1.0,0.9850568223215076,0.1075,succ_gain,1.0,3.0,111.4991612000158,None,fj4,1,2022-05-05_11h29.50.201,threat_forest,2021.2.3,60.05692195058074,True,3.0,0.35,0.4741071428571428,-1.4225000000000003,-0.7335714285714288,0,0,1,-0.1870356106010745,0.1075,0.375,0.375,0.5,0.75,-1.25,-1.125,0.875,0.875,0.0,1.0,1.0,2.0,0,0,0,0.48148435686337854,0.24965717095923728,0.28535504528897904,0.43000860031370797,0.24510120396995366,0.28221954958382556,0.1090912571941992,0.0971903547979883,0.2984866986462855,0.45951922659365085,0.24836130698442382,0.252783554588043,0.4242947577212008,0.2442687162915083,0.2699795456992009,0.35937604761673414,0.23022490401610898,0.2913921933524413,0.47599311089532764,0.249423669275516,0.262166526875954,0.309603252920687,0.21374907870161614,0.3390130053098759,0.37445173999320985,0.23423763440926743,0.40692798743640846,0.7322758762130864,0.1960479173294429,0.29391012698127594
2.0,0.0,2.0,0.0,6.0,0.0,6.0,0.0,,,,right,1.4373272999655455,118.43153519998305,fj4,118.43153519998305,None,115.34583100001328,117.36037430004217,False,3.0,['p'],True,0.16,0.2,0.2,2.0,1.0,0.8198746470064713,-0.6688000000000001,wait_cost,0.0,2.0,117.36037430004215,None,fj4,1,2022-05-05_11h29.50.201,threat_forest,2021.2.3,60.05692195058074,False,3.0,0.35,0.4741071428571428,-1.4225000000000003,-0.7335714285714288,0,0,0,0.3627853473176791,-0.6688000000000001,0.0,0.16,0.2,0.8,-2.0,-1.7200000000000004,1.2799999999999996,1.2799999999999996,1.0,1.0,1.0,3.0,0,0,0,0.4270816798925621,0.24468291859270924,0.26730087303495265,0.4525050925852345,0.2477442337696629,0.2884004316508646,0.1090912571941992,0.0971903547979883,0.2984866986462855,0.41767154027835535,0.24322202471986157,0.3553267616892457,0.34516385676533373,0.22602576874821392,0.3901533358260676,0.35937604761673414,0.23022490401610898,0.2913921933524413,0.3182443282572651,0.2169648757893472,0.30832017122542,0.309603252920687,0.21374907870161614,0.3390130053098759,0.03923779515821365,0.037698190589335726,0.11100328378772645,1.4581909465044397e-06,1.4581888201836043e-06,0.10988348627201185
2.0,0.0,2.0,0.0,7.0,0.0,7.0,0.0,,,,right,1.7045364000368863,124.23762560007162,fj4,124.23762560007162,None,115.34583100001328,117.36037430004217,False,2.0,['p'],True,0.16,0.2,0.2,2.0,1.0,0.8198746470064713,-0.8400000000000001,wait_cost,0.0,1.0,121.90609299996868,None,fj4,1,2022-05-05_11h29.50.201,threat_forest,2021.2.3,60.05692195058074,False,3.0,0.35,0.4741071428571428,-1.4225000000000003,-0.7335714285714288,0,0,0,0.5332931676255807,-0.8400000000000001,0.0,0.16,0.2,0.8,-2.0,-1.7200000000000004,0.2799999999999996,0.2799999999999996,1.0,1.0,-1.0,2.0,0,0,0,0.4270816798925621,0.24468291859270924,0.26730087303495265,0.4525050925852345,0.2477442337696629,0.2884004316508646,0.5134219864495955,0.24981985027974687,0.27351518827565474,0.41767154027835535,0.24322202471986157,0.3553267616892457,0.34516385676533373,0.22602576874821392,0.3901533358260676,0.35937604761673414,0.23022490401610898,0.2913921933524413,0.3182443282572651,0.2169648757893472,0.30832017122542,0.309603252920687,0.21374907870161614,0.3390130053098759,0.03923779515821365,0.037698190589335726,0.11100328378772645,6.03075445508318e-08,6.030754091383192e-08,0.10988217409633134
3.0,0.0,3.0,0.0,0.0,0.0,0.0,0.0,129.48851010005455,132.99566630006302,None,left,0.9350997000001372,133.91218240000308,fj4,133.91218240000308,None,129.48851010005455,132.99566630006302,True,4.0,['p'],True,0.4444444444444445,0.6666666666666666,0.3333333333333333,1.0,2.0,0.9656336071428248,0.0696585132666405,figh_cost,0.0,1.0,,,fj4,1,2022-05-05_11h29.50.201,threat_forest,2021.2.3,60.05692195058074,True,29.0,0.4761904761904761,0.413095238095238,-0.8594104308390023,-1.1409552154195013,1,1,1,-0.0671021243619432,0.0696585132666405,0.4444444444444445,0.4444444444444445,0.6666666666666666,0.6666666666666667,-0.3333333333333335,-0.5555555555555556,3.4444444444444446,3.4444444444444446,1.0,2.0,-1.0,4.0,0,1,1,0.4270816798925621,0.24468291859270924,0.26730087303495265,0.3931908368717842,0.23859180267185012,0.26699692827435906,0.5134219864495955,0.24981985027974687,0.27351518827565474,0.4830565080929332,0.2497129180819951,0.22581509293061686,0.5261061182825468,0.2493184705882177,0.23671473958139444,0.5617301678932961,0.2461893863718655,0.2568023693571385,0.5296985584720459,0.2491179956246825,0.2626011688158519,0.309603252920687,0.21374907870161614,0.3390130053098759,0.4960105919388915,0.24998408462332192,0.43063703800939196,0.5749530268772207,0.24438204376194259,0.33928083634261974
3.0,0.0,3.0,0.0,1.0,0.0,1.0,0.0,,,,right,1.88802760001272,138.50914890004788,fj4,134.87746320001315,136.89208000001963,138.50914890004788,None,True,1.0,['p'],False,0.2448979591836734,0.2857142857142857,0.1428571428571428,1.0,2.0,0.8400769154957735,0.0714299722683335,unsucc_cost,1.0,0.0,136.89208000001963,None,fj4,1,2022-05-05_11h29.50.201,threat_forest,2021.2.3,60.05692195058074,True,29.0,0.4761904761904761,0.413095238095238,-0.8594104308390023,-1.1409552154195013,0,0,1,0.6355326862672627,0.0714299722683335,1.0,0.2448979591836734,0.2857142857142857,0.8571428571428572,-1.2857142857142856,-1.163265306122449,-0.1632653061224489,0.0,0.0,2.0,-1.0,1.0,1,0,0,0.48148435686337854,0.24965717095923728,0.28535504528897904,0.47844965811494894,0.24953558276463741,0.29258960760342645,0.5134219864495955,0.24981985027974687,0.27351518827565474,0.4295345441187593,0.24503461952744893,0.31916037206969694,0.42040057086213445,0.2436639308809259,0.27396351565968224,0.35937604761673414,0.23022490401610898,0.2913921933524413,0.3777841118049065,0.2350632766726844,0.2825857840856286,0.9999995797539468,4.202458766016978e-07,0.031323705033554285,0.98132471974634,0.018326514161107362,0.08183581747773844,0.5829876010750501,0.2431130580678083,0.33808965352083703
4.0,0.0,4.0,0.0,0.0,0.0,0.0,0.0,144.32248069997877,147.83183909999207,None,right,1.563963899970986,149.0147246000124,fj4,149.0147246000124,None,144.32248069997877,147.83183909999207,False,4.0,['r'],True,0.2222222222222222,0.6666666666666666,0.6666666666666666,2.0,2.0,0.77250688571426,-0.0033451223961741,wait_cost,0.0,3.0,,,fj4,1,2022-05-05_11h29.50.201,threat_forest,2021.2.3,60.05692195058074,False,34.0,0.4583333333333333,0.4672619047619047,-1.3888888888888888,-1.1241496598639455,0,0,0,0.4472235599967457,-0.0033451223961741,0.2222222222222222,0.2222222222222222,0.6666666666666666,0.3333333333333333,-1.3333333333333337,-1.777777777777778,2.2222222222222223,2.2222222222222223,1.0,2.0,-1.0,4.0,0,0,0,0.4270816798925621,0.24468291859270924,0.26730087303495265,0.2607002706211708,0.1927356395192191,0.1597595688906343,0.5134219864495955,0.24981985027974687,0.27351518827565474,0.4830565080929332,0.2497129180819951,0.22581509293061686,0.41522377375537417,0.24281299146371998,0.2795690031880158,0.35937604761673414,0.23022490401610898,0.2913921933524413,0.36142606787593057,0.23079726533567377,0.2886516894657247,0.309603252920687,0.21374907870161614,0.3390130053098759,0.167002448387926,0.1391126306203641,0.2637005618942782,0.2580209045400059,0.19144611736036307,0.28959046829813534
4.0,0.0,4.0,0.0,1.0,0.0,1.0,0.0,,,,right,1.1069024000316858,153.9097563000396,fj4,150.59605309995823,152.61065240006428,153.9097563000396,None,True,3.0,['r'],False,0.25,0.25,0.0,0.0,2.0,0.5118595071429148,0.0633364704901298,unsucc_cost,1.0,1.0,152.61065240006428,None,fj4,1,2022-05-05_11h29.50.201,threat_forest,2021.2.3,60.05692195058074,True,34.0,0.4583333333333333,0.4672619047619047,-1.3888888888888888,-1.1241496598639455,1,0,1,0.1015654836532608,0.0633364704901298,0.25,0.25,0.25,1.0,-1.0,-1.0,2.0,2.0,0.0,2.0,-1.0,3.0,0,0,1,0.48148435686337854,0.24965717095923728,0.28535504528897904,0.5435130337698874,0.24810661589214064,0.28924788375393384,0.5134219864495955,0.24981985027974687,0.27351518827565474,0.4245809656389042,0.2443119692560399,0.3335792875190018,0.45179157299423245,0.24767594756562958,0.24753471352072687,0.5617301678932961,0.2461893863718655,0.2568023693571385,0.3815048751637782,0.2359589053900482,0.28131227620530674,0.309603252920687,0.21374907870161614,0.3390130053098759,0.19652771971372793,0.15790457509785033,0.29199513977848934,0.5459835044627148,0.24788551731732744,0.3425695081811086
4.0,0.0,4.0,0.0,2.0,0.0,2.0,0.0,,,,right,2.239364299923181,159.10491270001512,fj4,150.59605309995823,152.61065240006428,159.10491270001512,None,True,1.0,['r'],False,0.25,0.25,0.0,0.0,2.0,0.5118595071429148,0.0691086254983281,unsucc_cost,1.0,0.0,157.05652880005073,None,fj4,1,2022-05-05_11h29.50.201,threat_forest,2021.2.3,60.05692195058074,True,34.0,0.4583333333333333,0.4672619047619047,-1.3888888888888888,-1.1241496598639455,1,0,1,0.8061920309124673,0.0691086254983281,1.0,0.25,0.25,1.0,-1.0,-1.0,0.0,0.0,0.0,2.0,-1.0,1.0,1,0,1,0.48148435686337854,0.24965717095923728,0.28535504528897904,0.5435130337698874,0.24810661589214064,0.28924788375393384,0.5134219864495955,0.24981985027974687,0.27351518827565474,0.4245809656389042,0.2443119692560399,0.3335792875190018,0.45179157299423245,0.24767594756562958,0.24753471352072687,0.5617301678932961,0.2461893863718655,0.2568023693571385,0.3815048751637782,0.2359589053900482,0.28131227620530674,0.9999995797539468,4.202458766016978e-07,0.031323705033554285,0.98132471974634,0.018326514161107362,0.08183581747773844,0.5724506883776259,0.24475089775360817,0.3396270755009089
5.0,0.0,5.0,0.0,0.0,0.0,0.0,0.0,164.87463800003752,168.3792739000637,None,left,1.8706096999812871,172.04394300002605,fj4,172.04394300002605,None,164.87463800003752,168.3792739000637,True,4.0,['r'],True,0.2040816326530612,0.2857142857142857,0.2857142857142857,2.0,1.0,0.9335459102197724,0.0023337396678889,succ_gain,0.0,5.0,,,fj4,1,2022-05-05_11h29.50.201,threat_forest,2021.2.3,60.05692195058074,True,32.0,0.2678571428571428,0.3630952380952381,-1.461734693877551,-1.42531179138322,0,0,1,0.6262644204968433,0.0023337396678889,0.2040816326530612,0.2040816326530612,0.2857142857142857,0.7142857142857143,-2.0,-1.673469387755102,2.326530612244898,2.326530612244898,1.0,1.0,-1.0,4.0,0,0,0,0.4270816798925621,0.24468291859270924,0.26730087303495265,0.4141093377172253,0.24262279413262636,0.27642364107004536,0.5134219864495955,0.24981985027974687,0.27351518827565474,0.4295345441187593,0.24503461952744893,0.31916037206969694,0.34516385676533373,0.22602576874821392,0.3901533358260676,0.35937604761673414,0.23022490401610898,0.2913921933524413,0.34856508071465137,0.22706746522103993,0.29395514808191636,0.309603252920687,0.21374907870161614,0.3390130053098759,0.14970648053774385,0.12729445022274596,0.2459062125063965,0.2787612342590312,0.20105340853341275,0.29860872615722744
5.0,0.0,5.0,0.0,1.0,0.0,1.0,0.0,,,,right,1.2792256000684574,179.35277710005175,fj4,179.35277710005175,None,164.87463800003752,168.3792739000637,False,5.0,['r'],True,0.2040816326530612,0.2857142857142857,0.2857142857142857,2.0,1.0,0.9335459102197724,0.0005939157599406,wait_cost,0.0,4.0,175.95552299998235,None,fj4,1,2022-05-05_11h29.50.201,threat_forest,2021.2.3,60.05692195058074,False,32.0,0.2678571428571428,0.3630952380952381,-1.461734693877551,-1.42531179138322,0,0,0,0.2462548948986919,0.0005939157599406,0.2040816326530612,0.2040816326530612,0.2857142857142857,0.7142857142857143,-2.0,-1.673469387755102,3.326530612244898,3.326530612244898,1.0,1.0,1.0,5.0,0,0,0,0.4270816798925621,0.24468291859270924,0.26730087303495265,0.4141093377172253,0.24262279413262636,0.27642364107004536,0.1090912571941992,0.0971903547979883,0.2984866986462855,0.4295345441187593,0.24503461952744893,0.31916037206969694,0.34516385676533373,0.22602576874821392,0.3901533358260676,0.35937604761673414,0.23022490401610898,0.2913921933524413,0.34856508071465137,0.22706746522103993,0.29395514808191636,0.309603252920687,0.21374907870161614,0.3390130053098759,0.14970648053774385,0.12729445022274596,0.2459062125063965,0.2722994415949568,0.1981524557020315,0.2958856338516827
5.0,0.0,5.0,0.0,2.0,0.0,2.0,0.0,,,,right,1.948655000072904,183.59876600001007,fj4,183.59876600001007,None,164.87463800003752,168.3792739000637,False,4.0,['r'],True,0.2040816326530612,0.2857142857142857,0.2857142857142857,2.0,1.0,0.9335459102197724,-0.0021630960258077,wait_cost,0.0,3.0,182.6659107999876,None,fj4,1,2022-05-05_11h29.50.201,threat_forest,2021.2.3,60.05692195058074,False,32.0,0.2678571428571428,0.3630952380952381,-1.461734693877551,-1.42531179138322,0,0,0,0.6671393910407769,-0.0021630960258077,0.2040816326530612,0.2040816326530612,0.2857142857142857,0.7142857142857143,-2.0,-1.673469387755102,2.326530612244898,2.326530612244898,1.0,1.0,-1.0,4.0,0,0,0,0.4270816798925621,0.24468291859270924,0.26730087303495265,0.4141093377172253,0.24262279413262636,0.27642364107004536,0.5134219864495955,0.24981985027974687,0.27351518827565474,0.4295345441187593,0.24503461952744893,0.31916037206969694,0.34516385676533373,0.22602576874821392,0.3901533358260676,0.35937604761673414,0.23022490401610898,0.2913921933524413,0.34856508071465137,0.22706746522103993,0.29395514808191636,0.309603252920687,0.21374907870161614,0.3390130053098759,0.14970648053774385,0.12729445022274596,0.2459062125063965,0.26225389164807217,0.19347678796351336,0.29149663631118145
5.0,0.0,5.0,0.0,3.0,0.0,3.0,0.0,,,,left,0.9442505999468268,190.2426107999636,fj4,190.2426107999636,None,164.87463800003752,168.3792739000637,True,3.0,['r'],True,0.2040816326530612,0.2857142857142857,0.2857142857142857,2.0,1.0,0.9335459102197724,0.0251313792775544,unsucc_cost,0.0,1.0,187.59463529998905,None,fj4,1,2022-05-05_11h29.50.201,threat_forest,2021.2.3,60.05692195058074,True,32.0,0.2678571428571428,0.3630952380952381,-1.461734693877551,-1.42531179138322,0,0,1,-0.0573636820211448,0.0251313792775544,0.2040816326530612,0.2040816326530612,0.2857142857142857,0.7142857142857143,-2.0,-1.673469387755102,1.326530612244898,1.326530612244898,1.0,1.0,-1.0,3.0,0,0,0,0.4270816798925621,0.24468291859270924,0.26730087303495265,0.4141093377172253,0.24262279413262636,0.27642364107004536,0.5134219864495955,0.24981985027974687,0.27351518827565474,0.4295345441187593,0.24503461952744893,0.31916037206969694,0.34516385676533373,0.22602576874821392,0.3901533358260676,0.35937604761673414,0.23022490401610898,0.2913921933524413,0.34856508071465137,0.22706746522103993,0.29395514808191636,0.309603252920687,0.21374907870161614,0.3390130053098759,0.14970648053774385,0.12729445022274596,0.2459062125063965,0.37135180597808,0.2334496421748984,0.32901871200858485
5.0,0.0,5.0,0.0,4.0,0.0,4.0,0.0,,,,left,1.8170412000035867,194.70504030003207,fj4,194.70504030003207,None,164.87463800003752,168.3792739000637,True,1.0,['r'],True,0.2040816326530612,0.2857142857142857,0.2857142857142857,2.0,1.0,0.9335459102197724,0.0486776343190338,figh_cost,0.0,0.0,193.2227277000202,None,fj4,1,2022-05-05_11h29.50.201,threat_forest,2021.2.3,60.05692195058074,True,32.0,0.2678571428571428,0.3630952380952381,-1.461734693877551,-1.42531179138322,0,0,1,0.5972094638975202,0.0486776343190338,1.0,0.2040816326530612,0.2857142857142857,0.7142857142857143,-2.0,-1.673469387755102,-0.6734693877551021,0.0,1.0,1.0,-1.0,1.0,1,0,0,0.4270816798925621,0.24468291859270924,0.26730087303495265,0.4141093377172253,0.24262279413262636,0.27642364107004536,0.5134219864495955,0.24981985027974687,0.27351518827565474,0.4295345441187593,0.24503461952744893,0.31916037206969694,0.34516385676533373,0.22602576874821392,0.3901533358260676,0.35937604761673414,0.23022490401610898,0.2913921933524413,0.34856508071465137,0.22706746522103993,0.29395514808191636,0.9999995797539468,4.202458766016978e-07,0.031323705033554285,0.98132471974634,0.018326514161107362,0.08183581747773844,0.47793937708163065,0.2495133289164535,0.3440975169072436
6.0,0.0,6.0,0.0,0.0,0.0,0.0,0.0,200.72157599998167,204.2291711999569,None,right,0.997157400008291,205.91137650003657,fj4,200.72157599998167,204.2291711999569,205.91137650003657,None,True,4.0,['r'],False,0.36,0.6,0.4,2.0,2.0,0.9801625908629508,-0.0020350304999999,succ_gain,1.0,6.0,,,fj4,1,2022-05-05_11h29.50.201,threat_forest,2021.2.3,60.05692195058074,True,18.0,0.55,0.4089285714285714,-0.4800000000000001,-0.9708673469387756,1,0,1,-0.0028466478518501,-0.0020350304999999,0.36,0.36,0.6,0.6,-0.8000000000000003,-0.9600000000000002,3.04,3.04,0.0,2.0,-1.0,4.0,0,0,1,0.48148435686337854,0.24965717095923728,0.28535504528897904,0.3645657220608021,0.23165755635908813,0.2507807816808938,0.5134219864495955,0.24981985027974687,0.27351518827565474,0.4736266823046265,0.24930444811373895,0.23396522331717673,0.4740113502656756,0.24932459008498656,0.23667442794213578,0.5617301678932961,0.2461893863718655,0.2568023693571385,0.46442293477957997,0.2487342724303019,0.26314679057008095,0.309603252920687,0.21374907870161614,0.3390130053098759,0.34965355559101896,0.22739594665357718,0.3966266230781456,0.26271518831802737,0.1936959181450508,0.2917023313865381
6.0,0.0,6.0,0.0,1.0,0.0,1.0,0.0,,,,left,1.3762726000277326,212.28867839998568,fj4,200.72157599998167,204.2291711999569,212.28867839998568,None,False,6.0,['r'],False,0.36,0.6,0.4,2.0,2.0,0.9801625908629508,-0.1255866,wait_cost,1.0,5.0,208.94160400005052,None,fj4,1,2022-05-05_11h29.50.201,threat_forest,2021.2.3,60.05692195058074,False,18.0,0.55,0.4089285714285714,-0.4800000000000001,-0.9708673469387756,1,0,0,0.3193788303751319,-0.1255866,0.36,0.36,0.6,0.6,-0.8000000000000003,-0.9600000000000002,5.04,5.04,0.0,2.0,1.0,6.0,0,0,1,0.48148435686337854,0.24965717095923728,0.28535504528897904,0.3645657220608021,0.23165755635908813,0.2507807816808938,0.1090912571941992,0.0971903547979883,0.2984866986462855,0.4736266823046265,0.24930444811373895,0.23396522331717673,0.4740113502656756,0.24932459008498656,0.23667442794213578,0.5617301678932961,0.2461893863718655,0.2568023693571385,0.46442293477957997,0.2487342724303019,0.26314679057008095,0.309603252920687,0.21374907870161614,0.3390130053098759,0.34965355559101896,0.22739594665357718,0.3966266230781456,0.034529161151499045,0.03333689818167286,0.14117509472717718
6.0,0.0,6.0,0.0,2.0,0.0,2.0,0.0,,,,left,1.4469049000181258,218.2664171999786,fj4,200.72157599998167,204.2291711999569,218.2664171999786,None,False,5.0,['r'],False,0.36,0.6,0.4,2.0,2.0,0.9801625908629508,-0.050683,wait_cost,1.0,4.0,215.7017095000483,None,fj4,1,2022-05-05_11h29.50.201,threat_forest,2021.2.3,60.05692195058074,False,18.0,0.55,0.4089285714285714,-0.4800000000000001,-0.9708673469387756,1,0,0,0.3694267233182481,-0.050683,0.36,0.36,0.6,0.6,-0.8000000000000003,-0.9600000000000002,4.04,4.04,0.0,2.0,-1.0,5.0,0,0,1,0.48148435686337854,0.24965717095923728,0.28535504528897904,0.3645657220608021,0.23165755635908813,0.2507807816808938,0.5134219864495955,0.24981985027974687,0.27351518827565474,0.4736266823046265,0.24930444811373895,0.23396522331717673,0.4740113502656756,0.24932459008498656,0.23667442794213578,0.5617301678932961,0.2461893863718655,0.2568023693571385,0.46442293477957997,0.2487342724303019,0.26314679057008095,0.309603252920687,0.21374907870161614,0.3390130053098759,0.34965355559101896,0.22739594665357718,0.3966266230781456,0.1259678799446854,0.11009997316692673,0.21323174335002637
6.0,0.0,6.0,0.0,3.0,0.0,3.0,0.0,,,,left,0.9700356000103056,224.47719840006903,fj4,224.47719840006903,None,219.7317112999736,221.74606190004852,True,4.0,['r'],True,0.5,0.5,0.0,0.0,2.0,0.6309297535714574,0.1425,succ_gain,0.0,6.0,221.7460619000485,None,fj4,1,2022-05-05_11h29.50.201,threat_forest,2021.2.3,60.05692195058074,True,18.0,0.55,0.4089285714285714,-0.4800000000000001,-0.9708673469387756,1,1,1,-0.030422507116623,0.1425,0.5,0.5,0.5,1.0,0.0,0.0,4.0,4.0,1.0,2.0,-1.0,4.0,0,1,1,0.4270816798925621,0.24468291859270924,0.26730087303495265,0.5435130337698874,0.24810661589214064,0.28924788375393384,0.5134219864495955,0.24981985027974687,0.27351518827565474,0.45951922659365085,0.24836130698442382,0.252783554588043,0.5630369408780626,0.24602634408473564,0.25840132934774895,0.5617301678932961,0.2461893863718655,0.2568023693571385,0.5722318209775356,0.24478256403826923,0.26876578388775907,0.309603252920687,0.21374907870161614,0.3390130053098759,0.5943091190473485,0.24110579006451305,0.4172692038731137,0.8398941473253635,0.13447196861396413,0.23610946564687563
6.0,0.0,6.0,0.0,4.0,0.0,4.0,0.0,,,,right,1.1326807000441477,229.25610330002385,fj4,229.25610330002385,None,219.7317112999736,221.74606190004852,False,6.0,['r'],True,0.5,0.5,0.0,0.0,2.0,0.6309297535714574,0.0,wait_cost,0.0,5.0,227.4907799999928,None,fj4,1,2022-05-05_11h29.50.201,threat_forest,2021.2.3,60.05692195058074,False,18.0,0.55,0.4089285714285714,-0.4800000000000001,-0.9708673469387756,1,1,0,0.1245871241848211,0.0,0.0,0.5,0.5,1.0,0.0,0.0,6.0,6.0,1.0,2.0,1.0,6.0,0,1,1,0.4270816798925621,0.24468291859270924,0.26730087303495265,0.5435130337698874,0.24810661589214064,0.28924788375393384,0.1090912571941992,0.0971903547979883,0.2984866986462855,0.45951922659365085,0.24836130698442382,0.252783554588043,0.5630369408780626,0.24602634408473564,0.25840132934774895,0.5617301678932961,0.2461893863718655,0.2568023693571385,0.5722318209775356,0.24478256403826923,0.26876578388775907,0.309603252920687,0.21374907870161614,0.3390130053098759,0.03923779515821365,0.037698190589335726,0.11100328378772645,0.27011519448945237,0.1971529761953777,0.2949474335043083
6.0,0.0,6.0,0.0,5.0,0.0,5.0,0.0,,,,right,1.3737595999846235,232.9692553000059,fj4,232.9692553000059,None,219.7317112999736,221.74606190004852,False,5.0,['r'],True,0.5,0.5,0.0,0.0,2.0,0.6309297535714574,0.0,wait_cost,0.0,4.0,232.4360694000497,None,fj4,1,2022-05-05_11h29.50.201,threat_forest,2021.2.3,60.05692195058074,False,18.0,0.55,0.4089285714285714,-0.4800000000000001,-0.9708673469387756,1,1,0,0.3175512148711485,0.0,0.0,0.5,0.5,1.0,0.0,0.0,5.0,5.0,1.0,2.0,-1.0,5.0,0,1,1,0.4270816798925621,0.24468291859270924,0.26730087303495265,0.5435130337698874,0.24810661589214064,0.28924788375393384,0.5134219864495955,0.24981985027974687,0.27351518827565474,0.45951922659365085,0.24836130698442382,0.252783554588043,0.5630369408780626,0.24602634408473564,0.25840132934774895,0.5617301678932961,0.2461893863718655,0.2568023693571385,0.5722318209775356,0.24478256403826923,0.26876578388775907,0.309603252920687,0.21374907870161614,0.3390130053098759,0.03923779515821365,0.037698190589335726,0.11100328378772645,0.27011519448945237,0.1971529761953777,0.2949474335043083
6.0,0.0,6.0,0.0,6.0,0.0,6.0,0.0,,,,right,1.2464211999904364,237.4494703999953,fj4,234.36800849996507,236.3824006000068,237.4494703999953,None,True,4.0,['r'],False,0.36,0.6,0.4,2.0,2.0,0.9801625908629508,-0.228,figh_cost,1.0,1.0,236.3824006000068,None,fj4,1,2022-05-05_11h29.50.201,threat_forest,2021.2.3,60.05692195058074,True,18.0,0.55,0.4089285714285714,-0.4800000000000001,-0.9708673469387756,1,0,1,0.2202764049679021,-0.228,0.0,0.36,0.6,0.6,-0.8000000000000003,-0.9600000000000002,3.04,3.04,0.0,2.0,-1.0,4.0,0,0,1,0.48148435686337854,0.24965717095923728,0.28535504528897904,0.3645657220608021,0.23165755635908813,0.2507807816808938,0.5134219864495955,0.24981985027974687,0.27351518827565474,0.4736266823046265,0.24930444811373895,0.23396522331717673,0.4740113502656756,0.24932459008498656,0.23667442794213578,0.5617301678932961,0.2461893863718655,0.2568023693571385,0.46442293477957997,0.2487342724303019,0.26314679057008095,0.309603252920687,0.21374907870161614,0.3390130053098759,0.03923779515821365,0.037698190589335726,0.11100328378772645,0.005291202743388873,0.005263205916917229,0.11482263061007279
6.0,0.0,6.0,0.0,7.0,0.0,7.0,0.0,,,,right,2.97536919999402,241.54457040003035,fj4,234.36800849996507,236.3824006000068,241.54457040003035,None,True,1.0,['r'],False,0.36,0.6,0.4,2.0,2.0,0.9801625908629508,0.36,unsucc_cost,1.0,0.0,240.7283700000262,None,fj4,1,2022-05-05_11h29.50.201,threat_forest,2021.2.3,60.05692195058074,True,18.0,0.55,0.4089285714285714,-0.4800000000000001,-0.9708673469387756,1,0,1,1.0903681321360472,0.36,1.0,0.36,0.6,0.6,-0.8000000000000003,-0.9600000000000002,0.0399999999999998,0.0399999999999998,0.0,2.0,-1.0,1.0,1,0,1,0.48148435686337854,0.24965717095923728,0.28535504528897904,0.3645657220608021,0.23165755635908813,0.2507807816808938,0.5134219864495955,0.24981985027974687,0.27351518827565474,0.4736266823046265,0.24930444811373895,0.23396522331717673,0.4740113502656756,0.24932459008498656,0.23667442794213578,0.5617301678932961,0.2461893863718655,0.2568023693571385,0.46442293477957997,0.2487342724303019,0.26314679057008095,0.9999995797539468,4.202458766016978e-07,0.031323705033554285,0.98132471974634,0.018326514161107362,0.08183581747773844,0.9966799001692551,0.0033090767678587247,0.11298831121257047
7.0,0.0,7.0,0.0,0.0,0.0,0.0,0.0,247.43355539999905,250.93481120001525,None,right,1.9840055999811737,254.26846110005863,fj4,247.43355539999905,250.93481120001525,254.26846110005863,None,True,4.0,['r'],False,0.345679012345679,0.4444444444444444,0.2222222222222222,2.0,2.0,0.9685033186841367,0.0005482667043862,unsucc_cost,1.0,2.0,,,fj4,1,2022-05-05_11h29.50.201,threat_forest,2021.2.3,60.05692195058074,True,52.0,0.4365079365079364,0.4932539682539683,-0.5626102292768962,-0.5213051146384482,0,0,1,0.6851178314298537,0.0005482667043862,0.345679012345679,0.345679012345679,0.4444444444444444,0.7777777777777778,-0.888888888888889,-0.8395061728395062,3.1604938271604937,3.1604938271604937,0.0,2.0,-1.0,4.0,0,0,0,0.48148435686337854,0.24965717095923728,0.28535504528897904,0.44247706811570114,0.24669111230743426,0.2859376446020697,0.5134219864495955,0.24981985027974687,0.27351518827565474,0.4517082408936528,0.2476679060024145,0.2666188640421767,0.4641178940205553,0.2487124744704799,0.2407066849672972,0.35937604761673414,0.23022490401610898,0.2913921933524413,0.45341195557435593,0.24782955411659416,0.2644332230835109,0.309603252920687,0.21374907870161614,0.3390130053098759,0.32671122623415777,0.21997100088673074,0.38544706118992406,0.27213116622512895,0.1980757945940802,0.29581367291838573
7.0,0.0,7.0,0.0,2.0,0.0,2.0,0.0,,,,left,1.1018699000123888,268.11976869998034,fj4,268.11976869998034,None,263.2410871000029,265.25541890005115,True,1.0,['r'],True,0.4285714285714285,0.4285714285714285,0.0,0.0,2.0,0.6216097450797565,0.2143087570706274,unsucc_cost,0.0,0.0,265.25541890005115,None,fj4,1,2022-05-05_11h29.50.201,threat_forest,2021.2.3,60.05692195058074,True,52.0,0.4365079365079364,0.4932539682539683,-0.5626102292768962,-0.5213051146384482,1,0,1,0.0970086456963379,0.2143087570706274,1.0,0.4285714285714285,0.4285714285714285,1.0,-0.285714285714286,-0.285714285714286,0.714285714285714,0.714285714285714,1.0,2.0,-1.0,1.0,1,0,1,0.4270816798925621,0.24468291859270924,0.26730087303495265,0.5435130337698874,0.24810661589214064,0.28924788375393384,0.5134219864495955,0.24981985027974687,0.27351518827565474,0.4494807232689876,0.24744780267857538,0.2710105474637565,0.5314090765375199,0.24901346991106024,0.23872390434373836,0.5617301678932961,0.2461893863718655,0.2568023693571385,0.517438728736322,0.24969589074006102,0.2617794511005018,0.9999995797539468,4.202458766016978e-07,0.031323705033554285,0.98132471974634,0.018326514161107362,0.08183581747773844,0.9522831059625788,0.04543999206084262,0.15253613495476345
8.0,0.0,8.0,0.0,0.0,0.0,0.0,0.0,273.2401858000085,276.7447156000417,None,right,1.0707629999378696,278.8263732000487,fj4,273.2401858000085,276.7447156000417,278.8263732000487,None,True,4.0,['p'],False,0.4444444444444445,0.6666666666666666,0.3333333333333333,1.0,1.0,0.9656336071428248,0.0476968551938484,unsucc_cost,1.0,2.0,,,fj4,1,2022-05-05_11h29.50.201,threat_forest,2021.2.3,60.05692195058074,True,5.0,0.4444444444444444,0.4404761904761904,-1.259259259259259,-0.9109347442680776,0,1,1,0.0683714784042649,0.0476968551938484,0.4444444444444445,0.4444444444444445,0.6666666666666666,0.6666666666666667,-1.0,-1.0,3.0,3.0,0.0,1.0,-1.0,4.0,0,1,0,0.48148435686337854,0.24965717095923728,0.28535504528897904,0.3931908368717842,0.23859180267185012,0.26699692827435906,0.5134219864495955,0.24981985027974687,0.27351518827565474,0.4830565080929332,0.2497129180819951,0.22581509293061686,0.45179157299423245,0.24767594756562958,0.24753471352072687,0.35937604761673414,0.23022490401610898,0.2913921933524413,0.5296985584720459,0.2491179956246825,0.2626011688158519,0.309603252920687,0.21374907870161614,0.3390130053098759,0.4960105919388915,0.24998408462332192,0.43063703800939196,0.47338790985064105,0.24929179665788237,0.34388956702876944
8.0,0.0,8.0,0.0,1.0,0.0,1.0,0.0,,,,left,2.791999200009741,285.4369118000613,fj4,273.2401858000085,276.7447156000417,285.4369118000613,None,False,2.0,['p'],False,0.4444444444444445,0.6666666666666666,0.3333333333333333,1.0,1.0,0.9656336071428248,0.034059711281816,wait_cost,1.0,1.0,281.93981989996973,None,fj4,1,2022-05-05_11h29.50.201,threat_forest,2021.2.3,60.05692195058074,False,5.0,0.4444444444444444,0.4404761904761904,-1.259259259259259,-0.9109347442680776,0,1,0,1.0267578983706225,0.034059711281816,0.4444444444444445,0.4444444444444445,0.6666666666666666,0.6666666666666667,-1.0,-1.0,1.0,1.0,0.0,1.0,-1.0,2.0,0,1,0,0.48148435686337854,0.24965717095923728,0.28535504528897904,0.3931908368717842,0.23859180267185012,0.26699692827435906,0.5134219864495955,0.24981985027974687,0.27351518827565474,0.4830565080929332,0.2497129180819951,0.22581509293061686,0.45179157299423245,0.24767594756562958,0.24753471352072687,0.35937604761673414,0.23022490401610898,0.2913921933524413,0.5296985584720459,0.2491179956246825,0.2626011688158519,0.309603252920687,0.21374907870161614,0.3390130053098759,0.4960105919388915,0.24998408462332192,0.43063703800939196,0.410888494392381,0.24205913956834327,0.33710035189362025
8.0,0.0,8.0,0.0,2.0,0.0,2.0,0.0,,,,right,1.110972399939783,293.09639119997155,fj4,273.2401858000085,276.7447156000417,293.09639119997155,None,True,1.0,['p'],False,0.4444444444444445,0.6666666666666666,0.3333333333333333,1.0,1.0,0.9656336071428248,0.0694949099607377,figh_cost,1.0,0.0,290.2654201000696,None,fj4,1,2022-05-05_11h29.50.201,threat_forest,2021.2.3,60.05692195058074,True,5.0,0.4444444444444444,0.4404761904761904,-1.259259259259259,-0.9109347442680776,0,1,1,0.1052356678104627,0.0694949099607377,1.0,0.4444444444444445,0.6666666666666666,0.6666666666666667,-1.0,-1.0,0.0,0.0,0.0,1.0,-1.0,1.0,1,1,0,0.48148435686337854,0.24965717095923728,0.28535504528897904,0.3931908368717842,0.23859180267185012,0.26699692827435906,0.5134219864495955,0.24981985027974687,0.27351518827565474,0.4830565080929332,0.2497129180819951,0.22581509293061686,0.45179157299423245,0.24767594756562958,0.24753471352072687,0.35937604761673414,0.23022490401610898,0.2913921933524413,0.5296985584720459,0.2491179956246825,0.2626011688158519,0.9999995797539468,4.202458766016978e-07,0.031323705033554285,0.98132471974634,0.018326514161107362,0.08183581747773844,0.574208923207112,0.24449303571644096,0.33938502326148395
9.0,0.0,9.0,0.0,0.0,0.0,0.0,0.0,299.8642463999568,303.36981970001943,None,right,2.054569200030528,304.4388557999628,fj4,304.4388557999628,None,299.8642463999568,303.36981970001943,False,5.0,['p'],True,0.1875,0.25,0.25,2.0,1.0,0.895754137500101,-0.0556173947611532,wait_cost,0.0,4.0,,,fj4,1,2022-05-05_11h29.50.201,threat_forest,2021.2.3,60.05692195058074,False,57.0,0.4583333333333333,0.4513888888888888,-1.34375,-1.3015046296296295,0,0,0,0.7200661909500645,-0.0556173947611532,0.1875,0.1875,0.25,0.75,-2.0,-1.6875,3.3125,3.3125,1.0,1.0,-1.0,5.0,0,0,0,0.4270816798925621,0.24468291859270924,0.26730087303495265,0.43000860031370797,0.24510120396995366,0.28221954958382556,0.5134219864495955,0.24981985027974687,0.27351518827565474,0.4245809656389042,0.2443119692560399,0.3335792875190018,0.34516385676533373,0.22602576874821392,0.3901533358260676,0.35937604761673414,0.23022490401610898,0.2913921933524413,0.3369987186101043,0.22343058226525206,0.2991264863990228,0.309603252920687,0.21374907870161614,0.3390130053098759,0.13521369000459432,0.1169309480399358,0.23030213704650881,0.11620145182227204,0.10269867441666823,0.2062842261550396
9.0,0.0,9.0,0.0,1.0,0.0,1.0,0.0,,,,right,1.7332919999025762,309.9807523000054,fj4,309.9807523000054,None,299.8642463999568,303.36981970001943,False,4.0,['p'],True,0.1875,0.25,0.25,2.0,1.0,0.895754137500101,-0.0404897820049361,wait_cost,0.0,3.0,308.5317342999624,None,fj4,1,2022-05-05_11h29.50.201,threat_forest,2021.2.3,60.05692195058074,False,57.0,0.4583333333333333,0.4513888888888888,-1.34375,-1.3015046296296295,0,0,0,0.5500224904248944,-0.0404897820049361,0.1875,0.1875,0.25,0.75,-2.0,-1.6875,2.3125,2.3125,1.0,1.0,-1.0,4.0,0,0,0,0.4270816798925621,0.24468291859270924,0.26730087303495265,0.43000860031370797,0.24510120396995366,0.28221954958382556,0.5134219864495955,0.24981985027974687,0.27351518827565474,0.4245809656389042,0.2443119692560399,0.3335792875190018,0.34516385676533373,0.22602576874821392,0.3901533358260676,0.35937604761673414,0.23022490401610898,0.2913921933524413,0.3369987186101043,0.22343058226525206,0.2991264863990228,0.309603252920687,0.21374907870161614,0.3390130053098759,0.13521369000459432,0.1169309480399358,0.23030213704650881,0.1483721115213361,0.1263578280440363,0.22849281172783953
9.0,0.0,9.0,0.0,2.0,0.0,2.0,0.0,,,,right,0.775932400021702,315.4617331000045,fj4,311.74613790004514,313.7601945999777,315.4617331000045,None,True,3.0,['p'],False,0.4444444444444445,0.6666666666666666,0.3333333333333333,1.0,1.0,0.9656336071428248,0.0666724099085578,figh_cost,1.0,0.0,313.7601945999777,None,fj4,1,2022-05-05_11h29.50.201,threat_forest,2021.2.3,60.05692195058074,True,57.0,0.4583333333333333,0.4513888888888888,-1.34375,-1.3015046296296295,1,0,1,-0.2536898759676039,0.0666724099085578,0.4444444444444445,0.4444444444444445,0.6666666666666666,0.6666666666666667,-1.0,-1.0,2.0,2.0,0.0,1.0,-1.0,3.0,0,0,1,0.48148435686337854,0.24965717095923728,0.28535504528897904,0.3931908368717842,0.23859180267185012,0.26699692827435906,0.5134219864495955,0.24981985027974687,0.27351518827565474,0.4830565080929332,0.2497129180819951,0.22581509293061686,0.45179157299423245,0.24767594756562958,0.24753471352072687,0.5617301678932961,0.2461893863718655,0.2568023693571385,0.5296985584720459,0.2491179956246825,0.2626011688158519,0.309603252920687,0.21374907870161614,0.3390130053098759,0.4960105919388915,0.24998408462332192,0.43063703800939196,0.561321400329741,0.24623968586159958,0.34102458441508443
10.0,0.0,10.0,0.0,0.0,0.0,0.0,0.0,320.8650562000694,324.3669441000093,None,left,0.7136385999619961,325.6853383000707,fj4,325.6853383000707,None,320.8650562000694,324.3669441000093,True,4.0,['r'],True,0.28125,0.375,0.25,2.0,2.0,0.9634951148421658,-0.0007636143604934,unsucc_cost,0.0,2.0,,,fj4,1,2022-05-05_11h29.50.201,threat_forest,2021.2.3,60.05692195058074,True,40.0,0.3541666666666666,0.40625,-0.8958333333333335,-1.1197916666666667,0,0,1,-0.3373786073042556,-0.0007636143604934,0.28125,0.28125,0.375,0.75,-1.25,-1.125,2.875,2.875,1.0,2.0,-1.0,4.0,0,0,0,0.4270816798925621,0.24468291859270924,0.26730087303495265,0.43000860031370797,0.24510120396995366,0.28221954958382556,0.5134219864495955,0.24981985027974687,0.27351518827565474,0.44197830451803316,0.24663348285339787,0.2872585296101322,0.4242947577212008,0.2442687162915083,0.2699795456992009,0.35937604761673414,0.23022490401610898,0.2913921933524413,0.4045843179003331,0.24089584760945532,0.2742923641600401,0.309603252920687,0.21374907870161614,0.3390130053098759,0.23426274294687935,0.1793837102138837,0.3243357558416226,0.26732311856601443,0.19586146884615505,0.29373510985423773
10.0,0.0,10.0,0.0,1.0,0.0,1.0,0.0,,,,left,1.560728499898687,329.34595139999874,fj4,329.34595139999874,None,320.8650562000694,324.3669441000093,True,2.0,['r'],True,0.28125,0.375,0.25,2.0,2.0,0.9634951148421658,-0.0027392430560578,succ_gain,0.0,4.0,328.42977589997463,None,fj4,1,2022-05-05_11h29.50.201,threat_forest,2021.2.3,60.05692195058074,True,40.0,0.3541666666666666,0.40625,-0.8958333333333335,-1.1197916666666667,0,0,1,0.4451526993714405,-0.0027392430560578,0.28125,0.28125,0.375,0.75,-1.25,-1.125,0.875,0.875,1.0,2.0,-1.0,2.0,0,0,0,0.4270816798925621,0.24468291859270924,0.26730087303495265,0.43000860031370797,0.24510120396995366,0.28221954958382556,0.5134219864495955,0.24981985027974687,0.27351518827565474,0.44197830451803316,0.24663348285339787,0.2872585296101322,0.4242947577212008,0.2442687162915083,0.2699795456992009,0.35937604761673414,0.23022490401610898,0.2913921933524413,0.4045843179003331,0.24089584760945532,0.2742923641600401,0.309603252920687,0.21374907870161614,0.3390130053098759,0.23426274294687935,0.1793837102138837,0.3243357558416226,0.2601850565415106,0.19248879289400153,0.29056921627780474
10.0,0.0,10.0,0.0,2.0,0.0,2.0,0.0,,,,right,1.6193529000738636,336.32279150001705,fj4,336.32279150001705,None,320.8650562000694,324.3669441000093,False,4.0,['r'],True,0.28125,0.375,0.25,2.0,2.0,0.9634951148421658,0.0029155825391227,wait_cost,0.0,3.0,332.94224959996063,None,fj4,1,2022-05-05_11h29.50.201,threat_forest,2021.2.3,60.05692195058074,False,40.0,0.3541666666666666,0.40625,-0.8958333333333335,-1.1197916666666667,0,0,0,0.4820266250462782,0.0029155825391227,0.28125,0.28125,0.375,0.75,-1.25,-1.125,2.875,2.875,1.0,2.0,1.0,4.0,0,0,0,0.4270816798925621,0.24468291859270924,0.26730087303495265,0.43000860031370797,0.24510120396995366,0.28221954958382556,0.1090912571941992,0.0971903547979883,0.2984866986462855,0.44197830451803316,0.24663348285339787,0.2872585296101322,0.4242947577212008,0.2442687162915083,0.2699795456992009,0.35937604761673414,0.23022490401610898,0.2913921933524413,0.4045843179003331,0.24089584760945532,0.2742923641600401,0.309603252920687,0.21374907870161614,0.3390130053098759,0.23426274294687935,0.1793837102138837,0.3243357558416226,0.280943098291919,0.20201407381405614,0.29951049202036917
10.0,0.0,10.0,0.0,3.0,0.0,3.0,0.0,,,,right,1.3694517000112685,340.6215220000595,fj4,337.9712755000219,339.9856363000581,340.6215220000595,None,True,3.0,['r'],False,0.3333333333333333,0.3333333333333333,0.0,0.0,2.0,0.5793801642856949,0.1117113843376252,succ_gain,1.0,5.0,339.9856363000581,None,fj4,1,2022-05-05_11h29.50.201,threat_forest,2021.2.3,60.05692195058074,True,40.0,0.3541666666666666,0.40625,-0.8958333333333335,-1.1197916666666667,1,0,1,0.3144104407611698,0.1117113843376252,0.3333333333333333,0.3333333333333333,0.3333333333333333,1.0,-0.6666666666666669,-0.6666666666666669,2.333333333333333,2.333333333333333,0.0,2.0,-1.0,3.0,0,0,1,0.48148435686337854,0.24965717095923728,0.28535504528897904,0.5435130337698874,0.24810661589214064,0.28924788375393384,0.5134219864495955,0.24981985027974687,0.27351518827565474,0.43616116570307056,0.24592460323560916,0.3014026815976516,0.48888744470489826,0.24987651111481335,0.2330386973757017,0.5617301678932961,0.2461893863718655,0.2568023693571385,0.44395578011854275,0.24685904541787887,0.2658132039302314,0.309603252920687,0.21374907870161614,0.3390130053098759,0.30757305529815104,0.21297187095271158,0.3749086399383565,0.7473561281773229,0.18881494585312378,0.287120616734737
10.0,0.0,10.0,0.0,4.0,0.0,4.0,0.0,,,,left,2.01417710003443,346.81302150001284,fj4,337.9712755000219,339.9856363000581,346.81302150001284,None,False,5.0,['r'],False,0.3333333333333333,0.3333333333333333,0.0,0.0,2.0,0.5793801642856949,-0.3455041956018519,wait_cost,1.0,4.0,344.03185020003,None,fj4,1,2022-05-05_11h29.50.201,threat_forest,2021.2.3,60.05692195058074,False,40.0,0.3541666666666666,0.40625,-0.8958333333333335,-1.1197916666666667,1,0,0,0.700210724906245,-0.3455041956018519,0.0,0.3333333333333333,0.3333333333333333,1.0,-0.6666666666666669,-0.6666666666666669,4.333333333333333,4.333333333333333,0.0,2.0,1.0,5.0,0,0,1,0.48148435686337854,0.24965717095923728,0.28535504528897904,0.5435130337698874,0.24810661589214064,0.28924788375393384,0.1090912571941992,0.0971903547979883,0.2984866986462855,0.43616116570307056,0.24592460323560916,0.3014026815976516,0.48888744470489826,0.24987651111481335,0.2330386973757017,0.5617301678932961,0.2461893863718655,0.2568023693571385,0.44395578011854275,0.24685904541787887,0.2658132039302314,0.309603252920687,0.21374907870161614,0.3390130053098759,0.03923779515821365,0.037698190589335726,0.11100328378772645,0.0005971232731486101,0.0005967667169452747,0.11044229579653306
10.0,0.0,10.0,0.0,5.0,0.0,5.0,0.0,,,,right,1.1408579000271857,354.15841639996506,fj4,354.15841639996506,None,348.84435629996005,350.85884090000764,False,4.0,['r'],True,0.28125,0.375,0.25,2.0,2.0,0.9634951148421658,-0.4917805989583333,wait_cost,0.0,3.0,350.85884090000764,None,fj4,1,2022-05-05_11h29.50.201,threat_forest,2021.2.3,60.05692195058074,False,40.0,0.3541666666666666,0.40625,-0.8958333333333335,-1.1197916666666667,0,0,0,0.1317805232707326,-0.4917805989583333,0.0,0.28125,0.375,0.75,-1.25,-1.125,2.875,2.875,1.0,2.0,-1.0,4.0,0,0,0,0.4270816798925621,0.24468291859270924,0.26730087303495265,0.43000860031370797,0.24510120396995366,0.28221954958382556,0.5134219864495955,0.24981985027974687,0.27351518827565474,0.44197830451803316,0.24663348285339787,0.2872585296101322,0.4242947577212008,0.2442687162915083,0.2699795456992009,0.35937604761673414,0.23022490401610898,0.2913921933524413,0.4045843179003331,0.24089584760945532,0.2742923641600401,0.309603252920687,0.21374907870161614,0.3390130053098759,0.03923779515821365,0.037698190589335726,0.11100328378772645,3.928864900542275e-05,3.9287105407482105e-05,0.10991899585719767
10.0,0.0,10.0,0.0,6.0,0.0,6.0,0.0,,,,left,1.892971399938688,360.5666402999777,fj4,355.3216368999565,357.33612440002616,360.5666402999777,None,False,3.0,['r'],False,0.3333333333333333,0.3333333333333333,0.0,0.0,2.0,0.5793801642856949,-0.4618055555555556,wait_cost,1.0,2.0,357.33612440002616,None,fj4,1,2022-05-05_11h29.50.201,threat_forest,2021.2.3,60.05692195058074,False,40.0,0.3541666666666666,0.40625,-0.8958333333333335,-1.1197916666666667,1,0,0,0.6381477637869514,-0.4618055555555556,0.0,0.3333333333333333,0.3333333333333333,1.0,-0.6666666666666669,-0.6666666666666669,2.333333333333333,2.333333333333333,0.0,2.0,-1.0,3.0,0,0,1,0.48148435686337854,0.24965717095923728,0.28535504528897904,0.5435130337698874,0.24810661589214064,0.28924788375393384,0.5134219864495955,0.24981985027974687,0.27351518827565474,0.43616116570307056,0.24592460323560916,0.3014026815976516,0.48888744470489826,0.24987651111481335,0.2330386973757017,0.5617301678932961,0.2461893863718655,0.2568023693571385,0.44395578011854275,0.24685904541787887,0.2658132039302314,0.309603252920687,0.21374907870161614,0.3390130053098759,0.03923779515821365,0.037698190589335726,0.11100328378772645,6.86243913439559e-05,6.861968203686861e-05,0.10994653002213038
10.0,0.0,10.0,0.0,7.0,0.0,7.0,0.0,,,,right,0.7289817999117076,368.0829158000415,fj4,368.0829158000415,None,362.4817166000139,364.4960296000354,False,2.0,['r'],True,0.28125,0.375,0.25,2.0,2.0,0.9634951148421658,-0.71875,wait_cost,0.0,1.0,364.4960296000354,None,fj4,1,2022-05-05_11h29.50.201,threat_forest,2021.2.3,60.05692195058074,False,40.0,0.3541666666666666,0.40625,-0.8958333333333335,-1.1197916666666667,0,0,0,-0.3161065131126919,-0.71875,0.0,0.28125,0.375,0.75,-1.25,-1.125,0.875,0.875,1.0,2.0,-1.0,2.0,0,0,0,0.4270816798925621,0.24468291859270924,0.26730087303495265,0.43000860031370797,0.24510120396995366,0.28221954958382556,0.5134219864495955,0.24981985027974687,0.27351518827565474,0.44197830451803316,0.24663348285339787,0.2872585296101322,0.4242947577212008,0.2442687162915083,0.2699795456992009,0.35937604761673414,0.23022490401610898,0.2913921933524413,0.4045843179003331,0.24089584760945532,0.2742923641600401,0.309603252920687,0.21374907870161614,0.3390130053098759,0.03923779515821365,0.037698190589335726,0.11100328378772645,5.756729020651338e-07,5.75672570665844e-07,0.10988265786377902
11.0,0.0,11.0,0.0,0.0,0.0,0.0,0.0,371.692663099966,375.1849600999849,None,left,1.071760099963285,378.6848465000512,fj4,378.6848465000512,None,371.692663099966,375.1849600999849,True,5.0,['r'],True,0.625,0.625,0.0,0.0,2.0,0.6021808102656677,0.0512514556375116,succ_gain,0.0,6.0,,,fj4,1,2022-05-05_11h29.50.201,threat_forest,2021.2.3,60.05692195058074,True,60.0,0.6458333333333333,0.4999999999999999,0.1759259259259258,-0.3599537037037038,1,1,1,0.0693022502568034,0.0512514556375116,0.625,0.625,0.625,1.0,0.5,0.5,5.5,5.5,1.0,2.0,-1.0,5.0,0,1,1,0.4270816798925621,0.24468291859270924,0.26730087303495265,0.5435130337698874,0.24810661589214064,0.28924788375393384,0.5134219864495955,0.24981985027974687,0.27351518827565474,0.4771610252003976,0.24947838123010307,0.23049476603249452,0.6170302804131592,0.2363039134664173,0.32244697404831024,0.5617301678932961,0.2461893863718655,0.2568023693571385,0.6632982042024661,0.22333369650424972,0.2992642497129221,0.309603252920687,0.21374907870161614,0.3390130053098759,0.7819014593105065,0.17053156723860685,0.3110072975143741,0.48989910907976375,0.24989797200261749,0.3444585771137329
11.0,0.0,11.0,0.0,1.0,0.0,1.0,0.0,,,,left,1.431398899992928,383.08205099997576,fj4,379.7857140999986,381.7966215000488,383.08205099997576,None,False,6.0,['r'],False,0.5185185185185185,0.6666666666666666,0.2222222222222222,2.0,2.0,0.9327883776363328,-0.0383052857519836,wait_cost,1.0,5.0,381.7966215000488,None,fj4,1,2022-05-05_11h29.50.201,threat_forest,2021.2.3,60.05692195058074,False,60.0,0.6458333333333333,0.4999999999999999,0.1759259259259258,-0.3599537037037038,1,1,0,0.3586522178387114,-0.0383052857519836,0.5185185185185185,0.5185185185185185,0.6666666666666666,0.7777777777777778,-1.1102230246251563e-16,-0.1481481481481482,5.851851851851852,5.851851851851852,0.0,2.0,1.0,6.0,0,1,1,0.48148435686337854,0.24965717095923728,0.28535504528897904,0.44247706811570114,0.24669111230743426,0.2859376446020697,0.1090912571941992,0.0971903547979883,0.2984866986462855,0.4830565080929332,0.2497129180819951,0.22581509293061686,0.5630369408780626,0.24602634408473564,0.25840132934774895,0.5617301678932961,0.2461893863718655,0.2568023693571385,0.5862066380354478,0.24256841555862527,0.2719141147556314,0.309603252920687,0.21374907870161614,0.3390130053098759,0.6258366158657894,0.2341651461074457,0.4068188435474381,0.15358187549370864,0.12999448301354363,0.23190649948527586
11.0,0.0,11.0,0.0,2.0,0.0,2.0,0.0,,,,left,1.4940181999700144,387.7414057999849,fj4,379.7857140999986,381.7966215000488,387.7414057999849,None,False,5.0,['r'],False,0.5185185185185185,0.6666666666666666,0.2222222222222222,2.0,2.0,0.9327883776363328,-0.0020736371183338,wait_cost,1.0,4.0,386.5588604999939,None,fj4,1,2022-05-05_11h29.50.201,threat_forest,2021.2.3,60.05692195058074,False,60.0,0.6458333333333333,0.4999999999999999,0.1759259259259258,-0.3599537037037038,1,1,0,0.4014692686779341,-0.0020736371183338,0.5185185185185185,0.5185185185185185,0.6666666666666666,0.7777777777777778,-1.1102230246251563e-16,-0.1481481481481482,4.851851851851852,4.851851851851852,0.0,2.0,-1.0,5.0,0,1,1,0.48148435686337854,0.24965717095923728,0.28535504528897904,0.44247706811570114,0.24669111230743426,0.2859376446020697,0.5134219864495955,0.24981985027974687,0.27351518827565474,0.4830565080929332,0.2497129180819951,0.22581509293061686,0.5630369408780626,0.24602634408473564,0.25840132934774895,0.5617301678932961,0.2461893863718655,0.2568023693571385,0.5862066380354478,0.24256841555862527,0.2719141147556314,0.309603252920687,0.21374907870161614,0.3390130053098759,0.6258366158657894,0.2341651461074457,0.4068188435474381,0.26257607090192125,0.1936298778916305,0.2916403401318029
11.0,0.0,11.0,0.0,3.0,0.0,3.0,0.0,,,,left,2.440341099980288,392.5702100000344,fj4,379.7857140999986,381.7966215000488,392.5702100000344,None,False,4.0,['r'],False,0.5185185185185185,0.6666666666666666,0.2222222222222222,2.0,2.0,0.9327883776363328,0.0162575988488727,wait_cost,1.0,3.0,391.2710473999614,None,fj4,1,2022-05-05_11h29.50.201,threat_forest,2021.2.3,60.05692195058074,False,60.0,0.6458333333333333,0.4999999999999999,0.1759259259259258,-0.3599537037037038,1,1,0,0.8921378246085782,0.0162575988488727,0.5185185185185185,0.5185185185185185,0.6666666666666666,0.7777777777777778,-1.1102230246251563e-16,-0.1481481481481482,3.851851851851852,3.851851851851852,0.0,2.0,-1.0,4.0,0,1,1,0.48148435686337854,0.24965717095923728,0.28535504528897904,0.44247706811570114,0.24669111230743426,0.2859376446020697,0.5134219864495955,0.24981985027974687,0.27351518827565474,0.4830565080929332,0.2497129180819951,0.22581509293061686,0.5630369408780626,0.24602634408473564,0.25840132934774895,0.5617301678932961,0.2461893863718655,0.2568023693571385,0.5862066380354478,0.24256841555862527,0.2719141147556314,0.309603252920687,0.21374907870161614,0.3390130053098759,0.6258366158657894,0.2341651461074457,0.4068188435474381,0.3336916503071729,0.2223415328224483,0.31859165274047396
11.0,0.0,11.0,0.0,4.0,0.0,4.0,0.0,,,,left,2.2901307001011446,398.7978564000223,fj4,379.7857140999986,381.7966215000488,398.7978564000223,None,False,3.0,['r'],False,0.5185185185185185,0.6666666666666666,0.2222222222222222,2.0,2.0,0.9327883776363328,0.0683727709190671,wait_cost,1.0,2.0,397.04896409995854,None,fj4,1,2022-05-05_11h29.50.201,threat_forest,2021.2.3,60.05692195058074,False,60.0,0.6458333333333333,0.4999999999999999,0.1759259259259258,-0.3599537037037038,1,1,0,0.8286088902174493,0.0683727709190671,0.5185185185185185,0.5185185185185185,0.6666666666666666,0.7777777777777778,-1.1102230246251563e-16,-0.1481481481481482,2.851851851851852,2.851851851851852,0.0,2.0,-1.0,3.0,0,1,1,0.48148435686337854,0.24965717095923728,0.28535504528897904,0.44247706811570114,0.24669111230743426,0.2859376446020697,0.5134219864495955,0.24981985027974687,0.27351518827565474,0.4830565080929332,0.2497129180819951,0.22581509293061686,0.5630369408780626,0.24602634408473564,0.25840132934774895,0.5617301678932961,0.2461893863718655,0.2568023693571385,0.5862066380354478,0.24256841555862527,0.2719141147556314,0.309603252920687,0.21374907870161614,0.3390130053098759,0.6258366158657894,0.2341651461074457,0.4068188435474381,0.5690962961729998,0.24522570185517306,0.34007276885435683
11.0,0.0,11.0,0.0,5.0,0.0,5.0,0.0,,,,left,2.1338584000477567,404.25930160004646,fj4,379.7857140999986,381.7966215000488,404.25930160004646,None,False,2.0,['r'],False,0.5185185185185185,0.6666666666666666,0.2222222222222222,2.0,2.0,0.9327883776363328,-0.0532407407407407,wait_cost,1.0,1.0,403.1099605000345,None,fj4,1,2022-05-05_11h29.50.201,threat_forest,2021.2.3,60.05692195058074,False,60.0,0.6458333333333333,0.4999999999999999,0.1759259259259258,-0.3599537037037038,1,1,0,0.7579317964361081,-0.0532407407407407,0.5185185185185185,0.5185185185185185,0.6666666666666666,0.7777777777777778,-1.1102230246251563e-16,-0.1481481481481482,1.851851851851852,1.851851851851852,0.0,2.0,-1.0,2.0,0,1,1,0.48148435686337854,0.24965717095923728,0.28535504528897904,0.44247706811570114,0.24669111230743426,0.2859376446020697,0.5134219864495955,0.24981985027974687,0.27351518827565474,0.4830565080929332,0.2497129180819951,0.22581509293061686,0.5630369408780626,0.24602634408473564,0.25840132934774895,0.5617301678932961,0.2461893863718655,0.2568023693571385,0.5862066380354478,0.24256841555862527,0.2719141147556314,0.309603252920687,0.21374907870161614,0.3390130053098759,0.6258366158657894,0.2341651461074457,0.4068188435474381,0.12082064794016982,0.10622301897148737,0.2095924893696286
11.0,0.0,11.0,0.0,6.0,0.0,6.0,0.0,,,,right,0.9330112000461668,409.93778519995976,fj4,379.7857140999986,381.7966215000488,409.93778519995976,None,True,1.0,['r'],False,0.5185185185185185,0.6666666666666666,0.2222222222222222,2.0,2.0,0.9327883776363328,0.5185185185185185,succ_gain,1.0,3.0,408.43880949995946,None,fj4,1,2022-05-05_11h29.50.201,threat_forest,2021.2.3,60.05692195058074,True,60.0,0.6458333333333333,0.4999999999999999,0.1759259259259258,-0.3599537037037038,1,1,1,-0.0693380738701171,0.5185185185185185,1.0,0.5185185185185185,0.6666666666666666,0.7777777777777778,-1.1102230246251563e-16,-0.1481481481481482,0.8518518518518517,0.8518518518518517,0.0,2.0,-1.0,1.0,1,1,1,0.48148435686337854,0.24965717095923728,0.28535504528897904,0.44247706811570114,0.24669111230743426,0.2859376446020697,0.5134219864495955,0.24981985027974687,0.27351518827565474,0.4830565080929332,0.2497129180819951,0.22581509293061686,0.5630369408780626,0.24602634408473564,0.25840132934774895,0.5617301678932961,0.2461893863718655,0.2568023693571385,0.5862066380354478,0.24256841555862527,0.2719141147556314,0.9999995797539468,4.202458766016978e-07,0.031323705033554285,0.98132471974634,0.018326514161107362,0.08183581747773844,0.9998255971325052,0.00017437245113472772,0.11004579897566359
11.0,0.0,11.0,0.0,7.0,0.0,7.0,0.0,,,,left,1.924797400017269,415.2336009000428,fj4,415.2336009000428,None,410.903201200068,412.9174683999736,True,3.0,['r'],True,0.625,0.625,0.0,0.0,2.0,0.6021808102656677,0.0,succ_gain,0.0,5.0,412.9174683999736,None,fj4,1,2022-05-05_11h29.50.201,threat_forest,2021.2.3,60.05692195058074,True,60.0,0.6458333333333333,0.4999999999999999,0.1759259259259258,-0.3599537037037038,1,1,1,0.6548207154566444,0.0,0.0,0.625,0.625,1.0,0.5,0.5,3.5,3.5,1.0,2.0,1.0,3.0,0,1,1,0.4270816798925621,0.24468291859270924,0.26730087303495265,0.5435130337698874,0.24810661589214064,0.28924788375393384,0.1090912571941992,0.0971903547979883,0.2984866986462855,0.4771610252003976,0.24947838123010307,0.23049476603249452,0.6170302804131592,0.2363039134664173,0.32244697404831024,0.5617301678932961,0.2461893863718655,0.2568023693571385,0.6632982042024661,0.22333369650424972,0.2992642497129221,0.309603252920687,0.21374907870161614,0.3390130053098759,0.03923779515821365,0.037698190589335726,0.11100328378772645,0.27011519448945237,0.1971529761953777,0.2949474335043083
12.0,0.0,12.0,0.0,0.0,0.0,0.0,0.0,421.8138703999575,425.310098499991,None,right,2.227218799991533,426.7883151000133,fj4,426.7883151000133,None,421.8138703999575,425.310098499991,False,5.0,['p'],True,0.32,0.4,0.2,1.0,1.0,0.9455672104350704,0.029786704162101,wait_cost,0.0,4.0,,,fj4,1,2022-05-05_11h29.50.201,threat_forest,2021.2.3,60.05692195058074,False,48.0,0.3111111111111111,0.4784722222222222,-1.3792592592592592,-0.6016666666666667,0,0,0,0.8007536322104901,0.029786704162101,0.32,0.32,0.4,0.8,-1.4,-1.24,3.76,3.76,1.0,1.0,1.0,5.0,0,0,0,0.4270816798925621,0.24468291859270924,0.26730087303495265,0.4525050925852345,0.2477442337696629,0.2884004316508646,0.1090912571941992,0.0971903547979883,0.2984866986462855,0.4454763511146635,0.24702717171222852,0.27940332413467583,0.40800782145533815,0.24153743908660702,0.28797159072488254,0.35937604761673414,0.23022490401610898,0.2913921933524413,0.4337887171003937,0.24561606601678826,0.2675806149474059,0.309603252920687,0.21374907870161614,0.3390130053098759,0.28762355630503855,0.20489624616348084,0.36274936632852295,0.39178841411116816,0.23829025267942394,0.33356253949740905
12.0,0.0,12.0,0.0,1.0,0.0,1.0,0.0,,,,left,1.0061595999868589,432.71610750001855,fj4,432.71610750001855,None,421.8138703999575,425.310098499991,True,4.0,['p'],True,0.32,0.4,0.2,1.0,1.0,0.9455672104350704,0.0393429374403599,unsucc_cost,0.0,2.0,431.05059070000425,None,fj4,1,2022-05-05_11h29.50.201,threat_forest,2021.2.3,60.05692195058074,True,48.0,0.3111111111111111,0.4784722222222222,-1.3792592592592592,-0.6016666666666667,0,0,1,0.006140707192538,0.0393429374403599,0.32,0.32,0.4,0.8,-1.4,-1.24,2.76,2.76,1.0,1.0,-1.0,4.0,0,0,0,0.4270816798925621,0.24468291859270924,0.26730087303495265,0.4525050925852345,0.2477442337696629,0.2884004316508646,0.5134219864495955,0.24981985027974687,0.27351518827565474,0.4454763511146635,0.24702717171222852,0.27940332413467583,0.40800782145533815,0.24153743908660702,0.28797159072488254,0.35937604761673414,0.23022490401610898,0.2913921933524413,0.4337887171003937,0.24561606601678826,0.2675806149474059,0.309603252920687,0.21374907870161614,0.3390130053098759,0.28762355630503855,0.20489624616348084,0.36274936632852295,0.4348747559653009,0.24575870258942092,0.34057309074259273
12.0,0.0,12.0,0.0,2.0,0.0,2.0,0.0,,,,right,2.081731599988416,439.1600066999672,fj4,439.1600066999672,None,421.8138703999575,425.310098499991,False,2.0,['p'],True,0.32,0.4,0.2,1.0,1.0,0.9455672104350704,0.0231674818752166,wait_cost,0.0,1.0,435.7634322000668,None,fj4,1,2022-05-05_11h29.50.201,threat_forest,2021.2.3,60.05692195058074,False,48.0,0.3111111111111111,0.4784722222222222,-1.3792592592592592,-0.6016666666666667,0,0,0,0.73320004737174,0.0231674818752166,0.32,0.32,0.4,0.8,-1.4,-1.24,0.76,0.76,1.0,1.0,-1.0,2.0,0,0,0,0.4270816798925621,0.24468291859270924,0.26730087303495265,0.4525050925852345,0.2477442337696629,0.2884004316508646,0.5134219864495955,0.24981985027974687,0.27351518827565474,0.4454763511146635,0.24702717171222852,0.27940332413467583,0.40800782145533815,0.24153743908660702,0.28797159072488254,0.35937604761673414,0.23022490401610898,0.2913921933524413,0.4337887171003937,0.24561606601678826,0.2675806149474059,0.309603252920687,0.21374907870161614,0.3390130053098759,0.28762355630503855,0.20489624616348084,0.36274936632852295,0.36286194923635756,0.23119315503274862,0.32690057251045895
12.0,0.0,12.0,0.0,3.0,0.0,3.0,0.0,,,,right,1.2472250000573697,446.7209316999652,fj4,441.27484800003,443.2891903000418,446.7209316999652,None,True,1.0,['p'],False,0.1975308641975308,0.2222222222222222,0.1111111111111111,1.0,1.0,0.7461067557824965,0.0209731064269448,unsucc_cost,1.0,0.0,443.2891903000418,None,fj4,1,2022-05-05_11h29.50.201,threat_forest,2021.2.3,60.05692195058074,True,48.0,0.3111111111111111,0.4784722222222222,-1.3792592592592592,-0.6016666666666667,0,0,1,0.2209210835071085,0.0209731064269448,1.0,0.1975308641975308,0.2222222222222222,0.8888888888888888,-1.6666666666666667,-1.5185185185185184,-0.5185185185185184,0.0,0.0,1.0,-1.0,1.0,1,0,0,0.48148435686337854,0.24965717095923728,0.28535504528897904,0.49292279057455135,0.24994991310674838,0.2935585437015611,0.5134219864495955,0.24981985027974687,0.27351518827565474,0.4207385760693453,0.243717626676485,0.3454381018605712,0.3795664734453168,0.2354957656816024,0.3277705755142113,0.35937604761673414,0.23022490401610898,0.2913921933524413,0.34397338262526295,0.22565569467059743,0.2959625657610713,0.9999995797539468,4.202458766016978e-07,0.031323705033554285,0.98132471974634,0.018326514161107362,0.08183581747773844,0.3534760861412419,0.22853074266751128,0.3244013954995343
13.0,0.0,13.0,0.0,0.0,0.0,0.0,0.0,452.37125690002,455.87736949999817,None,left,1.1949435999849811,458.8249572999776,fj4,458.8249572999776,None,452.37125690002,455.87736949999817,True,5.0,['r'],True,0.6,0.6,0.0,0.0,2.0,0.6126016192893442,0.0610993227861605,succ_gain,0.0,6.0,,,fj4,1,2022-05-05_11h29.50.201,threat_forest,2021.2.3,60.05692195058074,True,47.0,0.6333333333333333,0.4722222222222222,-0.0777777777777778,-0.7285185185185186,1,1,1,0.1780989876043885,0.0610993227861605,0.6,0.6,0.6,1.0,0.3999999999999999,0.3999999999999999,5.4,5.4,1.0,2.0,-1.0,5.0,0,1,1,0.4270816798925621,0.24468291859270924,0.26730087303495265,0.5435130337698874,0.24810661589214064,0.28924788375393384,0.5134219864495955,0.24981985027974687,0.27351518827565474,0.4736266823046265,0.24930444811373895,0.23396522331717673,0.6064153676958516,0.23867576951815672,0.3068225838177061,0.5617301678932961,0.2461893863718655,0.2568023693571385,0.6457968045868158,0.22874329177227387,0.2915722652224533,0.309603252920687,0.21374907870161614,0.3390130053098759,0.749845228366921,0.18757736186228108,0.33667273964866967,0.5356466502923971,0.24872931632293158,0.3433615729657307
13.0,0.0,13.0,0.0,1.0,0.0,1.0,0.0,,,,left,1.9378356999950483,462.9394524999661,fj4,460.0405258999672,462.0549125999678,462.9394524999661,None,False,6.0,['r'],False,0.4444444444444445,0.6666666666666666,0.3333333333333333,2.0,2.0,0.9656336071428248,-0.0843219852156683,wait_cost,1.0,5.0,462.0549125999678,None,fj4,1,2022-05-05_11h29.50.201,threat_forest,2021.2.3,60.05692195058074,False,47.0,0.6333333333333333,0.4722222222222222,-0.0777777777777778,-0.7285185185185186,1,0,0,0.6615717317503761,-0.0843219852156683,0.4444444444444445,0.4444444444444445,0.6666666666666666,0.6666666666666667,-0.3333333333333335,-0.5555555555555556,5.444444444444445,5.444444444444445,0.0,2.0,1.0,6.0,0,0,1,0.48148435686337854,0.24965717095923728,0.28535504528897904,0.3931908368717842,0.23859180267185012,0.26699692827435906,0.1090912571941992,0.0971903547979883,0.2984866986462855,0.4830565080929332,0.2497129180819951,0.22581509293061686,0.5261061182825468,0.2493184705882177,0.23671473958139444,0.5617301678932961,0.2461893863718655,0.2568023693571385,0.5296985584720459,0.2491179956246825,0.2626011688158519,0.309603252920687,0.21374907870161614,0.3390130053098759,0.4960105919388915,0.24998408462332192,0.43063703800939196,0.07155754978694343,0.06643706685543255,0.17224585659986552
13.0,0.0,13.0,0.0,2.0,0.0,2.0,0.0,,,,right,2.372542400029488,468.2328968000365,fj4,468.2328968000365,None,464.9030891000293,466.9170342000434,False,5.0,['r'],True,0.6,0.6,0.0,0.0,2.0,0.6126016192893442,0.1044295061728395,wait_cost,0.0,4.0,466.9170342000434,None,fj4,1,2022-05-05_11h29.50.201,threat_forest,2021.2.3,60.05692195058074,False,47.0,0.6333333333333333,0.4722222222222222,-0.0777777777777778,-0.7285185185185186,1,1,0,0.8639621227983072,0.1044295061728395,0.6,0.6,0.6,1.0,0.3999999999999999,0.3999999999999999,5.4,5.4,1.0,2.0,-1.0,5.0,0,1,1,0.4270816798925621,0.24468291859270924,0.26730087303495265,0.5435130337698874,0.24810661589214064,0.28924788375393384,0.5134219864495955,0.24981985027974687,0.27351518827565474,0.4736266823046265,0.24930444811373895,0.23396522331717673,0.6064153676958516,0.23867576951815672,0.3068225838177061,0.5617301678932961,0.2461893863718655,0.2568023693571385,0.6457968045868158,0.22874329177227387,0.2915722652224533,0.309603252920687,0.21374907870161614,0.3390130053098759,0.749845228366921,0.18757736186228108,0.33667273964866967,0.720927703394762,0.2011909498727161,0.29873783468967224
13.0,0.0,13.0,0.0,3.0,0.0,3.0,0.0,,,,left,1.1775549000594765,473.7609988000477,fj4,473.7609988000477,None,464.9030891000293,466.9170342000434,True,4.0,['r'],True,0.6,0.6,0.0,0.0,2.0,0.6126016192893442,0.1394444444444444,succ_gain,0.0,6.0,472.6451030999888,None,fj4,1,2022-05-05_11h29.50.201,threat_forest,2021.2.3,60.05692195058074,True,47.0,0.6333333333333333,0.4722222222222222,-0.0777777777777778,-0.7285185185185186,1,1,1,0.1634401700758914,0.1394444444444444,0.6,0.6,0.6,1.0,0.3999999999999999,0.3999999999999999,4.4,4.4,1.0,2.0,-1.0,4.0,0,1,1,0.4270816798925621,0.24468291859270924,0.26730087303495265,0.5435130337698874,0.24810661589214064,0.28924788375393384,0.5134219864495955,0.24981985027974687,0.27351518827565474,0.4736266823046265,0.24930444811373895,0.23396522331717673,0.6064153676958516,0.23867576951815672,0.3068225838177061,0.5617301678932961,0.2461893863718655,0.2568023693571385,0.6457968045868158,0.22874329177227387,0.2915722652224533,0.309603252920687,0.21374907870161614,0.3390130053098759,0.749845228366921,0.18757736186228108,0.33667273964866967,0.8321003224345455,0.13970937583887094,0.24102576182407248
13.0,0.0,13.0,0.0,4.0,0.0,4.0,0.0,,,,left,1.006876299972646,480.47339840000495,fj4,474.9599394999677,476.9742973999819,480.47339840000495,None,False,6.0,['r'],False,0.4444444444444445,0.6666666666666666,0.3333333333333333,2.0,2.0,0.9656336071428248,-0.105,wait_cost,1.0,5.0,476.9742973999819,None,fj4,1,2022-05-05_11h29.50.201,threat_forest,2021.2.3,60.05692195058074,False,47.0,0.6333333333333333,0.4722222222222222,-0.0777777777777778,-0.7285185185185186,1,0,0,0.0068527660446267,-0.105,0.0,0.4444444444444445,0.6666666666666666,0.6666666666666667,-0.3333333333333335,-0.5555555555555556,5.444444444444445,5.444444444444445,0.0,2.0,1.0,6.0,0,0,1,0.48148435686337854,0.24965717095923728,0.28535504528897904,0.3931908368717842,0.23859180267185012,0.26699692827435906,0.1090912571941992,0.0971903547979883,0.2984866986462855,0.4830565080929332,0.2497129180819951,0.22581509293061686,0.5261061182825468,0.2493184705882177,0.23671473958139444,0.5617301678932961,0.2461893863718655,0.2568023693571385,0.5296985584720459,0.2491179956246825,0.2626011688158519,0.309603252920687,0.21374907870161614,0.3390130053098759,0.03923779515821365,0.037698190589335726,0.11100328378772645,0.049842510665469686,0.04735823479603224,0.15433676817287573
13.0,0.0,13.0,0.0,5.0,0.0,5.0,0.0,,,,left,0.6311230999417603,484.118074900005,fj4,474.9599394999677,476.9742973999819,484.118074900005,None,False,5.0,['r'],False,0.4444444444444445,0.6666666666666666,0.3333333333333333,2.0,2.0,0.9656336071428248,-0.1462962962962963,wait_cost,1.0,4.0,483.5181920999894,None,fj4,1,2022-05-05_11h29.50.201,threat_forest,2021.2.3,60.05692195058074,False,47.0,0.6333333333333333,0.4722222222222222,-0.0777777777777778,-0.7285185185185186,1,0,0,-0.4602543483969964,-0.1462962962962963,0.0,0.4444444444444445,0.6666666666666666,0.6666666666666667,-0.3333333333333335,-0.5555555555555556,4.444444444444445,4.444444444444445,0.0,2.0,-1.0,5.0,0,0,1,0.48148435686337854,0.24965717095923728,0.28535504528897904,0.3931908368717842,0.23859180267185012,0.26699692827435906,0.5134219864495955,0.24981985027974687,0.27351518827565474,0.4830565080929332,0.2497129180819951,0.22581509293061686,0.5261061182825468,0.2493184705882177,0.23671473958139444,0.5617301678932961,0.2461893863718655,0.2568023693571385,0.5296985584720459,0.2491179956246825,0.2626011688158519,0.309603252920687,0.21374907870161614,0.3390130053098759,0.03923779515821365,0.037698190589335726,0.11100328378772645,0.02374957974458646,0.02318553720654199,0.13164612456842278
13.0,0.0,13.0,0.0,6.0,0.0,6.0,0.0,,,,right,1.067829400068149,488.2807060000487,fj4,488.2807060000487,None,484.7674157000147,486.7818823000416,False,4.0,['r'],True,0.6,0.6,0.0,0.0,2.0,0.6126016192893442,0.0,wait_cost,0.0,3.0,486.7818823000416,None,fj4,1,2022-05-05_11h29.50.201,threat_forest,2021.2.3,60.05692195058074,False,47.0,0.6333333333333333,0.4722222222222222,-0.0777777777777778,-0.7285185185185186,1,1,0,0.0656279900146622,0.0,0.0,0.6,0.6,1.0,0.3999999999999999,0.3999999999999999,4.4,4.4,1.0,2.0,-1.0,4.0,0,1,1,0.4270816798925621,0.24468291859270924,0.26730087303495265,0.5435130337698874,0.24810661589214064,0.28924788375393384,0.5134219864495955,0.24981985027974687,0.27351518827565474,0.4736266823046265,0.24930444811373895,0.23396522331717673,0.6064153676958516,0.23867576951815672,0.3068225838177061,0.5617301678932961,0.2461893863718655,0.2568023693571385,0.6457968045868158,0.22874329177227387,0.2915722652224533,0.309603252920687,0.21374907870161614,0.3390130053098759,0.03923779515821365,0.037698190589335726,0.11100328378772645,0.27011519448945237,0.1971529761953777,0.2949474335043083
13.0,0.0,13.0,0.0,7.0,0.0,7.0,0.0,,,,left,0.7632855999981984,492.2604565999936,fj4,489.3797468000557,491.3941796000581,492.2604565999936,None,False,3.0,['r'],False,0.4444444444444445,0.6666666666666666,0.3333333333333333,2.0,2.0,0.9656336071428248,-0.3333333333333333,wait_cost,1.0,2.0,491.3941796000581,None,fj4,1,2022-05-05_11h29.50.201,threat_forest,2021.2.3,60.05692195058074,False,47.0,0.6333333333333333,0.4722222222222222,-0.0777777777777778,-0.7285185185185186,1,0,0,-0.2701230058106673,-0.3333333333333333,0.0,0.4444444444444445,0.6666666666666666,0.6666666666666667,-0.3333333333333335,-0.5555555555555556,2.4444444444444446,2.4444444444444446,0.0,2.0,-1.0,3.0,0,0,1,0.48148435686337854,0.24965717095923728,0.28535504528897904,0.3931908368717842,0.23859180267185012,0.26699692827435906,0.5134219864495955,0.24981985027974687,0.27351518827565474,0.4830565080929332,0.2497129180819951,0.22581509293061686,0.5261061182825468,0.2493184705882177,0.23671473958139444,0.5617301678932961,0.2461893863718655,0.2568023693571385,0.5296985584720459,0.2491179956246825,0.2626011688158519,0.309603252920687,0.21374907870161614,0.3390130053098759,0.03923779515821365,0.037698190589335726,0.11100328378772645,0.0007487712093011406,0.0007482105509772625,0.11058445444686117
14.0,0.0,14.0,0.0,0.0,0.0,0.0,0.0,498.23422480002046,501.7344585000537,None,left,1.7984870999353006,503.63562910002656,fj4,498.23422480002046,501.73445850005373,503.63562910002656,None,False,4.0,['p'],False,0.18,0.2,0.1,1.0,2.0,0.7058405977926203,-0.0041239600981238,wait_cost,1.0,3.0,,,fj4,1,2022-05-05_11h29.50.201,threat_forest,2021.2.3,60.05692195058074,False,41.0,0.4333333333333333,0.5333333333333333,-0.9677777777777778,-0.5227777777777778,0,0,0,0.5869458114479739,-0.0041239600981238,0.18,0.18,0.2,0.9,-1.5000000000000002,-1.38,2.62,2.62,0.0,2.0,-1.0,4.0,0,0,0,0.48148435686337854,0.24965717095923728,0.28535504528897904,0.49799243536734594,0.24999596968424578,0.2936662497417859,0.5134219864495955,0.24981985027974687,0.27351518827565474,0.41767154027835535,0.24322202471986157,0.3553267616892457,0.39725874318678267,0.23944423414844054,0.30176039159353385,0.35937604761673414,0.23022490401610898,0.2913921933524413,0.33182959955549557,0.22171871641433502,0.30156061407819507,0.309603252920687,0.21374907870161614,0.3390130053098759,0.12905676695767265,0.11240111786010565,0.22348168092079979,0.2552562619627551,0.19010050269155643,0.2883273547062088
14.0,0.0,14.0,0.0,1.0,0.0,1.0,0.0,,,,left,0.5232613999396563,510.61010339995846,fj4,510.61010339995846,None,505.4653278000187,507.47915769997053,True,3.0,['p'],True,0.4444444444444445,0.6666666666666666,0.3333333333333333,1.0,2.0,0.9656336071428248,0.0923110486049816,unsucc_cost,0.0,1.0,507.4791576999705,None,fj4,1,2022-05-05_11h29.50.201,threat_forest,2021.2.3,60.05692195058074,True,41.0,0.4333333333333333,0.5333333333333333,-0.9677777777777778,-0.5227777777777778,0,0,1,-0.6476741310999381,0.0923110486049816,0.4444444444444445,0.4444444444444445,0.6666666666666666,0.6666666666666667,-0.3333333333333335,-0.5555555555555556,2.4444444444444446,2.4444444444444446,1.0,2.0,-1.0,3.0,0,0,0,0.4270816798925621,0.24468291859270924,0.26730087303495265,0.3931908368717842,0.23859180267185012,0.26699692827435906,0.5134219864495955,0.24981985027974687,0.27351518827565474,0.4830565080929332,0.2497129180819951,0.22581509293061686,0.5261061182825468,0.2493184705882177,0.23671473958139444,0.35937604761673414,0.23022490401610898,0.2913921933524413,0.5296985584720459,0.2491179956246825,0.2626011688158519,0.309603252920687,0.21374907870161614,0.3390130053098759,0.4960105919388915,0.24998408462332192,0.43063703800939196,0.6733951833153063,0.21993411040305136,0.3163318319686435
14.0,0.0,14.0,0.0,2.0,0.0,2.0,0.0,,,,left,1.165031100041233,515.9218238999601,fj4,515.9218238999601,None,505.4653278000187,507.47915769997053,True,1.0,['p'],True,0.4444444444444445,0.6666666666666666,0.3333333333333333,1.0,2.0,0.9656336071428248,0.1899213781097054,succ_gain,0.0,3.0,513.1738763999892,None,fj4,1,2022-05-05_11h29.50.201,threat_forest,2021.2.3,60.05692195058074,True,41.0,0.4333333333333333,0.5333333333333333,-0.9677777777777778,-0.5227777777777778,0,0,1,0.1527477819757134,0.1899213781097054,1.0,0.4444444444444445,0.6666666666666666,0.6666666666666667,-0.3333333333333335,-0.5555555555555556,0.4444444444444444,0.4444444444444444,1.0,2.0,-1.0,1.0,1,0,0,0.4270816798925621,0.24468291859270924,0.26730087303495265,0.3931908368717842,0.23859180267185012,0.26699692827435906,0.5134219864495955,0.24981985027974687,0.27351518827565474,0.4830565080929332,0.2497129180819951,0.22581509293061686,0.5261061182825468,0.2493184705882177,0.23671473958139444,0.35937604761673414,0.23022490401610898,0.2913921933524413,0.5296985584720459,0.2491179956246825,0.2626011688158519,0.9999995797539468,4.202458766016978e-07,0.031323705033554285,0.98132471974634,0.018326514161107362,0.08183581747773844,0.9268855508325632,0.06776872649037921,0.17349587075600786
14.0,0.0,14.0,0.0,3.0,0.0,3.0,0.0,,,,left,1.929262400022708,520.6522397999652,fj4,517.1065866999561,519.1183431000682,520.6522397999652,None,False,3.0,['p'],False,0.18,0.2,0.1,1.0,2.0,0.7058405977926203,-0.0950796404938273,wait_cost,1.0,2.0,519.1183431000682,None,fj4,1,2022-05-05_11h29.50.201,threat_forest,2021.2.3,60.05692195058074,False,41.0,0.4333333333333333,0.5333333333333333,-0.9677777777777778,-0.5227777777777778,0,0,0,0.6571377537148385,-0.0950796404938273,0.18,0.18,0.2,0.9,-1.5000000000000002,-1.38,1.62,1.62,0.0,2.0,1.0,3.0,0,0,0,0.48148435686337854,0.24965717095923728,0.28535504528897904,0.49799243536734594,0.24999596968424578,0.2936662497417859,0.1090912571941992,0.0971903547979883,0.2984866986462855,0.41767154027835535,0.24322202471986157,0.3553267616892457,0.39725874318678267,0.23944423414844054,0.30176039159353385,0.35937604761673414,0.23022490401610898,0.2913921933524413,0.33182959955549557,0.22171871641433502,0.30156061407819507,0.309603252920687,0.21374907870161614,0.3390130053098759,0.12905676695767265,0.11240111786010565,0.22348168092079979,0.05934700423302922,0.055824937321594034,0.16228436809635186
14.0,0.0,14.0,0.0,4.0,0.0,4.0,0.0,,,,left,1.2363984999246895,527.3634129000129,fj4,517.1065866999561,519.1183431000682,527.3634129000129,None,False,2.0,['p'],False,0.18,0.2,0.1,1.0,2.0,0.7058405977926203,-0.1322222222222222,wait_cost,1.0,1.0,524.6131230000174,None,fj4,1,2022-05-05_11h29.50.201,threat_forest,2021.2.3,60.05692195058074,False,41.0,0.4333333333333333,0.5333333333333333,-0.9677777777777778,-0.5227777777777778,0,0,0,0.2122027180145653,-0.1322222222222222,0.18,0.18,0.2,0.9,-1.5000000000000002,-1.38,0.6199999999999999,0.6199999999999999,0.0,2.0,-1.0,2.0,0,0,0,0.48148435686337854,0.24965717095923728,0.28535504528897904,0.49799243536734594,0.24999596968424578,0.2936662497417859,0.5134219864495955,0.24981985027974687,0.27351518827565474,0.41767154027835535,0.24322202471986157,0.3553267616892457,0.39725874318678267,0.23944423414844054,0.30176039159353385,0.35937604761673414,0.23022490401610898,0.2913921933524413,0.33182959955549557,0.22171871641433502,0.30156061407819507,0.309603252920687,0.21374907870161614,0.3390130053098759,0.12905676695767265,0.11240111786010565,0.22348168092079979,0.030641481471316456,0.029702581084559435,0.13776360150467376
14.0,0.0,14.0,0.0,5.0,0.0,5.0,0.0,,,,right,1.1623706000391394,533.7050565000391,fj4,517.1065866999561,519.1183431000682,533.7050565000391,None,True,1.0,['p'],False,0.18,0.2,0.1,1.0,2.0,0.7058405977926203,0.1799999999999999,succ_gain,1.0,3.0,530.6408093000064,None,fj4,1,2022-05-05_11h29.50.201,threat_forest,2021.2.3,60.05692195058074,True,41.0,0.4333333333333333,0.5333333333333333,-0.9677777777777778,-0.5227777777777778,0,0,1,0.150461540489468,0.1799999999999999,1.0,0.18,0.2,0.9,-1.5000000000000002,-1.38,-0.3800000000000001,0.0,0.0,2.0,-1.0,1.0,1,0,0,0.48148435686337854,0.24965717095923728,0.28535504528897904,0.49799243536734594,0.24999596968424578,0.2936662497417859,0.5134219864495955,0.24981985027974687,0.27351518827565474,0.41767154027835535,0.24322202471986157,0.3553267616892457,0.39725874318678267,0.23944423414844054,0.30176039159353385,0.35937604761673414,0.23022490401610898,0.2913921933524413,0.33182959955549557,0.22171871641433502,0.30156061407819507,0.9999995797539468,4.202458766016978e-07,0.031323705033554285,0.98132471974634,0.018326514161107362,0.08183581747773844,0.9133465300267471,0.07914464611484748,0.18417432056145858
14.0,0.0,14.0,0.0,6.0,0.0,6.0,0.0,,,,left,0.9204927999526262,540.5486720000627,fj4,517.1065866999561,519.1183431000682,540.5486720000627,None,False,3.0,['p'],False,0.18,0.2,0.1,1.0,2.0,0.7058405977926203,-0.5952000000000002,wait_cost,1.0,2.0,536.9016664000228,None,fj4,1,2022-05-05_11h29.50.201,threat_forest,2021.2.3,60.05692195058074,False,41.0,0.4333333333333333,0.5333333333333333,-0.9677777777777778,-0.5227777777777778,0,0,0,-0.0828461002270196,-0.5952000000000002,0.0,0.18,0.2,0.9,-1.5000000000000002,-1.38,1.62,1.62,0.0,2.0,1.0,3.0,0,0,0,0.48148435686337854,0.24965717095923728,0.28535504528897904,0.49799243536734594,0.24999596968424578,0.2936662497417859,0.1090912571941992,0.0971903547979883,0.2984866986462855,0.41767154027835535,0.24322202471986157,0.3553267616892457,0.39725874318678267,0.23944423414844054,0.30176039159353385,0.35937604761673414,0.23022490401610898,0.2913921933524413,0.33182959955549557,0.22171871641433502,0.30156061407819507,0.309603252920687,0.21374907870161614,0.3390130053098759,0.03923779515821365,0.037698190589335726,0.11100328378772645,5.735402353457718e-06,5.735369458617566e-06,0.10988750121412327
14.0,0.0,14.0,0.0,7.0,0.0,7.0,0.0,,,,right,1.1537009000312537,546.7428527000593,fj4,546.7428527000593,None,541.4977975999936,543.5121131000342,False,2.0,['p'],True,0.4444444444444445,0.6666666666666666,0.3333333333333333,1.0,2.0,0.9656336071428248,-0.5555555555555556,wait_cost,0.0,1.0,543.5121131000342,None,fj4,1,2022-05-05_11h29.50.201,threat_forest,2021.2.3,60.05692195058074,False,41.0,0.4333333333333333,0.5333333333333333,-0.9677777777777778,-0.5227777777777778,0,0,0,0.1429749490767051,-0.5555555555555556,0.0,0.4444444444444445,0.6666666666666666,0.6666666666666667,-0.3333333333333335,-0.5555555555555556,1.4444444444444444,1.4444444444444444,1.0,2.0,-1.0,2.0,0,0,0,0.4270816798925621,0.24468291859270924,0.26730087303495265,0.3931908368717842,0.23859180267185012,0.26699692827435906,0.5134219864495955,0.24981985027974687,0.27351518827565474,0.4830565080929332,0.2497129180819951,0.22581509293061686,0.5261061182825468,0.2493184705882177,0.23671473958139444,0.35937604761673414,0.23022490401610898,0.2913921933524413,0.5296985584720459,0.2491179956246825,0.2626011688158519,0.309603252920687,0.21374907870161614,0.3390130053098759,0.03923779515821365,0.037698190589335726,0.11100328378772645,1.1992850148356587e-05,1.1992706319901912e-05,0.1098933749069582
15.0,0.0,15.0,0.0,0.0,0.0,0.0,0.0,553.4103414999554,556.9162227000343,None,left,2.0157156999921426,559.398256000015,fj4,553.4103414999554,556.9162227000343,559.398256000015,None,False,5.0,['r'],False,0.2040816326530612,0.2857142857142857,0.2857142857142857,2.0,2.0,0.9335459102197724,-0.0078150263394839,wait_cost,1.0,4.0,,,fj4,1,2022-05-05_11h29.50.201,threat_forest,2021.2.3,60.05692195058074,False,17.0,0.2678571428571428,0.350595238095238,-1.2346938775510203,-1.1012358276643992,0,0,0,0.7009743184353148,-0.0078150263394839,0.2040816326530612,0.2040816326530612,0.2857142857142857,0.7142857142857143,-1.7142857142857144,-1.469387755102041,3.5306122448979598,3.5306122448979598,0.0,2.0,-1.0,5.0,0,0,0,0.48148435686337854,0.24965717095923728,0.28535504528897904,0.4141093377172253,0.24262279413262636,0.27642364107004536,0.5134219864495955,0.24981985027974687,0.27351518827565474,0.4295345441187593,0.24503461952744893,0.31916037206969694,0.37456755106627443,0.23426670075448833,0.3358669311197282,0.35937604761673414,0.23022490401610898,0.2913921933524413,0.34856508071465137,0.22706746522103993,0.29395514808191636,0.309603252920687,0.21374907870161614,0.3390130053098759,0.14970648053774385,0.12729445022274596,0.2459062125063965,0.24242110220150453,0.1836531114089122,0.282275259890091
15.0,0.0,15.0,0.0,1.0,0.0,1.0,0.0,,,,left,2.053629699978046,565.991898200009,fj4,553.4103414999554,556.9162227000343,565.991898200009,None,False,4.0,['r'],False,0.2040816326530612,0.2857142857142857,0.2857142857142857,2.0,2.0,0.9335459102197724,0.00642434352113,wait_cost,1.0,3.0,563.4601682999637,None,fj4,1,2022-05-05_11h29.50.201,threat_forest,2021.2.3,60.05692195058074,False,17.0,0.2678571428571428,0.350595238095238,-1.2346938775510203,-1.1012358276643992,0,0,0,0.7196088128670033,0.00642434352113,0.2040816326530612,0.2040816326530612,0.2857142857142857,0.7142857142857143,-1.7142857142857144,-1.469387755102041,2.5306122448979598,2.5306122448979598,0.0,2.0,-1.0,4.0,0,0,0,0.48148435686337854,0.24965717095923728,0.28535504528897904,0.4141093377172253,0.24262279413262636,0.27642364107004536,0.5134219864495955,0.24981985027974687,0.27351518827565474,0.4295345441187593,0.24503461952744893,0.31916037206969694,0.37456755106627443,0.23426670075448833,0.3358669311197282,0.35937604761673414,0.23022490401610898,0.2913921933524413,0.34856508071465137,0.22706746522103993,0.29395514808191636,0.309603252920687,0.21374907870161614,0.3390130053098759,0.14970648053774385,0.12729445022274596,0.2459062125063965,0.2943185421332098,0.20769513788979177,0.3048432439715881
15.0,0.0,15.0,0.0,2.0,0.0,2.0,0.0,,,,right,0.9079410000704228,572.0191487000557,fj4,553.4103414999554,556.9162227000343,572.0191487000557,None,True,3.0,['r'],False,0.2040816326530612,0.2857142857142857,0.2857142857142857,2.0,2.0,0.9335459102197724,0.050517261391048,unsucc_cost,1.0,1.0,570.087676599971,None,fj4,1,2022-05-05_11h29.50.201,threat_forest,2021.2.3,60.05692195058074,True,17.0,0.2678571428571428,0.350595238095238,-1.2346938775510203,-1.1012358276643992,0,0,1,-0.0965758803880088,0.050517261391048,0.2040816326530612,0.2040816326530612,0.2857142857142857,0.7142857142857143,-1.7142857142857144,-1.469387755102041,1.530612244897959,1.530612244897959,0.0,2.0,-1.0,3.0,0,0,0,0.48148435686337854,0.24965717095923728,0.28535504528897904,0.4141093377172253,0.24262279413262636,0.27642364107004536,0.5134219864495955,0.24981985027974687,0.27351518827565474,0.4295345441187593,0.24503461952744893,0.31916037206969694,0.37456755106627443,0.23426670075448833,0.3358669311197282,0.35937604761673414,0.23022490401610898,0.2913921933524413,0.34856508071465137,0.22706746522103993,0.29395514808191636,0.309603252920687,0.21374907870161614,0.3390130053098759,0.14970648053774385,0.12729445022274596,0.2459062125063965,0.4864857628501369,0.2498173653942573,0.34438291258288384
15.0,0.0,15.0,0.0,3.0,0.0,3.0,0.0,,,,left,0.5423023999901488,578.0641246000305,fj4,578.0641246000305,None,572.9516475000419,574.9662556999829,True,1.0,['r'],True,0.25,0.25,0.0,0.0,2.0,0.5118595071429148,0.0925249245106205,unsucc_cost,0.0,0.0,574.9662556999829,None,fj4,1,2022-05-05_11h29.50.201,threat_forest,2021.2.3,60.05692195058074,True,17.0,0.2678571428571428,0.350595238095238,-1.2346938775510203,-1.1012358276643992,1,0,1,-0.6119314995683911,0.0925249245106205,1.0,0.25,0.25,1.0,-1.0,-1.0,0.0,0.0,1.0,2.0,-1.0,1.0,1,0,1,0.4270816798925621,0.24468291859270924,0.26730087303495265,0.5435130337698874,0.24810661589214064,0.28924788375393384,0.5134219864495955,0.24981985027974687,0.27351518827565474,0.4245809656389042,0.2443119692560399,0.3335792875190018,0.45179157299423245,0.24767594756562958,0.24753471352072687,0.5617301678932961,0.2461893863718655,0.2568023693571385,0.3815048751637782,0.2359589053900482,0.28131227620530674,0.9999995797539468,4.202458766016978e-07,0.031323705033554285,0.98132471974634,0.018326514161107362,0.08183581747773844,0.674269819851118,0.2196300298890589,0.31604639495672054
16.0,0.0,16.0,0.0,0.0,0.0,0.0,0.0,582.3864872000413,585.8892380000325,None,right,1.3027628998970613,587.9241743000457,fj4,582.3864872000413,585.8892380000325,587.9241743000457,None,True,4.0,['p'],False,0.2962962962962963,0.3333333333333333,0.1111111111111111,1.0,1.0,0.8325252476189534,0.0071317107376875,unsucc_cost,1.0,2.0,,,fj4,1,2022-05-05_11h29.50.201,threat_forest,2021.2.3,60.05692195058074,True,4.0,0.4666666666666667,0.3672619047619048,-0.9911111111111112,-1.112902494331066,0,0,1,0.2644873168092548,0.0071317107376875,0.2962962962962963,0.2962962962962963,0.3333333333333333,0.8888888888888888,-1.3333333333333337,-1.2222222222222223,2.7777777777777777,2.7777777777777777,0.0,1.0,-1.0,4.0,0,0,0,0.48148435686337854,0.24965717095923728,0.28535504528897904,0.49292279057455135,0.24994991310674838,0.2935585437015611,0.5134219864495955,0.24981985027974687,0.27351518827565474,0.43616116570307056,0.24592460323560916,0.3014026815976516,0.41522377375537417,0.24281299146371998,0.2795690031880158,0.35937604761673414,0.23022490401610898,0.2913921933524413,0.4158559814060615,0.24291978413486293,0.2714144985172718,0.309603252920687,0.21374907870161614,0.3390130053098759,0.2541371836444122,0.18955147553369853,0.33964511502446576,0.29705958343888206,0.20881518732599993,0.3058946219769712
16.0,0.0,16.0,0.0,1.0,0.0,1.0,0.0,,,,left,1.0393974999897182,593.6324554999592,fj4,593.6324554999592,None,589.2531665000133,591.2675099000335,True,2.0,['p'],True,0.48,0.6,0.2,1.0,1.0,0.9455672104350704,0.0404052247006255,unsucc_cost,0.0,0.0,591.2675099000335,None,fj4,1,2022-05-05_11h29.50.201,threat_forest,2021.2.3,60.05692195058074,True,4.0,0.4666666666666667,0.3672619047619048,-0.9911111111111112,-1.112902494331066,1,1,1,0.038641218345631,0.0404052247006255,0.48,0.48,0.6,0.8,-0.8000000000000002,-0.7600000000000002,1.2399999999999998,1.2399999999999998,1.0,1.0,-1.0,2.0,0,1,1,0.4270816798925621,0.24468291859270924,0.26730087303495265,0.4525050925852345,0.2477442337696629,0.2884004316508646,0.5134219864495955,0.24981985027974687,0.27351518827565474,0.4736266823046265,0.24930444811373895,0.23396522331717673,0.4740113502656756,0.24932459008498656,0.23667442794213578,0.5617301678932961,0.2461893863718655,0.2568023693571385,0.557009137911933,0.24674995819453818,0.2659683166860793,0.309603252920687,0.21374907870161614,0.3390130053098759,0.5593716467216417,0.2464750075655605,0.4253535052578195,0.4397384857683389,0.24636854990250728,0.34114554766359406
