miniblock.thisRepN,miniblock.thisTrialN,miniblock.thisN,miniblock.thisIndex,day.thisRepN,day.thisTrialN,day.thisN,day.thisIndex,forest.started,fixation_forest.started,fixation_forest.stopped,key_resp.keys,key_resp.rt,key_resp.started,Subject_ID,weather_left.started,weather_left.stopped,weather_right.started,weather_right.stopped,foraging T/F,in_LP,p/r heuristic,good_weather.T/F,p_succ_correct,p_succ_uncorrected,r_threat,n_oponents,gain_if_succ,weather_entropy,OP_value_difference,action_outcome,forest_side_L=0_R=1,out_LP,fixation_day.started,fixation_day.stopped,participant,session,date,expName,psychopyVersion,frameRate,foraging T/F NaNs,fora_NR,forest_mean_p,mvt_cutoff_p,forest_mean_ev,mvt_cutoff_ev,mvt_policy_eg,mvt_policy_p,fora_response,logRT,optimal policy values,multi-heuristic policy,** $\mathit{p}$ success,* $\mathit{p}$ gain,* $\mathit{r}$ predator,expected gain naive,expected gain correct,expected state no bounds,expected state with bounds,weather type,gain magnitude,win stay lose shift,continuous energy state,** binary energy state,** wait when safe,$\mathit{p}$ success based MVT,marginal value,$\mathit{OP}$ values + cap,win stay lose shift fit,win stay lose shift_uncertain,win stay lose shift_uncertain_fit,** wait when safe fit,** wait when safe_uncertain,** wait when safe_uncertain_fit,** binary energy state fit,** binary energy state_uncertain,** binary energy state_uncertain_fit,weather type fit,weather type_uncertain,weather type_uncertain_fit,* $\mathit{r}$ predator fit,* $\mathit{r}$ predator_uncertain,* $\mathit{r}$ predator_uncertain_fit,* $\mathit{p}$ gain fit,* $\mathit{p}$ gain_uncertain,* $\mathit{p}$ gain_uncertain_fit,expected gain naive fit,expected gain naive_uncertain,expected gain naive_uncertain_fit,** $\mathit{p}$ success fit,** $\mathit{p}$ success_uncertain,** $\mathit{p}$ success_uncertain_fit,marginal value fit,marginal value_uncertain,marginal value_uncertain_fit,multi-heuristic policy fit,multi-heuristic policy_uncertain,multi-heuristic policy_uncertain_fit,optimal policy values fit,optimal policy values_uncertain,optimal policy values_uncertain_fit
0.0,0.0,0.0,0.0,0.0,0.0,0.0,0.0,35.45032300008461,38.95480860001408,,left,0.8947123000398278,42.07673570001498,fd13,35.45032300008461,38.95480860001408,42.07673570001498,,False,5.0,['p'],False,0.16,0.2,0.2,2.0,1.0,0.8198746470064713,-0.0074793948520252,wait_cost,1.0,4.0,,,fd13,1,2022-04-07_11h27.33.193,threat_forest,2021.2.3,59.947581798236335,False,71.0,0.35,0.35,-1.7350000000000003,-1.7350000000000003,1,0,0.0,-0.1112530648536676,-0.0074793948520252,0.16,0.16,0.2,0.2,-1.0,-0.7200000000000004,4.279999999999999,4.279999999999999,0.0,1.0,,5.0,0,1,0,1,-0.0074793948520252,,,,0.6305050761164108,0.23296842510784976,0.22317813310980328,0.5438582120858305,0.24807645723263433,0.22777198609228358,0.5898993116114537,0.24191811377178676,0.2021911274618592,0.5962459473931433,0.24073671761039622,0.2160159897640213,0.2627175569349264,0.19369704221307013,0.1957735303571727,0.36237156971797807,0.23105841517810666,0.21401596028954717,0.33662171291614623,0.22330753530954586,0.21156888828096476,0.6249997008979172,0.23437507477543124,0.2239514496802686,0.41370032497045245,0.2425523660897945,0.2488255631973356,0.5588453096985385,0.24653722952648308,0.2260282890968136
0.0,0.0,0.0,0.0,1.0,0.0,1.0,0.0,,,,left,1.3190593000035733,46.45542330003809,fd13,46.45542330003809,,42.98855320003349,44.98821490001865,True,4.0,['p'],True,0.25,0.5,0.5,1.0,1.0,0.9463946303571862,0.0188078231718747,figh_cost,0.0,1.0,44.98821490001865,,fd13,1,2022-04-07_11h27.33.193,threat_forest,2021.2.3,59.947581798236335,True,71.0,0.35,0.35,-1.7350000000000003,-1.7350000000000003,0,0,1.0,0.2769188310290361,0.0188078231718747,0.25,0.25,0.5,0.5,-1.0,-0.75,3.25,3.25,1.0,1.0,-1.0,4.0,0,1,0,0,0.0188078231718747,0.6174260048706797,0.23621113338011107,0.1881379341681202,0.6305050761164108,0.23296842510784976,0.22317813310980328,0.5438582120858305,0.24807645723263433,0.22777198609228358,0.5833266272871196,0.24305667318495341,0.19829364627820378,0.7825883921534975,0.17014380062010115,0.11137866735946605,0.6954532022415452,0.21179804573352567,0.22256984492811688,0.36237156971797807,0.23105841517810666,0.21401596028954717,0.46662292765792973,0.24888597104187216,0.25988985824593736,0.5481899668094637,0.24767772709890282,0.17650593952606453,0.49259970529062735,0.24994523563821444,0.2588622437527618,0.594714988195501,0.24102907101112608,0.22114837827499867
0.0,0.0,0.0,0.0,2.0,0.0,2.0,0.0,,,,left,0.9657757000532,50.93849940004293,fd13,50.93849940004293,,42.98855320003349,44.98821490001865,True,1.0,['p'],True,0.25,0.5,0.5,1.0,1.0,0.9463946303571862,0.013472802734375,figh_cost,0.0,0.0,49.80500340007711,,fd13,1,2022-04-07_11h27.33.193,threat_forest,2021.2.3,59.947581798236335,True,71.0,0.35,0.35,-1.7350000000000003,-1.7350000000000003,0,0,1.0,-0.0348236662928546,0.013472802734375,1.0,0.25,0.5,0.5,-1.0,-0.75,0.25,1.0,1.0,1.0,-1.0,1.0,1,1,0,0,0.625,0.6174260048706797,0.23621113338011107,0.1881379341681202,0.6305050761164108,0.23296842510784976,0.22317813310980328,0.8367328370955716,0.13661099642156732,0.04099619329206075,0.5833266272871196,0.24305667318495341,0.19829364627820378,0.7825883921534975,0.17014380062010115,0.11137866735946605,0.6954532022415452,0.21179804573352567,0.22256984492811688,0.36237156971797807,0.23105841517810666,0.21401596028954717,0.46662292765792973,0.24888597104187216,0.25988985824593736,0.5481899668094637,0.24767772709890282,0.17650593952606453,0.9327327615114765,0.06274235711465162,0.004712555530705986,0.5875036127272506,0.2423431177596794,0.2223125479209444
1.0,0.0,1.0,0.0,0.0,0.0,0.0,0.0,54.98137500009034,58.48845120007172,,right,1.2775545000331476,61.73913760005962,fd13,54.98137500009034,58.48845120007172,61.73913760005962,,True,4.0,['p'],False,0.4444444444444445,0.6666666666666666,0.3333333333333333,1.0,2.0,0.9656336071428248,0.0696585132666405,succ_gain,1.0,6.0,,,fd13,1,2022-04-07_11h27.33.193,threat_forest,2021.2.3,59.947581798236335,True,29.0,0.4761904761904761,0.413095238095238,-0.8594104308390023,-1.2972052154195013,1,1,1.0,0.2449477036598358,0.0696585132666405,0.4444444444444445,0.4444444444444445,0.6666666666666666,0.3333333333333333,0.6666666666666665,0.4444444444444444,4.444444444444445,4.444444444444445,0.0,2.0,-1.0,4.0,0,1,1,1,0.0696585132666405,0.6174260048706797,0.23621113338011107,0.1881379341681202,0.6305050761164108,0.23296842510784976,0.22317813310980328,0.5438582120858305,0.24807645723263433,0.22777198609228358,0.5898993116114537,0.24191811377178676,0.2021911274618592,0.6869358405422655,0.21505499152075666,0.177948897946346,0.8650351649994826,0.11674932831380043,0.08186188204277287,0.7413792900726278,0.19173603832403419,0.12245544247153667,0.7394414217789954,0.19266780553645324,0.15368647992753443,0.6249997008979172,0.23437507477543124,0.2239514496802686,0.6592108924056889,0.22465189173938416,0.22452358658744562,0.6610284429442145,0.2240698405629619,0.20612347803603276
1.0,0.0,1.0,0.0,1.0,0.0,1.0,0.0,,,,right,2.0904320999979973,68.27385290001985,fd13,68.27385290001985,,63.038706900086254,65.03859730006661,False,6.0,['p'],True,0.2448979591836734,0.2857142857142857,0.1428571428571428,1.0,2.0,0.8400769154957735,-0.0717249489552175,wait_cost,0.0,5.0,65.03859730006661,,fd13,1,2022-04-07_11h27.33.193,threat_forest,2021.2.3,59.947581798236335,False,29.0,0.4761904761904761,0.413095238095238,-0.8594104308390023,-1.2972052154195013,1,0,0.0,0.7373707910181508,-0.0717249489552175,0.2448979591836734,0.2448979591836734,0.2857142857142857,0.1428571428571428,-0.2857142857142856,-0.1632653061224489,5.836734693877551,5.836734693877551,1.0,2.0,1.0,6.0,0,1,0,1,-0.0717249489552175,0.4782368673535457,0.2495263660574129,0.2516908398852471,0.6305050761164108,0.23296842510784976,0.22317813310980328,0.5438582120858305,0.24807645723263433,0.22777198609228358,0.5833266272871196,0.24305667318495341,0.19829364627820378,0.5548136417929206,0.24699546467339742,0.2252931037040764,0.3772728118704974,0.23493803729382565,0.25682576296702936,0.5320668919105316,0.24897171444319827,0.25572633203608397,0.4589464810821779,0.24831460858446402,0.2588104807408994,0.6249997008979172,0.23437507477543124,0.2239514496802686,0.488079232536147,0.24985789530307267,0.2587436690859588,0.4693324699859604,0.249059502602838,0.22826287759795427
1.0,0.0,1.0,0.0,2.0,0.0,2.0,0.0,,,,right,2.4578061000211164,75.95554210001137,fd13,70.38885690004099,72.38867220003158,75.95554210001137,,True,5.0,['p'],False,0.4444444444444445,0.6666666666666666,0.3333333333333333,1.0,2.0,0.9656336071428248,0.0643083839415795,figh_cost,1.0,2.0,72.38867220003158,,fd13,1,2022-04-07_11h27.33.193,threat_forest,2021.2.3,59.947581798236335,True,29.0,0.4761904761904761,0.413095238095238,-0.8594104308390023,-1.2972052154195013,1,1,1.0,0.8992691227682486,0.0643083839415795,0.4444444444444445,0.4444444444444445,0.6666666666666666,0.3333333333333333,0.6666666666666665,0.4444444444444444,5.444444444444445,5.444444444444445,0.0,2.0,-1.0,5.0,0,1,1,1,0.0643083839415795,0.6174260048706797,0.23621113338011107,0.1881379341681202,0.6305050761164108,0.23296842510784976,0.22317813310980328,0.5438582120858305,0.24807645723263433,0.22777198609228358,0.5898993116114537,0.24191811377178676,0.2021911274618592,0.6869358405422655,0.21505499152075666,0.177948897946346,0.8650351649994826,0.11674932831380043,0.08186188204277287,0.7413792900726278,0.19173603832403419,0.12245544247153667,0.7394414217789954,0.19266780553645324,0.15368647992753443,0.6249997008979172,0.23437507477543124,0.2239514496802686,0.6592108924056889,0.22465189173938416,0.22452358658744562,0.654292032412217,0.2261939687341073,0.20800533310981012
1.0,0.0,1.0,0.0,3.0,0.0,3.0,0.0,,,,right,2.364863599999808,81.83902410010342,fd13,70.38885690004099,72.38867220003158,81.83902410010342,,True,2.0,['p'],False,0.4444444444444445,0.6666666666666666,0.3333333333333333,1.0,2.0,0.9656336071428248,0.0944611684140408,figh_cost,1.0,0.0,80.43873730010819,,fd13,1,2022-04-07_11h27.33.193,threat_forest,2021.2.3,59.947581798236335,True,29.0,0.4761904761904761,0.413095238095238,-0.8594104308390023,-1.2972052154195013,1,1,1.0,0.8607203458619773,0.0944611684140408,0.4444444444444445,0.4444444444444445,0.6666666666666666,0.3333333333333333,0.6666666666666665,0.4444444444444444,2.4444444444444446,2.4444444444444446,0.0,2.0,-1.0,2.0,0,1,1,1,0.0944611684140408,0.6174260048706797,0.23621113338011107,0.1881379341681202,0.6305050761164108,0.23296842510784976,0.22317813310980328,0.5438582120858305,0.24807645723263433,0.22777198609228358,0.5898993116114537,0.24191811377178676,0.2021911274618592,0.6869358405422655,0.21505499152075666,0.177948897946346,0.8650351649994826,0.11674932831380043,0.08186188204277287,0.7413792900726278,0.19173603832403419,0.12245544247153667,0.7394414217789954,0.19266780553645324,0.15368647992753443,0.6249997008979172,0.23437507477543124,0.2239514496802686,0.6592108924056889,0.22465189173938416,0.22452358658744562,0.6913829471538533,0.21337256753870537,0.19664631098475105
2.0,0.0,2.0,0.0,0.0,0.0,0.0,0.0,87.36521720001474,90.8721892000176,,left,2.205697000026703,91.58938860008492,fd13,91.58938860008492,,87.36521720001474,90.8721892000176,True,5.0,['p'],True,0.5555555555555556,0.6666666666666666,0.1666666666666666,1.0,2.0,0.8929352898779306,0.0304669022621303,figh_cost,0.0,2.0,,,fd13,1,2022-04-07_11h27.33.193,threat_forest,2021.2.3,59.947581798236335,True,51.0,0.5555555555555556,0.5158730158730158,-0.2376543209876542,-0.5485323759133283,1,1,1.0,0.7910435587351505,0.0304669022621303,0.5555555555555556,0.5555555555555556,0.6666666666666666,0.1666666666666666,1.1666666666666667,1.0555555555555558,6.055555555555555,6.055555555555555,1.0,2.0,-1.0,5.0,0,1,1,1,0.0304669022621303,0.6174260048706797,0.23621113338011107,0.1881379341681202,0.6305050761164108,0.23296842510784976,0.22317813310980328,0.5438582120858305,0.24807645723263433,0.22777198609228358,0.5833266272871196,0.24305667318495341,0.19829364627820378,0.5722044542711605,0.24478651678340385,0.22201886030410617,0.8650351649994826,0.11674932831380043,0.08186188204277287,0.8232640868395487,0.14550033015979275,0.014797520446359513,0.847549582295357,0.12920928784632285,0.03380514084114336,0.6249997008979172,0.23437507477543124,0.2239514496802686,0.741487224406263,0.19168392044855914,0.17976572981217045,0.610329295946322,0.23782744645598888,0.21831192353782236
2.0,0.0,2.0,0.0,1.0,0.0,1.0,0.0,,,,right,1.7044586000265554,99.17285130009986,fd13,93.82251870003527,95.82247250003276,99.17285130009986,,True,2.0,['p'],False,0.3950617283950617,0.4444444444444444,0.1111111111111111,1.0,2.0,0.8733423231021583,-0.0231778299038606,unsucc_cost,1.0,0.0,95.82247250003276,,fd13,1,2022-04-07_11h27.33.193,threat_forest,2021.2.3,59.947581798236335,True,51.0,0.5555555555555556,0.5158730158730158,-0.2376543209876542,-0.5485323759133283,1,0,1.0,0.5332475236687294,-0.0231778299038606,0.3950617283950617,0.3950617283950617,0.4444444444444444,0.1111111111111111,0.4444444444444444,0.4691358024691359,2.469135802469136,2.469135802469136,0.0,2.0,-1.0,2.0,0,1,0,1,-0.0231778299038606,0.6174260048706797,0.23621113338011107,0.1881379341681202,0.6305050761164108,0.23296842510784976,0.22317813310980328,0.5438582120858305,0.24807645723263433,0.22777198609228358,0.5898993116114537,0.24191811377178676,0.2021911274618592,0.5314227975824127,0.24901260779209472,0.22828304184300152,0.6181570881598561,0.23603890251758403,0.2584554588456422,0.6979141997409101,0.21082996954091512,0.16691486657722965,0.677914470037737,0.21834644135119116,0.20219674079455308,0.6249997008979172,0.23437507477543124,0.2239514496802686,0.6188566873006871,0.23587308788390673,0.23975766591411576,0.5371020840372319,0.24862343536009412,0.22787654716629152
3.0,0.0,3.0,0.0,0.0,0.0,0.0,0.0,105.3659459000919,108.87247960001696,,left,1.55670860002283,111.32566430000588,fd13,111.32566430000588,,105.3659459000919,108.87247960001696,True,5.0,['p'],True,0.2592592592592592,0.3333333333333333,0.2222222222222222,2.0,2.0,0.9327883776363324,-0.0297160742148364,unsucc_cost,0.0,3.0,,,fd13,1,2022-04-07_11h27.33.193,threat_forest,2021.2.3,59.947581798236335,True,53.0,0.5,0.5277777777777778,-0.8703703703703706,-0.5540123456790124,0,0,1.0,0.442573720566042,-0.0297160742148364,0.2592592592592592,0.2592592592592592,0.3333333333333333,0.2222222222222222,-0.3333333333333335,-0.1851851851851855,4.814814814814815,4.814814814814815,1.0,2.0,-1.0,5.0,0,1,0,0,-0.0297160742148364,0.6174260048706797,0.23621113338011107,0.1881379341681202,0.6305050761164108,0.23296842510784976,0.22317813310980328,0.5438582120858305,0.24807645723263433,0.22777198609228358,0.5833266272871196,0.24305667318495341,0.19829364627820378,0.6120280097493117,0.2374497250316081,0.21114379979267733,0.44861259063944775,0.24735933415921102,0.2752139687815749,0.5205405747583568,0.24957808478859633,0.2571382401468314,0.48059219321555424,0.24962333703581757,0.2612828378800124,0.5481899668094637,0.24767772709890282,0.17650593952606453,0.5008061047477994,0.24999935019513558,0.25893571055988707,0.5279995941739185,0.2492160227260959,0.22840154540157476
3.0,0.0,3.0,0.0,1.0,0.0,1.0,0.0,,,,right,1.2983052000636237,116.12284050008748,fd13,116.12284050008748,,105.3659459000919,108.87247960001696,False,3.0,['p'],True,0.2592592592592592,0.3333333333333333,0.2222222222222222,2.0,2.0,0.9327883776363324,0.0245696695070765,wait_cost,0.0,2.0,114.90599010000004,,fd13,1,2022-04-07_11h27.33.193,threat_forest,2021.2.3,59.947581798236335,False,53.0,0.5,0.5277777777777778,-0.8703703703703706,-0.5540123456790124,0,0,0.0,0.2610597216626734,0.0245696695070765,0.2592592592592592,0.2592592592592592,0.3333333333333333,0.2222222222222222,-0.3333333333333335,-0.1851851851851855,2.8148148148148144,2.8148148148148144,1.0,2.0,-1.0,3.0,0,1,0,0,0.0245696695070765,0.6174260048706797,0.23621113338011107,0.1881379341681202,0.6305050761164108,0.23296842510784976,0.22317813310980328,0.5438582120858305,0.24807645723263433,0.22777198609228358,0.5833266272871196,0.24305667318495341,0.19829364627820378,0.6120280097493117,0.2374497250316081,0.21114379979267733,0.44861259063944775,0.24735933415921102,0.2752139687815749,0.5205405747583568,0.24957808478859633,0.2571382401468314,0.48059219321555424,0.24962333703581757,0.2612828378800124,0.5481899668094637,0.24767772709890282,0.17650593952606453,0.5008061047477994,0.24999935019513558,0.25893571055988707,0.6024575735898847,0.2395024456140733,0.2197958762046307
3.0,0.0,3.0,0.0,3.0,0.0,3.0,0.0,,,,left,0.8292994999792427,128.75656950008124,fd13,128.75656950008124,,105.3659459000919,108.87247960001696,True,1.0,['p'],True,0.2592592592592592,0.3333333333333333,0.2222222222222222,2.0,2.0,0.9327883776363324,0.1250063506579282,unsucc_cost,0.0,0.0,127.45612590003292,,fd13,1,2022-04-07_11h27.33.193,threat_forest,2021.2.3,59.947581798236335,True,53.0,0.5,0.5277777777777778,-0.8703703703703706,-0.5540123456790124,0,0,1.0,-0.1871739104683144,0.1250063506579282,1.0,0.2592592592592592,0.3333333333333333,0.2222222222222222,-0.3333333333333335,-0.1851851851851855,0.8148148148148144,1.0,1.0,2.0,-1.0,1.0,1,1,0,0,0.625,0.6174260048706797,0.23621113338011107,0.1881379341681202,0.6305050761164108,0.23296842510784976,0.22317813310980328,0.8367328370955716,0.13661099642156732,0.04099619329206075,0.5833266272871196,0.24305667318495341,0.19829364627820378,0.6120280097493117,0.2374497250316081,0.21114379979267733,0.44861259063944775,0.24735933415921102,0.2752139687815749,0.5205405747583568,0.24957808478859633,0.2571382401468314,0.48059219321555424,0.24962333703581757,0.2612828378800124,0.5481899668094637,0.24767772709890282,0.17650593952606453,0.9327327615114765,0.06274235711465162,0.004712555530705986,0.7265960826203608,0.19865421534110658,0.18360669965764487
4.0,0.0,4.0,0.0,0.0,0.0,0.0,0.0,134.84729890001472,138.35632920009084,,right,2.2446950000012293,140.2243292001076,fd13,134.84729890001472,138.35632920009084,140.2243292001076,,True,4.0,['r'],False,0.28125,0.375,0.25,2.0,2.0,0.9634951148421658,-0.0007636143604934,succ_gain,1.0,6.0,,,fd13,1,2022-04-07_11h27.33.193,threat_forest,2021.2.3,59.947581798236335,True,10.0,0.3541666666666666,0.4270833333333333,-0.8958333333333335,-0.8831018518518521,0,0,1.0,0.80856965450428,-0.0007636143604934,0.28125,0.28125,0.375,0.25,-0.25,-0.125,3.875,3.875,0.0,2.0,-1.0,4.0,0,1,0,0,-0.0007636143604934,0.6174260048706797,0.23621113338011107,0.1881379341681202,0.6305050761164108,0.23296842510784976,0.22317813310980328,0.5438582120858305,0.24807645723263433,0.22777198609228358,0.5898993116114537,0.24191811377178676,0.2021911274618592,0.6314266085470407,0.23272704656582294,0.20414354466360612,0.5129286819277801,0.2498328491836103,0.2788757042546859,0.5406899002809227,0.24834433201512854,0.2542654981654062,0.5138507907413403,0.2498081555958396,0.2616319840194109,0.5481899668094637,0.24767772709890282,0.17650593952606453,0.5202864467625724,0.24958846007774935,0.2583778794194108,0.5680834619897108,0.24536464220349555,0.22498944434479418
4.0,0.0,4.0,0.0,1.0,0.0,1.0,0.0,,,,right,2.080423600040376,145.89001540001482,fd13,145.89001540001482,,142.48995310009923,144.48977140011266,False,6.0,['r'],True,0.3333333333333333,0.3333333333333333,0.0,0.0,2.0,0.5793801642856949,-0.059542589226868,wait_cost,0.0,5.0,144.48977140011266,,fd13,1,2022-04-07_11h27.33.193,threat_forest,2021.2.3,59.947581798236335,False,10.0,0.3541666666666666,0.4270833333333333,-0.8958333333333335,-0.8831018518518521,1,0,0.0,0.7325715268441587,-0.059542589226868,0.3333333333333333,0.3333333333333333,0.3333333333333333,0.0,0.3333333333333331,0.3333333333333331,6.333333333333333,6.333333333333333,1.0,2.0,1.0,6.0,0,1,0,1,-0.059542589226868,0.4782368673535457,0.2495263660574129,0.2516908398852471,0.6305050761164108,0.23296842510784976,0.22317813310980328,0.5438582120858305,0.24807645723263433,0.22777198609228358,0.5833266272871196,0.24305667318495341,0.19829364627820378,0.44914377700481967,0.24741364458266452,0.22591295662777844,0.44861259063944775,0.24735933415921102,0.2752139687815749,0.6746961402036321,0.2194812585979529,0.18705903306022875,0.5916099421712208,0.24160761849538556,0.24614010988471202,0.6249997008979172,0.23437507477543124,0.2239514496802686,0.5660729490790144,0.245634365400002,0.2530097358445058,0.486330181752347,0.24981313606907607,0.22893055339147467
4.0,0.0,4.0,0.0,2.0,0.0,2.0,0.0,,,,right,2.222147800028324,151.4245066000149,fd13,147.9899488000665,149.989924200112,151.4245066000149,,True,5.0,['r'],False,0.28125,0.375,0.25,2.0,2.0,0.9634951148421658,-0.0090943703910818,figh_cost,1.0,2.0,149.989924200112,,fd13,1,2022-04-07_11h27.33.193,threat_forest,2021.2.3,59.947581798236335,True,10.0,0.3541666666666666,0.4270833333333333,-0.8958333333333335,-0.8831018518518521,0,0,1.0,0.7984742056697153,-0.0090943703910818,0.28125,0.28125,0.375,0.25,-0.25,-0.125,4.875,4.875,0.0,2.0,-1.0,5.0,0,1,0,0,-0.0090943703910818,0.6174260048706797,0.23621113338011107,0.1881379341681202,0.6305050761164108,0.23296842510784976,0.22317813310980328,0.5438582120858305,0.24807645723263433,0.22777198609228358,0.5898993116114537,0.24191811377178676,0.2021911274618592,0.6314266085470407,0.23272704656582294,0.20414354466360612,0.5129286819277801,0.2498328491836103,0.2788757042546859,0.5406899002809227,0.24834433201512854,0.2542654981654062,0.5138507907413403,0.2498081555958396,0.2616319840194109,0.5481899668094637,0.24767772709890282,0.17650593952606453,0.5202864467625724,0.24958846007774935,0.2583778794194108,0.5566174274015323,0.2467944669144322,0.22625618658918395
4.0,0.0,4.0,0.0,4.0,0.0,4.0,0.0,,,,left,1.821966200019233,164.67383430001792,fd13,164.67383430001792,,153.67348330002278,155.67321250005625,True,1.0,['r'],True,0.3333333333333333,0.3333333333333333,0.0,0.0,2.0,0.5793801642856949,0.1605812355324073,unsucc_cost,0.0,0.0,162.38997490005568,,fd13,1,2022-04-07_11h27.33.193,threat_forest,2021.2.3,59.947581798236335,True,10.0,0.3541666666666666,0.4270833333333333,-0.8958333333333335,-0.8831018518518521,1,0,1.0,0.5999162476334399,0.1605812355324073,1.0,0.3333333333333333,0.3333333333333333,0.0,0.3333333333333331,0.3333333333333331,1.333333333333333,1.333333333333333,1.0,2.0,-1.0,1.0,1,1,0,1,0.625,0.6174260048706797,0.23621113338011107,0.1881379341681202,0.6305050761164108,0.23296842510784976,0.22317813310980328,0.8367328370955716,0.13661099642156732,0.04099619329206075,0.5833266272871196,0.24305667318495341,0.19829364627820378,0.44914377700481967,0.24741364458266452,0.22591295662777844,0.44861259063944775,0.24735933415921102,0.2752139687815749,0.6746961402036321,0.2194812585979529,0.18705903306022875,0.5916099421712208,0.24160761849538556,0.24614010988471202,0.6249997008979172,0.23437507477543124,0.2239514496802686,0.9327327615114765,0.06274235711465162,0.004712555530705986,0.7642958501596612,0.18014770358838192,0.16721099740536266
5.0,0.0,5.0,0.0,0.0,0.0,0.0,0.0,169.68151370005216,173.19014800002333,,right,2.6969218000303954,176.9077711000573,fd13,169.68151370005216,173.19014800002333,176.9077711000573,,True,4.0,['p'],False,0.1975308641975308,0.2222222222222222,0.1111111111111111,1.0,2.0,0.7461067557824965,-0.0032005207389234,succ_gain,1.0,6.0,,,fd13,1,2022-04-07_11h27.33.193,threat_forest,2021.2.3,59.947581798236335,True,12.0,0.3111111111111111,0.3326388888888889,-1.1204938271604938,-1.0081635802469138,0,0,1.0,0.9921110485686656,-0.0032005207389234,0.1975308641975308,0.1975308641975308,0.2222222222222222,0.1111111111111111,-0.4444444444444444,-0.3209876543209877,3.679012345679012,3.679012345679012,0.0,2.0,-1.0,4.0,0,1,0,0,-0.0032005207389234,0.6174260048706797,0.23621113338011107,0.1881379341681202,0.6305050761164108,0.23296842510784976,0.22317813310980328,0.5438582120858305,0.24807645723263433,0.22777198609228358,0.5898993116114537,0.24191811377178676,0.2021911274618592,0.5314227975824127,0.24901260779209472,0.22828304184300152,0.29022546703072566,0.20599464531752282,0.2139786227368929,0.49358190411813707,0.24995880804525125,0.25802473840338513,0.3890637382614372,0.23769314583147308,0.23874516525240325,0.5481899668094637,0.24767772709890282,0.17650593952606453,0.44630106875754716,0.24711642478341828,0.2550218038917096,0.5647364049532914,0.24580919787372346,0.2253832950337306
5.0,0.0,5.0,0.0,1.0,0.0,1.0,0.0,,,,right,2.196935099898837,184.57562500005588,fd13,184.57562500005588,,179.62386880000122,181.6235654000193,False,6.0,['p'],True,0.32,0.4,0.2,1.0,2.0,0.9455672104350704,-0.0751615309978558,wait_cost,0.0,5.0,181.6235654000193,,fd13,1,2022-04-07_11h27.33.193,threat_forest,2021.2.3,59.947581798236335,False,12.0,0.3111111111111111,0.3326388888888889,-1.1204938271604938,-1.0081635802469138,1,0,0.0,0.7870632526379001,-0.0751615309978558,0.32,0.32,0.4,0.2,0.0,0.0799999999999999,6.08,6.08,1.0,2.0,1.0,6.0,0,1,0,1,-0.0751615309978558,0.4782368673535457,0.2495263660574129,0.2516908398852471,0.6305050761164108,0.23296842510784976,0.22317813310980328,0.5438582120858305,0.24807645723263433,0.22777198609228358,0.5833266272871196,0.24305667318495341,0.19829364627820378,0.5962459473931433,0.24073671761039622,0.2160159897640213,0.5514494517588792,0.2473529539137108,0.2752045236110201,0.6000937257560113,0.23998124606428042,0.23479240061950135,0.5719794085565608,0.24481896474384773,0.25220675787065416,0.6249997008979172,0.23437507477543124,0.2239514496802686,0.5544271208487405,0.24703768851611657,0.254914910248063,0.4645486324666578,0.24874320054001586,0.2279826522095555
5.0,0.0,5.0,0.0,3.0,0.0,3.0,0.0,,,,right,1.1104289999930188,198.840846600011,fd13,186.79055550007607,188.7904872000217,198.840846600011,,True,4.0,['p'],False,0.1975308641975308,0.2222222222222222,0.1111111111111111,1.0,2.0,0.7461067557824965,-0.0009236152891645,unsucc_cost,1.0,2.0,195.1737938000588,,fd13,1,2022-04-07_11h27.33.193,threat_forest,2021.2.3,59.947581798236335,True,12.0,0.3111111111111111,0.3326388888888889,-1.1204938271604938,-1.0081635802469138,0,0,1.0,0.104746427137778,-0.0009236152891645,0.1975308641975308,0.1975308641975308,0.2222222222222222,0.1111111111111111,-0.4444444444444444,-0.3209876543209877,3.679012345679012,3.679012345679012,0.0,2.0,-1.0,4.0,0,1,0,0,-0.0009236152891645,0.6174260048706797,0.23621113338011107,0.1881379341681202,0.6305050761164108,0.23296842510784976,0.22317813310980328,0.5438582120858305,0.24807645723263433,0.22777198609228358,0.5898993116114537,0.24191811377178676,0.2021911274618592,0.5314227975824127,0.24901260779209472,0.22828304184300152,0.29022546703072566,0.20599464531752282,0.2139786227368929,0.49358190411813707,0.24995880804525125,0.25802473840338513,0.3890637382614372,0.23769314583147308,0.23874516525240325,0.5481899668094637,0.24767772709890282,0.17650593952606453,0.44630106875754716,0.24711642478341828,0.2550218038917096,0.5678638900866191,0.2453944924223113,0.22501588991738009
5.0,0.0,5.0,0.0,5.0,0.0,5.0,0.0,,,,right,0.8443482000147924,209.20782390004024,fd13,186.79055550007607,188.7904872000217,209.20782390004024,,True,1.0,['p'],False,0.1975308641975308,0.2222222222222222,0.1111111111111111,1.0,2.0,0.7461067557824965,0.1975308641975308,unsucc_cost,1.0,0.0,208.10726260009687,,fd13,1,2022-04-07_11h27.33.193,threat_forest,2021.2.3,59.947581798236335,True,12.0,0.3111111111111111,0.3326388888888889,-1.1204938271604938,-1.0081635802469138,0,0,1.0,-0.1691903102061191,0.1975308641975308,1.0,0.1975308641975308,0.2222222222222222,0.1111111111111111,-0.4444444444444444,-0.3209876543209877,0.6790123456790123,1.0,0.0,2.0,-1.0,1.0,1,1,0,0,0.625,0.6174260048706797,0.23621113338011107,0.1881379341681202,0.6305050761164108,0.23296842510784976,0.22317813310980328,0.8367328370955716,0.13661099642156732,0.04099619329206075,0.5898993116114537,0.24191811377178676,0.2021911274618592,0.5314227975824127,0.24901260779209472,0.22828304184300152,0.29022546703072566,0.20599464531752282,0.2139786227368929,0.49358190411813707,0.24995880804525125,0.25802473840338513,0.3890637382614372,0.23769314583147308,0.23874516525240325,0.5481899668094637,0.24767772709890282,0.17650593952606453,0.9327327615114765,0.06274235711465162,0.004712555530705986,0.7994760726945513,0.16031408188344778,0.14963955226197279
6.0,0.0,6.0,0.0,0.0,0.0,0.0,0.0,215.04847020003945,218.5574805000797,,left,1.0373226000228897,222.2083911000518,fd13,222.2083911000518,,215.04847020003945,218.5574805000797,True,4.0,['p'],True,0.48,0.6,0.2,1.0,1.0,0.9455672104350704,0.0573042085319639,succ_gain,0.0,5.0,,,fd13,1,2022-04-07_11h27.33.193,threat_forest,2021.2.3,59.947581798236335,True,4.0,0.4666666666666667,0.3888888888888889,-0.9911111111111112,-1.0558024691358026,1,1,1.0,0.0366429705728687,0.0573042085319639,0.48,0.48,0.6,0.2,0.1999999999999998,0.2399999999999997,4.24,4.24,1.0,1.0,-1.0,4.0,0,1,1,1,0.0573042085319639,0.6174260048706797,0.23621113338011107,0.1881379341681202,0.6305050761164108,0.23296842510784976,0.22317813310980328,0.5438582120858305,0.24807645723263433,0.22777198609228358,0.5833266272871196,0.24305667318495341,0.19829364627820378,0.5962459473931433,0.24073671761039622,0.2160159897640213,0.8092198815464874,0.15438306485637635,0.13757401102696315,0.645666348829324,0.22878131481873362,0.2087138268808395,0.7787245326586434,0.1723126348942208,0.11523293259069928,0.6249997008979172,0.23437507477543124,0.2239514496802686,0.6869370300460174,0.21505454679757435,0.21149407419982777,0.6453788906709477,0.22886497814728465,0.2103716934286342
6.0,0.0,6.0,0.0,1.0,0.0,1.0,0.0,,,,right,2.0718974000774324,227.49366110004485,fd13,223.274558300036,225.27429370000027,227.49366110004485,,True,5.0,['p'],False,0.2962962962962963,0.3333333333333333,0.1111111111111111,1.0,1.0,0.8325252476189534,0.005864312614388,figh_cost,1.0,2.0,225.27429370000027,,fd13,1,2022-04-07_11h27.33.193,threat_forest,2021.2.3,59.947581798236335,True,4.0,0.4666666666666667,0.3888888888888889,-0.9911111111111112,-1.0558024691358026,0,0,1.0,0.7284648058340663,0.005864312614388,0.2962962962962963,0.2962962962962963,0.3333333333333333,0.1111111111111111,-0.3333333333333335,-0.2222222222222223,4.777777777777778,4.777777777777778,0.0,1.0,1.0,5.0,0,1,0,0,0.005864312614388,0.4782368673535457,0.2495263660574129,0.2516908398852471,0.6305050761164108,0.23296842510784976,0.22317813310980328,0.5438582120858305,0.24807645723263433,0.22777198609228358,0.5898993116114537,0.24191811377178676,0.2021911274618592,0.5314227975824127,0.24901260779209472,0.22828304184300152,0.44861259063944775,0.24735933415921102,0.2752139687815749,0.5205405747583568,0.24957808478859633,0.2571382401468314,0.5365539841183634,0.24866380624507445,0.259470160239942,0.5481899668094637,0.24767772709890282,0.17650593952606453,0.5335832289550819,0.24887216673295054,0.25740542786475573,0.577154590250518,0.24404716920327466,0.22382223923744254
6.0,0.0,6.0,0.0,2.0,0.0,2.0,0.0,,,,right,2.337540599983185,232.67509420006536,fd13,223.274558300036,225.27429370000027,232.67509420006536,,True,2.0,['p'],False,0.2962962962962963,0.3333333333333333,0.1111111111111111,1.0,1.0,0.8325252476189534,0.0078563075848161,unsucc_cost,1.0,0.0,231.5909701000201,,fd13,1,2022-04-07_11h27.33.193,threat_forest,2021.2.3,59.947581798236335,True,4.0,0.4666666666666667,0.3888888888888889,-0.9911111111111112,-1.0558024691358026,0,0,1.0,0.8490993510066298,0.0078563075848161,0.2962962962962963,0.2962962962962963,0.3333333333333333,0.1111111111111111,-0.3333333333333335,-0.2222222222222223,1.7777777777777777,1.7777777777777777,0.0,1.0,-1.0,2.0,0,1,0,0,0.0078563075848161,0.6174260048706797,0.23621113338011107,0.1881379341681202,0.6305050761164108,0.23296842510784976,0.22317813310980328,0.5438582120858305,0.24807645723263433,0.22777198609228358,0.5898993116114537,0.24191811377178676,0.2021911274618592,0.5314227975824127,0.24901260779209472,0.22828304184300152,0.44861259063944775,0.24735933415921102,0.2752139687815749,0.5205405747583568,0.24957808478859633,0.2571382401468314,0.5365539841183634,0.24866380624507445,0.259470160239942,0.5481899668094637,0.24767772709890282,0.17650593952606453,0.5335832289550819,0.24887216673295054,0.25740542786475573,0.5798710310450675,0.2436206183997979,0.2234443398222139
7.0,0.0,7.0,0.0,0.0,0.0,0.0,0.0,239.9804271000903,243.49123070004865,,left,1.191392800072208,246.19180350005627,fd13,246.19180350005627,,239.9804271000903,243.49123070004865,True,4.0,['p'],True,0.4444444444444445,0.6666666666666666,0.3333333333333333,1.0,1.0,0.9656336071428248,0.0517531804924914,succ_gain,0.0,5.0,,,fd13,1,2022-04-07_11h27.33.193,threat_forest,2021.2.3,59.947581798236335,True,57.0,0.4583333333333333,0.4625,-1.34375,-1.1674305555555555,1,0,1.0,0.1751230429444061,0.0517531804924914,0.4444444444444445,0.4444444444444445,0.6666666666666666,0.3333333333333333,0.0,0.0,4.0,4.0,1.0,1.0,-1.0,4.0,0,1,0,1,0.0517531804924914,0.6174260048706797,0.23621113338011107,0.1881379341681202,0.6305050761164108,0.23296842510784976,0.22317813310980328,0.5438582120858305,0.24807645723263433,0.22777198609228358,0.5833266272871196,0.24305667318495341,0.19829364627820378,0.6869358405422655,0.21505499152075666,0.177948897946346,0.8650351649994826,0.11674932831380043,0.08186188204277287,0.6000937257560113,0.23998124606428042,0.23479240061950135,0.7394414217789954,0.19266780553645324,0.15368647992753443,0.6249997008979172,0.23437507477543124,0.2239514496802686,0.6592108924056889,0.22465189173938416,0.22452358658744562,0.6382421798575219,0.2308890997082405,0.2121649484125709
7.0,0.0,7.0,0.0,1.0,0.0,1.0,0.0,,,,left,1.0605577999958768,251.6251518001081,fd13,251.6251518001081,,239.9804271000903,243.49123070004865,True,5.0,['p'],True,0.4444444444444445,0.6666666666666666,0.3333333333333333,1.0,1.0,0.9656336071428248,0.0736213037887426,succ_gain,0.0,6.0,249.4079355000285,,fd13,1,2022-04-07_11h27.33.193,threat_forest,2021.2.3,59.947581798236335,True,57.0,0.4583333333333333,0.4625,-1.34375,-1.1674305555555555,1,0,1.0,0.0587949961266164,0.0736213037887426,0.4444444444444445,0.4444444444444445,0.6666666666666666,0.3333333333333333,0.0,0.0,5.0,5.0,1.0,1.0,1.0,5.0,0,1,0,1,0.0736213037887426,0.4782368673535457,0.2495263660574129,0.2516908398852471,0.6305050761164108,0.23296842510784976,0.22317813310980328,0.5438582120858305,0.24807645723263433,0.22777198609228358,0.5833266272871196,0.24305667318495341,0.19829364627820378,0.6869358405422655,0.21505499152075666,0.177948897946346,0.8650351649994826,0.11674932831380043,0.08186188204277287,0.6000937257560113,0.23998124606428042,0.23479240061950135,0.7394414217789954,0.19266780553645324,0.15368647992753443,0.6249997008979172,0.23437507477543124,0.2239514496802686,0.6592108924056889,0.22465189173938416,0.22452358658744562,0.6659765093489635,0.22245179834433346,0.20468998593321397
7.0,0.0,7.0,0.0,2.0,0.0,2.0,0.0,,,,left,2.5414976000320166,257.4917716000928,fd13,257.4917716000928,,239.9804271000903,243.49123070004865,True,6.0,['p'],True,0.4444444444444445,0.6666666666666666,0.3333333333333333,1.0,1.0,0.9656336071428248,0.0685446171230093,succ_gain,0.0,6.0,254.70841300010213,,fd13,1,2022-04-07_11h27.33.193,threat_forest,2021.2.3,59.947581798236335,True,57.0,0.4583333333333333,0.4625,-1.34375,-1.1674305555555555,1,0,1.0,0.9327535135927538,0.0685446171230093,0.4444444444444445,0.4444444444444445,0.6666666666666666,0.3333333333333333,0.0,0.0,6.0,6.0,1.0,1.0,1.0,6.0,0,1,0,1,0.0685446171230093,0.4782368673535457,0.2495263660574129,0.2516908398852471,0.6305050761164108,0.23296842510784976,0.22317813310980328,0.5438582120858305,0.24807645723263433,0.22777198609228358,0.5833266272871196,0.24305667318495341,0.19829364627820378,0.6869358405422655,0.21505499152075666,0.177948897946346,0.8650351649994826,0.11674932831380043,0.08186188204277287,0.6000937257560113,0.23998124606428042,0.23479240061950135,0.7394414217789954,0.19266780553645324,0.15368647992753443,0.6249997008979172,0.23437507477543124,0.2239514496802686,0.6592108924056889,0.22465189173938416,0.22452358658744562,0.6596311790698319,0.2245178866687752,0.20652042104962515
7.0,0.0,7.0,0.0,3.0,0.0,3.0,0.0,,,,left,1.6293179000495002,265.7616409000475,fd13,260.05830410006456,262.05814340000506,265.7616409000475,,False,6.0,['p'],False,0.1875,0.25,0.25,2.0,1.0,0.895754137500101,-0.4202146804872364,wait_cost,1.0,5.0,262.05814340000506,,fd13,1,2022-04-07_11h27.33.193,threat_forest,2021.2.3,59.947581798236335,False,57.0,0.4583333333333333,0.4625,-1.34375,-1.1674305555555555,0,0,0.0,0.4881614610099447,-0.4202146804872364,0.0,0.1875,0.25,0.25,-1.0,-0.6875,5.3125,5.3125,0.0,1.0,-1.0,6.0,0,0,0,0,-0.84,0.6174260048706797,0.23621113338011107,0.1881379341681202,0.25640688916915316,0.1906623963557508,0.02785333949282176,0.5438582120858305,0.24807645723263433,0.22777198609228358,0.5898993116114537,0.24191811377178676,0.2021911274618592,0.6314266085470407,0.23272704656582294,0.20414354466360612,0.32688969116070854,0.2200328209735651,0.23476041919676194,0.36237156971797807,0.23105841517810666,0.21401596028954717,0.3747350880363209,0.2343087018307317,0.23235151324727804,0.5481899668094637,0.24767772709890282,0.17650593952606453,0.2857832310302243,0.20411117589214975,0.1966371749595636,0.11186833865282991,0.0993538134598857,0.09563226965536423
7.0,0.0,7.0,0.0,4.0,0.0,4.0,0.0,,,,left,1.8313664000015704,271.4753841001075,fd13,260.05830410006456,262.05814340000506,271.4753841001075,,False,5.0,['p'],False,0.1875,0.25,0.25,2.0,1.0,0.895754137500101,-0.4657660590277778,wait_cost,1.0,4.0,269.40830310003366,,fd13,1,2022-04-07_11h27.33.193,threat_forest,2021.2.3,59.947581798236335,False,57.0,0.4583333333333333,0.4625,-1.34375,-1.1674305555555555,0,0,0.0,0.6050623549039789,-0.4657660590277778,0.0,0.1875,0.25,0.25,-1.0,-0.6875,4.3125,4.3125,0.0,1.0,-1.0,5.0,0,0,0,0,-0.84,0.6174260048706797,0.23621113338011107,0.1881379341681202,0.25640688916915316,0.1906623963557508,0.02785333949282176,0.5438582120858305,0.24807645723263433,0.22777198609228358,0.5898993116114537,0.24191811377178676,0.2021911274618592,0.6314266085470407,0.23272704656582294,0.20414354466360612,0.32688969116070854,0.2200328209735651,0.23476041919676194,0.36237156971797807,0.23105841517810666,0.21401596028954717,0.3747350880363209,0.2343087018307317,0.23235151324727804,0.5481899668094637,0.24767772709890282,0.17650593952606453,0.2857832310302243,0.20411117589214975,0.1966371749595636,0.08894790365584213,0.08103617409107317,0.07940389744407943
7.0,0.0,7.0,0.0,5.0,0.0,5.0,0.0,,,,left,0.7577913000714034,278.90890680009034,fd13,278.90890680009034,,273.3251797000412,275.3250676000025,True,4.0,['p'],True,0.4444444444444445,0.6666666666666666,0.3333333333333333,1.0,1.0,0.9656336071428248,-0.3657407407407407,succ_gain,0.0,5.0,275.3250676000025,,fd13,1,2022-04-07_11h27.33.193,threat_forest,2021.2.3,59.947581798236335,True,57.0,0.4583333333333333,0.4625,-1.34375,-1.1674305555555555,1,0,1.0,-0.2773472609710554,-0.3657407407407407,0.0,0.4444444444444445,0.6666666666666666,0.3333333333333333,0.0,0.0,4.0,4.0,1.0,1.0,-1.0,4.0,0,0,0,1,-0.84,0.6174260048706797,0.23621113338011107,0.1881379341681202,0.25640688916915316,0.1906623963557508,0.02785333949282176,0.5438582120858305,0.24807645723263433,0.22777198609228358,0.5833266272871196,0.24305667318495341,0.19829364627820378,0.6869358405422655,0.21505499152075666,0.177948897946346,0.8650351649994826,0.11674932831380043,0.08186188204277287,0.6000937257560113,0.23998124606428042,0.23479240061950135,0.7394414217789954,0.19266780553645324,0.15368647992753443,0.6249997008979172,0.23437507477543124,0.2239514496802686,0.2857832310302243,0.20411117589214975,0.1966371749595636,0.1458977426150357,0.12461159131487251,0.11800920436882695
7.0,0.0,7.0,0.0,6.0,0.0,6.0,0.0,,,,left,1.83925590000581,284.331876500044,fd13,279.69191140006296,281.69191460008733,284.331876500044,,False,5.0,['p'],False,0.1875,0.25,0.25,2.0,1.0,0.895754137500101,0.0,wait_cost,1.0,4.0,281.69191460008733,,fd13,1,2022-04-07_11h27.33.193,threat_forest,2021.2.3,59.947581798236335,False,57.0,0.4583333333333333,0.4625,-1.34375,-1.1674305555555555,0,0,0.0,0.6093610876575288,0.0,0.0,0.1875,0.25,0.25,-1.0,-0.6875,4.3125,4.3125,0.0,1.0,1.0,5.0,0,0,0,0,-0.84,0.4782368673535457,0.2495263660574129,0.2516908398852471,0.25640688916915316,0.1906623963557508,0.02785333949282176,0.5438582120858305,0.24807645723263433,0.22777198609228358,0.5898993116114537,0.24191811377178676,0.2021911274618592,0.6314266085470407,0.23272704656582294,0.20414354466360612,0.32688969116070854,0.2200328209735651,0.23476041919676194,0.36237156971797807,0.23105841517810666,0.21401596028954717,0.3747350880363209,0.2343087018307317,0.23235151324727804,0.5481899668094637,0.24767772709890282,0.17650593952606453,0.2857832310302243,0.20411117589214975,0.1966371749595636,0.5691310125740356,0.24522090310048855,0.22486209978811045
7.0,0.0,7.0,0.0,7.0,0.0,7.0,0.0,,,,left,0.9811891000717878,291.17565050011035,fd13,279.69191140006296,281.69191460008733,291.17565050011035,,False,4.0,['p'],False,0.1875,0.25,0.25,2.0,1.0,0.895754137500101,0.0,wait_cost,1.0,3.0,288.19190420000814,,fd13,1,2022-04-07_11h27.33.193,threat_forest,2021.2.3,59.947581798236335,False,57.0,0.4583333333333333,0.4625,-1.34375,-1.1674305555555555,0,0,0.0,-0.018990075432653,0.0,0.0,0.1875,0.25,0.25,-1.0,-0.6875,3.3125,3.3125,0.0,1.0,-1.0,4.0,0,0,0,0,-0.84,0.6174260048706797,0.23621113338011107,0.1881379341681202,0.25640688916915316,0.1906623963557508,0.02785333949282176,0.5438582120858305,0.24807645723263433,0.22777198609228358,0.5898993116114537,0.24191811377178676,0.2021911274618592,0.6314266085470407,0.23272704656582294,0.20414354466360612,0.32688969116070854,0.2200328209735651,0.23476041919676194,0.36237156971797807,0.23105841517810666,0.21401596028954717,0.3747350880363209,0.2343087018307317,0.23235151324727804,0.5481899668094637,0.24767772709890282,0.17650593952606453,0.2857832310302243,0.20411117589214975,0.1966371749595636,0.5691310125740356,0.24522090310048855,0.22486209978811045
8.0,0.0,8.0,0.0,0.0,0.0,0.0,0.0,295.7491656000493,299.2587456000037,,left,2.0565839000046253,301.0443196000997,fd13,301.0443196000997,,295.7491656000493,299.2587456000037,True,4.0,['r'],True,0.46875,0.625,0.25,2.0,1.0,0.9634951148421658,0.0314926583817976,unsucc_cost,0.0,2.0,,,fd13,1,2022-04-07_11h27.33.193,threat_forest,2021.2.3,59.947581798236335,True,38.0,0.6125,0.5354166666666667,-0.5218750000000001,-0.9328125,1,0,1.0,0.7210463053298286,0.0314926583817976,0.46875,0.46875,0.625,0.25,0.125,0.15625,4.15625,4.15625,1.0,1.0,-1.0,4.0,0,1,0,1,0.0314926583817976,0.6174260048706797,0.23621113338011107,0.1881379341681202,0.6305050761164108,0.23296842510784976,0.22317813310980328,0.5438582120858305,0.24807645723263433,0.22777198609228358,0.5833266272871196,0.24305667318495341,0.19829364627820378,0.6314266085470407,0.23272704656582294,0.20414354466360612,0.8319836736396296,0.1397868404367359,0.11596609184973183,0.6288352588800203,0.23340147606931813,0.21947168005121354,0.7667704251400409,0.17883354027060183,0.12755176538149088,0.6249997008979172,0.23437507477543124,0.2239514496802686,0.6782961401869593,0.21821048639443213,0.21577862938890882,0.6116927671305984,0.23752472577070993,0.21804373046676945
8.0,0.0,8.0,0.0,1.0,0.0,1.0,0.0,,,,right,1.2828298000385985,306.0429506000364,fd13,303.1257412000559,305.12555330002215,306.0429506000364,,True,2.0,['r'],False,0.6,0.6,0.0,0.0,1.0,0.6126016192893442,0.0828427075234651,succ_gain,1.0,3.0,305.12555330002215,,fd13,1,2022-04-07_11h27.33.193,threat_forest,2021.2.3,59.947581798236335,True,38.0,0.6125,0.5354166666666667,-0.5218750000000001,-0.9328125,1,1,1.0,0.2490684190305558,0.0828427075234651,0.6,0.6,0.6,0.0,0.7999999999999999,0.7999999999999999,2.8,2.8,0.0,1.0,-1.0,2.0,0,1,1,1,0.0828427075234651,0.6174260048706797,0.23621113338011107,0.1881379341681202,0.6305050761164108,0.23296842510784976,0.22317813310980328,0.5438582120858305,0.24807645723263433,0.22777198609228358,0.5898993116114537,0.24191811377178676,0.2021911274618592,0.44914377700481967,0.24741364458266452,0.22591295662777844,0.8092198815464874,0.15438306485637635,0.13757401102696315,0.7654165201665403,0.17955407082268457,0.09409023818581885,0.8791586619827171,0.10623870904347577,-0.009589250435397045,0.6249997008979172,0.23437507477543124,0.2239514496802686,0.7705264263765238,0.17681545263194728,0.1595800548389304,0.6773488999327083,0.2185473676926582,0.20123088552115892
8.0,0.0,8.0,0.0,2.0,0.0,2.0,0.0,,,,left,1.78672319999896,310.52688980009407,fd13,310.52688980009407,,307.342386100092,309.34230620006565,True,3.0,['r'],True,0.46875,0.625,0.25,2.0,1.0,0.9634951148421658,0.0420991256654262,figh_cost,0.0,0.0,309.34230620006565,,fd13,1,2022-04-07_11h27.33.193,threat_forest,2021.2.3,59.947581798236335,True,38.0,0.6125,0.5354166666666667,-0.5218750000000001,-0.9328125,1,0,1.0,0.5803833277044727,0.0420991256654262,0.46875,0.46875,0.625,0.25,0.125,0.15625,3.15625,3.15625,1.0,1.0,1.0,3.0,0,1,0,1,0.0420991256654262,0.4782368673535457,0.2495263660574129,0.2516908398852471,0.6305050761164108,0.23296842510784976,0.22317813310980328,0.5438582120858305,0.24807645723263433,0.22777198609228358,0.5833266272871196,0.24305667318495341,0.19829364627820378,0.6314266085470407,0.23272704656582294,0.20414354466360612,0.8319836736396296,0.1397868404367359,0.11596609184973183,0.6288352588800203,0.23340147606931813,0.21947168005121354,0.7667704251400409,0.17883354027060183,0.12755176538149088,0.6249997008979172,0.23437507477543124,0.2239514496802686,0.6782961401869593,0.21821048639443213,0.21577862938890882,0.6256854526486837,0.23420316699249547,0.2151010209238411
9.0,0.0,9.0,0.0,0.0,0.0,0.0,0.0,315.70213450002484,319.2089977000141,,left,1.7625022999709472,322.2775846000295,fd13,322.2775846000295,,315.70213450002484,319.2089977000141,True,5.0,['r'],True,0.3061224489795918,0.4285714285714285,0.2857142857142857,2.0,2.0,0.9885754083994552,-0.0154423019709537,unsucc_cost,0.0,3.0,,,fd13,1,2022-04-07_11h27.33.193,threat_forest,2021.2.3,59.947581798236335,True,33.0,0.4142857142857142,0.5133928571428572,-0.7306122448979593,-0.6262436224489797,0,0,1.0,0.5667345606514904,-0.0154423019709537,0.3061224489795918,0.3061224489795918,0.4285714285714285,0.2857142857142857,-0.1428571428571432,-0.0612244897959186,4.938775510204081,4.938775510204081,1.0,2.0,-1.0,5.0,0,1,0,0,-0.0154423019709537,0.6174260048706797,0.23621113338011107,0.1881379341681202,0.6305050761164108,0.23296842510784976,0.22317813310980328,0.5438582120858305,0.24807645723263433,0.22777198609228358,0.5833266272871196,0.24305667318495341,0.19829364627820378,0.6557495265660354,0.22574208497445578,0.1937899892478439,0.59470396359508,0.24103115927938176,0.26584588239077217,0.566393040757355,0.2455919641389922,0.2478567241256293,0.5513050387729286,0.24736779299650827,0.2570218237617645,0.5481899668094637,0.24767772709890282,0.17650593952606453,0.5422423377018571,0.2482155849054823,0.2565140416421752,0.5478391031110111,0.24771142021353404,0.2270685543369368
9.0,0.0,9.0,0.0,1.0,0.0,1.0,0.0,,,,right,2.5525594000937417,329.44327620009426,fd13,324.0592915000161,326.0591762000695,329.44327620009426,,True,3.0,['r'],False,0.4,0.4,0.0,0.0,2.0,0.6126016192893442,0.1347766176536976,succ_gain,1.0,5.0,326.0591762000695,,fd13,1,2022-04-07_11h27.33.193,threat_forest,2021.2.3,59.947581798236335,True,33.0,0.4142857142857142,0.5133928571428572,-0.7306122448979593,-0.6262436224489797,1,0,1.0,0.93709654212528,0.1347766176536976,0.4,0.4,0.4,0.0,0.6000000000000001,0.6000000000000001,3.6,3.6,0.0,2.0,-1.0,3.0,0,1,0,1,0.1347766176536976,0.6174260048706797,0.23621113338011107,0.1881379341681202,0.6305050761164108,0.23296842510784976,0.22317813310980328,0.5438582120858305,0.24807645723263433,0.22777198609228358,0.5898993116114537,0.24191811377178676,0.2021911274618592,0.44914377700481967,0.24741364458266452,0.22591295662777844,0.5514494517588792,0.2473529539137108,0.2752045236110201,0.7287758074534858,0.19766162992400554,0.13625293587547976,0.6844050503218083,0.2159947774158113,0.1977541437734387,0.6249997008979172,0.23437507477543124,0.2239514496802686,0.6229777053869736,0.23487648397775468,0.23840466015893155,0.7373154495225879,0.19368137741789204,0.1792010520117086
9.0,0.0,9.0,0.0,2.0,0.0,2.0,0.0,,,,right,1.3667143000056967,337.24319520010613,fd13,324.0592915000161,326.0591762000695,337.24319520010613,,True,5.0,['r'],False,0.4,0.4,0.0,0.0,2.0,0.6126016192893442,0.0900663897782421,unsucc_cost,1.0,3.0,334.02584090002347,,fd13,1,2022-04-07_11h27.33.193,threat_forest,2021.2.3,59.947581798236335,True,33.0,0.4142857142857142,0.5133928571428572,-0.7306122448979593,-0.6262436224489797,1,0,1.0,0.3124095380974825,0.0900663897782421,0.4,0.4,0.4,0.0,0.6000000000000001,0.6000000000000001,5.6,5.6,0.0,2.0,1.0,5.0,0,1,0,1,0.0900663897782421,0.4782368673535457,0.2495263660574129,0.2516908398852471,0.6305050761164108,0.23296842510784976,0.22317813310980328,0.5438582120858305,0.24807645723263433,0.22777198609228358,0.5898993116114537,0.24191811377178676,0.2021911274618592,0.44914377700481967,0.24741364458266452,0.22591295662777844,0.5514494517588792,0.2473529539137108,0.2752045236110201,0.7287758074534858,0.19766162992400554,0.13625293587547976,0.6844050503218083,0.2159947774158113,0.1977541437734387,0.6249997008979172,0.23437507477543124,0.2239514496802686,0.6229777053869736,0.23487648397775468,0.23840466015893155,0.6861140810361724,0.21536154884006106,0.1984084337250121
9.0,0.0,9.0,0.0,3.0,0.0,3.0,0.0,,,,left,2.325513100018725,342.1601495000068,fd13,342.1601495000068,,338.6429673000239,340.6426144000143,True,3.0,['r'],True,0.3061224489795918,0.4285714285714285,0.2857142857142857,2.0,2.0,0.9885754083994552,0.0061171946785325,unsucc_cost,0.0,1.0,340.6426144000143,,fd13,1,2022-04-07_11h27.33.193,threat_forest,2021.2.3,59.947581798236335,True,33.0,0.4142857142857142,0.5133928571428572,-0.7306122448979593,-0.6262436224489797,0,0,1.0,0.843940702871362,0.0061171946785325,0.3061224489795918,0.3061224489795918,0.4285714285714285,0.2857142857142857,-0.1428571428571432,-0.0612244897959186,2.9387755102040813,2.9387755102040813,1.0,2.0,-1.0,3.0,0,1,0,0,0.0061171946785325,0.6174260048706797,0.23621113338011107,0.1881379341681202,0.6305050761164108,0.23296842510784976,0.22317813310980328,0.5438582120858305,0.24807645723263433,0.22777198609228358,0.5833266272871196,0.24305667318495341,0.19829364627820378,0.6557495265660354,0.22574208497445578,0.1937899892478439,0.59470396359508,0.24103115927938176,0.26584588239077217,0.566393040757355,0.2455919641389922,0.2478567241256293,0.5513050387729286,0.24736779299650827,0.2570218237617645,0.5481899668094637,0.24767772709890282,0.17650593952606453,0.5422423377018571,0.2482155849054823,0.2565140416421752,0.5774997023580326,0.24399379613441638,0.22377495377614204
10.0,0.0,10.0,0.0,0.0,0.0,0.0,0.0,358.7183795000892,362.22641280002426,,right,1.2410918000387028,365.76034300006,fd13,358.7183795000892,362.22641280002426,365.76034300006,,True,4.0,['p'],False,0.375,0.5,0.25,1.0,1.0,0.9850568223215076,0.0365041143210029,unsucc_cost,1.0,2.0,,,fd13,1,2022-04-07_11h27.33.193,threat_forest,2021.2.3,59.947581798236335,True,3.0,0.35,0.3821428571428571,-1.4225000000000003,-1.07655612244898,0,0,1.0,0.2159914761205563,0.0365041143210029,0.375,0.375,0.5,0.25,-0.25,-0.125,3.875,3.875,0.0,1.0,-1.0,4.0,0,1,0,0,0.0365041143210029,0.6174260048706797,0.23621113338011107,0.1881379341681202,0.6305050761164108,0.23296842510784976,0.22317813310980328,0.5438582120858305,0.24807645723263433,0.22777198609228358,0.5898993116114537,0.24191811377178676,0.2021911274618592,0.6314266085470407,0.23272704656582294,0.20414354466360612,0.6954532022415452,0.21179804573352567,0.22256984492811688,0.5406899002809227,0.24834433201512854,0.2542654981654062,0.6508529963115677,0.22724337350382218,0.2190041951606682,0.5481899668094637,0.24767772709890282,0.17650593952606453,0.6019439358942719,0.23960743393438458,0.2448274751602527,0.6183287132000054,0.23599831563243084,0.21669141910326228
10.0,0.0,10.0,0.0,1.0,0.0,1.0,0.0,,,,right,0.9181074000662192,370.1834350000136,fd13,370.1834350000136,,367.0267930000555,369.02647020004224,False,2.0,['p'],True,0.16,0.2,0.2,2.0,1.0,0.8198746470064713,-0.0078321737219239,wait_cost,0.0,1.0,369.02647020004224,,fd13,1,2022-04-07_11h27.33.193,threat_forest,2021.2.3,59.947581798236335,False,3.0,0.35,0.3821428571428571,-1.4225000000000003,-1.07655612244898,0,0,0.0,-0.0854409016686701,-0.0078321737219239,0.16,0.16,0.2,0.2,-1.0,-0.7200000000000004,1.2799999999999996,1.2799999999999996,1.0,1.0,-1.0,2.0,0,1,0,0,-0.0078321737219239,0.6174260048706797,0.23621113338011107,0.1881379341681202,0.6305050761164108,0.23296842510784976,0.22317813310980328,0.5438582120858305,0.24807645723263433,0.22777198609228358,0.5833266272871196,0.24305667318495341,0.19829364627820378,0.5962459473931433,0.24073671761039622,0.2160159897640213,0.2627175569349264,0.19369704221307013,0.1957735303571727,0.36237156971797807,0.23105841517810666,0.21401596028954717,0.33662171291614623,0.22330753530954586,0.21156888828096476,0.5481899668094637,0.24767772709890282,0.17650593952606453,0.41370032497045245,0.2425523660897945,0.2488255631973356,0.5583588451323385,0.24659424519481973,0.22607880169120487
10.0,0.0,10.0,0.0,2.0,0.0,2.0,0.0,,,,right,0.953140199999325,374.2933923000237,fd13,371.126783600077,373.1265013000229,374.2933923000237,,True,1.0,['p'],False,0.375,0.5,0.25,1.0,1.0,0.9850568223215076,0.0417231582641601,succ_gain,1.0,2.0,373.1265013000229,,fd13,1,2022-04-07_11h27.33.193,threat_forest,2021.2.3,59.947581798236335,True,3.0,0.35,0.3821428571428571,-1.4225000000000003,-1.07655612244898,0,0,1.0,-0.0479932717732458,0.0417231582641601,1.0,0.375,0.5,0.25,-0.25,-0.125,0.875,1.0,0.0,1.0,-1.0,1.0,1,1,0,0,0.625,0.6174260048706797,0.23621113338011107,0.1881379341681202,0.6305050761164108,0.23296842510784976,0.22317813310980328,0.8367328370955716,0.13661099642156732,0.04099619329206075,0.5898993116114537,0.24191811377178676,0.2021911274618592,0.6314266085470407,0.23272704656582294,0.20414354466360612,0.6954532022415452,0.21179804573352567,0.22256984492811688,0.5406899002809227,0.24834433201512854,0.2542654981654062,0.6508529963115677,0.22724337350382218,0.2190041951606682,0.5481899668094637,0.24767772709890282,0.17650593952606453,0.9327327615114765,0.06274235711465162,0.004712555530705986,0.6251928764378077,0.23432674368922785,0.21521050275121173
10.0,0.0,10.0,0.0,3.0,0.0,3.0,0.0,,,,right,1.5838914000196382,378.9955696000252,fd13,378.9955696000252,,375.2769660000922,377.27656690008007,False,2.0,['p'],True,0.16,0.2,0.2,2.0,1.0,0.8198746470064713,-0.0276563437499999,wait_cost,0.0,1.0,377.27656690008007,,fd13,1,2022-04-07_11h27.33.193,threat_forest,2021.2.3,59.947581798236335,False,3.0,0.35,0.3821428571428571,-1.4225000000000003,-1.07655612244898,0,0,0.0,0.4598847304481864,-0.0276563437499999,0.16,0.16,0.2,0.2,-1.0,-0.7200000000000004,1.2799999999999996,1.2799999999999996,1.0,1.0,1.0,2.0,0,1,0,0,-0.0276563437499999,0.4782368673535457,0.2495263660574129,0.2516908398852471,0.6305050761164108,0.23296842510784976,0.22317813310980328,0.5438582120858305,0.24807645723263433,0.22777198609228358,0.5833266272871196,0.24305667318495341,0.19829364627820378,0.5962459473931433,0.24073671761039622,0.2160159897640213,0.2627175569349264,0.19369704221307013,0.1957735303571727,0.36237156971797807,0.23105841517810666,0.21401596028954717,0.33662171291614623,0.22330753530954586,0.21156888828096476,0.5481899668094637,0.24767772709890282,0.17650593952606453,0.41370032497045245,0.2425523660897945,0.2488255631973356,0.5308694319783182,0.249047078169336,0.22825187026631477
10.0,0.0,10.0,0.0,4.0,0.0,4.0,0.0,,,,right,1.004321299958974,384.626870200038,fd13,380.61020460003056,382.6099940000568,384.626870200038,,True,1.0,['p'],False,0.375,0.5,0.25,1.0,1.0,0.9850568223215076,0.12046875,unsucc_cost,1.0,0.0,382.6099940000568,,fd13,1,2022-04-07_11h27.33.193,threat_forest,2021.2.3,59.947581798236335,True,3.0,0.35,0.3821428571428571,-1.4225000000000003,-1.07655612244898,0,0,1.0,0.0043119899535539,0.12046875,1.0,0.375,0.5,0.25,-0.25,-0.125,0.875,1.0,0.0,1.0,-1.0,1.0,1,1,0,0,0.625,0.6174260048706797,0.23621113338011107,0.1881379341681202,0.6305050761164108,0.23296842510784976,0.22317813310980328,0.8367328370955716,0.13661099642156732,0.04099619329206075,0.5898993116114537,0.24191811377178676,0.2021911274618592,0.6314266085470407,0.23272704656582294,0.20414354466360612,0.6954532022415452,0.21179804573352567,0.22256984492811688,0.5406899002809227,0.24834433201512854,0.2542654981654062,0.6508529963115677,0.22724337350382218,0.2190041951606682,0.5481899668094637,0.24767772709890282,0.17650593952606453,0.9327327615114765,0.06274235711465162,0.004712555530705986,0.7215259301060131,0.2009262622906658,0.18561960223949925
11.0,0.0,11.0,0.0,0.0,0.0,0.0,0.0,389.9875607000431,393.4935276000761,,left,2.3031204000581056,396.74541600001976,fd13,389.9875607000431,393.4935276000761,396.74541600001976,,False,4.0,['p'],False,0.27,0.3,0.1,1.0,2.0,0.7963326591781347,0.0116156252879662,wait_cost,1.0,3.0,,,fd13,1,2022-04-07_11h27.33.193,threat_forest,2021.2.3,59.947581798236335,False,1.0,0.4833333333333333,0.4166666666666666,-0.7877777777777778,-1.1051388888888891,1,0,0.0,0.8342648991325031,0.0116156252879662,0.27,0.27,0.3,0.1,-0.1,-0.02,3.98,3.98,0.0,2.0,-1.0,4.0,0,1,0,1,0.0116156252879662,0.6174260048706797,0.23621113338011107,0.1881379341681202,0.6305050761164108,0.23296842510784976,0.22317813310980328,0.5438582120858305,0.24807645723263433,0.22777198609228358,0.5898993116114537,0.24191811377178676,0.2021911274618592,0.5231979020759013,0.24946185733927687,0.2289489481649497,0.39826935511442146,0.2396508758911643,0.26380254220657046,0.5765829342252736,0.24413505418544734,0.24446436993870369,0.49683317517354075,0.24998997122051853,0.26197545722595145,0.6249997008979172,0.23437507477543124,0.2239514496802686,0.5103246886835282,0.2498934008035882,0.2587918719338923,0.584984248680323,0.24277767747624104,0.2226975427713398
11.0,0.0,11.0,0.0,1.0,0.0,1.0,0.0,,,,right,0.8242595000192523,402.3442653000821,fd13,389.9875607000431,393.4935276000761,402.3442653000821,,True,3.0,['p'],False,0.27,0.3,0.1,1.0,2.0,0.7963326591781347,0.0431681748711396,succ_gain,1.0,5.0,401.0769987000385,,fd13,1,2022-04-07_11h27.33.193,threat_forest,2021.2.3,59.947581798236335,True,1.0,0.4833333333333333,0.4166666666666666,-0.7877777777777778,-1.1051388888888891,1,0,1.0,-0.193269871443999,0.0431681748711396,0.27,0.27,0.3,0.1,-0.1,-0.02,2.98,2.98,0.0,2.0,-1.0,3.0,0,1,0,1,0.0431681748711396,0.6174260048706797,0.23621113338011107,0.1881379341681202,0.6305050761164108,0.23296842510784976,0.22317813310980328,0.5438582120858305,0.24807645723263433,0.22777198609228358,0.5898993116114537,0.24191811377178676,0.2021911274618592,0.5231979020759013,0.24946185733927687,0.2289489481649497,0.39826935511442146,0.2396508758911643,0.26380254220657046,0.5765829342252736,0.24413505418544734,0.24446436993870369,0.49683317517354075,0.24998997122051853,0.26197545722595145,0.6249997008979172,0.23437507477543124,0.2239514496802686,0.5103246886835282,0.2498934008035882,0.2587918719338923,0.6270846494116362,0.23384949188392157,0.21478768517198782
11.0,0.0,11.0,0.0,2.0,0.0,2.0,0.0,,,,right,2.3521039000479504,406.4277453001123,fd13,389.9875607000431,393.4935276000761,406.4277453001123,,True,5.0,['p'],False,0.27,0.3,0.1,1.0,2.0,0.7963326591781347,0.0041028475611568,unsucc_cost,1.0,3.0,405.1936127000954,,fd13,1,2022-04-07_11h27.33.193,threat_forest,2021.2.3,59.947581798236335,True,1.0,0.4833333333333333,0.4166666666666666,-0.7877777777777778,-1.1051388888888891,1,0,1.0,0.8553102042511406,0.0041028475611568,0.27,0.27,0.3,0.1,-0.1,-0.02,4.98,4.98,0.0,2.0,1.0,5.0,0,1,0,1,0.0041028475611568,0.4782368673535457,0.2495263660574129,0.2516908398852471,0.6305050761164108,0.23296842510784976,0.22317813310980328,0.5438582120858305,0.24807645723263433,0.22777198609228358,0.5898993116114537,0.24191811377178676,0.2021911274618592,0.5231979020759013,0.24946185733927687,0.2289489481649497,0.39826935511442146,0.2396508758911643,0.26380254220657046,0.5765829342252736,0.24413505418544734,0.24446436993870369,0.49683317517354075,0.24998997122051853,0.26197545722595145,0.6249997008979172,0.23437507477543124,0.2239514496802686,0.5103246886835282,0.2498934008035882,0.2587918719338923,0.5747486193971062,0.2444126438982266,0.22414602874241468
11.0,0.0,11.0,0.0,3.0,0.0,3.0,0.0,,,,left,1.2630373999709263,412.59448670002166,fd13,412.59448670002166,,408.81060960004106,410.8103229000699,True,3.0,['p'],True,0.4444444444444445,0.6666666666666666,0.3333333333333333,1.0,2.0,0.9656336071428248,0.0840517292714524,figh_cost,0.0,0.0,410.8103229000699,,fd13,1,2022-04-07_11h27.33.193,threat_forest,2021.2.3,59.947581798236335,True,1.0,0.4833333333333333,0.4166666666666666,-0.7877777777777778,-1.1051388888888891,1,1,1.0,0.2335194549417452,0.0840517292714524,0.4444444444444445,0.4444444444444445,0.6666666666666666,0.3333333333333333,0.6666666666666665,0.4444444444444444,3.4444444444444446,3.4444444444444446,1.0,2.0,-1.0,3.0,0,1,1,1,0.0840517292714524,0.6174260048706797,0.23621113338011107,0.1881379341681202,0.6305050761164108,0.23296842510784976,0.22317813310980328,0.5438582120858305,0.24807645723263433,0.22777198609228358,0.5833266272871196,0.24305667318495341,0.19829364627820378,0.6869358405422655,0.21505499152075666,0.177948897946346,0.8650351649994826,0.11674932831380043,0.08186188204277287,0.7413792900726278,0.19173603832403419,0.12245544247153667,0.7394414217789954,0.19266780553645324,0.15368647992753443,0.6249997008979172,0.23437507477543124,0.2239514496802686,0.6592108924056889,0.22465189173938416,0.22452358658744562,0.6788248559464203,0.21802167089574206,0.20076514847290367
12.0,0.0,12.0,0.0,0.0,0.0,0.0,0.0,418.2379782000789,421.74382870004047,,right,1.454888300038874,422.9119208001066,fd13,422.9119208001066,,418.2379782000789,421.74382870004047,False,4.0,['p'],True,0.1975308641975308,0.2222222222222222,0.1111111111111111,1.0,1.0,0.7461067557824965,0.000620491815553,wait_cost,0.0,3.0,,,fd13,1,2022-04-07_11h27.33.193,threat_forest,2021.2.3,59.947581798236335,False,48.0,0.3111111111111111,0.3972222222222222,-1.3792592592592592,-1.0835185185185183,0,0,0.0,0.3749291279437763,0.000620491815553,0.1975308641975308,0.1975308641975308,0.2222222222222222,0.1111111111111111,-0.6666666666666667,-0.5185185185185184,3.481481481481482,3.481481481481482,1.0,1.0,-1.0,4.0,0,1,0,0,0.000620491815553,0.6174260048706797,0.23621113338011107,0.1881379341681202,0.6305050761164108,0.23296842510784976,0.22317813310980328,0.5438582120858305,0.24807645723263433,0.22777198609228358,0.5833266272871196,0.24305667318495341,0.19829364627820378,0.5314227975824127,0.24901260779209472,0.22828304184300152,0.29022546703072566,0.20599464531752282,0.2139786227368929,0.43993188203961037,0.24639182120469671,0.24971915801125333,0.3890637382614372,0.23769314583147308,0.23874516525240325,0.5481899668094637,0.24767772709890282,0.17650593952606453,0.44630106875754716,0.24711642478341828,0.2550218038917096,0.5699817681191163,0.24510255213092227,0.22475724765367233
12.0,0.0,12.0,0.0,1.0,0.0,1.0,0.0,,,,left,2.902685299981385,427.4944840000244,fd13,424.3943251000019,426.3939734000014,427.4944840000244,,False,3.0,['p'],False,0.32,0.4,0.2,1.0,1.0,0.9455672104350704,0.0271702936740403,wait_cost,1.0,2.0,426.3939734000014,,fd13,1,2022-04-07_11h27.33.193,threat_forest,2021.2.3,59.947581798236335,False,48.0,0.3111111111111111,0.3972222222222222,-1.3792592592592592,-1.0835185185185183,0,0,0.0,1.0656362740616483,0.0271702936740403,0.32,0.32,0.4,0.2,-0.3999999999999999,-0.24,2.76,2.76,0.0,1.0,-1.0,3.0,0,1,0,0,0.0271702936740403,0.6174260048706797,0.23621113338011107,0.1881379341681202,0.6305050761164108,0.23296842510784976,0.22317813310980328,0.5438582120858305,0.24807645723263433,0.22777198609228358,0.5898993116114537,0.24191811377178676,0.2021911274618592,0.5962459473931433,0.24073671761039622,0.2160159897640213,0.5514494517588792,0.2473529539137108,0.2752045236110201,0.5043696763583095,0.24998090592852368,0.2580761924048208,0.5719794085565608,0.24481896474384773,0.25220675787065416,0.5481899668094637,0.24767772709890282,0.17650593952606453,0.5544271208487405,0.24703768851611657,0.254914910248063,0.6059357296269335,0.2387776211884092,0.21915372355981255
12.0,0.0,12.0,0.0,2.0,0.0,2.0,0.0,,,,right,0.866962399915792,433.4109934000298,fd13,433.4109934000298,,430.4278984999983,432.4273551000515,False,2.0,['p'],True,0.1975308641975308,0.2222222222222222,0.1111111111111111,1.0,1.0,0.7461067557824965,0.0037858795279334,wait_cost,0.0,1.0,432.4273551000515,,fd13,1,2022-04-07_11h27.33.193,threat_forest,2021.2.3,59.947581798236335,False,48.0,0.3111111111111111,0.3972222222222222,-1.3792592592592592,-1.0835185185185183,0,0,0.0,-0.1427596711745506,0.0037858795279334,0.1975308641975308,0.1975308641975308,0.2222222222222222,0.1111111111111111,-0.6666666666666667,-0.5185185185185184,1.4814814814814816,1.4814814814814816,1.0,1.0,-1.0,2.0,0,1,0,0,0.0037858795279334,0.6174260048706797,0.23621113338011107,0.1881379341681202,0.6305050761164108,0.23296842510784976,0.22317813310980328,0.5438582120858305,0.24807645723263433,0.22777198609228358,0.5833266272871196,0.24305667318495341,0.19829364627820378,0.5314227975824127,0.24901260779209472,0.22828304184300152,0.29022546703072566,0.20599464531752282,0.2139786227368929,0.43993188203961037,0.24639182120469671,0.24971915801125333,0.3890637382614372,0.23769314583147308,0.23874516525240325,0.5481899668094637,0.24767772709890282,0.17650593952606453,0.44630106875754716,0.24711642478341828,0.2550218038917096,0.5743152957165746,0.24447723682255806,0.224203254348682
12.0,0.0,12.0,0.0,3.0,0.0,3.0,0.0,,,,right,0.6992497000610456,437.7943986000028,fd13,434.2945450000698,436.2940590000944,437.7943986000028,,True,1.0,['p'],False,0.32,0.4,0.2,1.0,1.0,0.9455672104350704,0.0339764324116506,unsucc_cost,1.0,0.0,436.2940590000944,,fd13,1,2022-04-07_11h27.33.193,threat_forest,2021.2.3,59.947581798236335,True,48.0,0.3111111111111111,0.3972222222222222,-1.3792592592592592,-1.0835185185185183,0,0,1.0,-0.3577473758439631,0.0339764324116506,1.0,0.32,0.4,0.2,-0.3999999999999999,-0.24,0.76,1.0,0.0,1.0,-1.0,1.0,1,1,0,0,0.625,0.6174260048706797,0.23621113338011107,0.1881379341681202,0.6305050761164108,0.23296842510784976,0.22317813310980328,0.8367328370955716,0.13661099642156732,0.04099619329206075,0.5898993116114537,0.24191811377178676,0.2021911274618592,0.5962459473931433,0.24073671761039622,0.2160159897640213,0.5514494517588792,0.2473529539137108,0.2752045236110201,0.5043696763583095,0.24998090592852368,0.2580761924048208,0.5719794085565608,0.24481896474384773,0.25220675787065416,0.5481899668094637,0.24767772709890282,0.17650593952606453,0.9327327615114765,0.06274235711465162,0.004712555530705986,0.614987016715465,0.23677798598687738,0.2173821620783426
13.0,0.0,13.0,0.0,0.0,0.0,0.0,0.0,443.9022113000974,447.4109066000674,,right,1.631240600021556,451.21157150005456,fd13,451.21157150005456,,443.9022113000974,447.4109066000674,False,4.0,['p'],True,0.375,0.5,0.25,1.0,1.0,0.9850568223215076,0.0300347076439857,wait_cost,0.0,3.0,,,fd13,1,2022-04-07_11h27.33.193,threat_forest,2021.2.3,59.947581798236335,False,50.0,0.35,0.3305555555555555,-1.2625000000000002,-1.3208796296296297,1,1,0.0,0.4893408296333707,0.0300347076439857,0.375,0.375,0.5,0.25,-0.25,-0.125,3.875,3.875,1.0,1.0,-1.0,4.0,0,1,1,1,0.0300347076439857,0.6174260048706797,0.23621113338011107,0.1881379341681202,0.6305050761164108,0.23296842510784976,0.22317813310980328,0.5438582120858305,0.24807645723263433,0.22777198609228358,0.5833266272871196,0.24305667318495341,0.19829364627820378,0.6314266085470407,0.23272704656582294,0.20414354466360612,0.6954532022415452,0.21179804573352567,0.22256984492811688,0.5406899002809227,0.24834433201512854,0.2542654981654062,0.6508529963115677,0.22724337350382218,0.2190041951606682,0.6249997008979172,0.23437507477543124,0.2239514496802686,0.6019439358942719,0.23960743393438458,0.2448274751602527,0.6097542893847774,0.23795399596164257,0.2184240391024731
13.0,0.0,13.0,0.0,1.0,0.0,1.0,0.0,,,,left,0.9814824000932276,455.846787000075,fd13,452.8614224001067,454.8609698000364,455.846787000075,,False,3.0,['p'],False,0.2,0.2,0.0,0.0,1.0,0.4554859150035951,0.0147778552246093,wait_cost,1.0,2.0,454.8609698000364,,fd13,1,2022-04-07_11h27.33.193,threat_forest,2021.2.3,59.947581798236335,False,50.0,0.35,0.3305555555555555,-1.2625000000000002,-1.3208796296296297,0,0,0.0,-0.0186911970685473,0.0147778552246093,0.2,0.2,0.2,0.0,-0.4000000000000001,-0.4000000000000001,2.6,2.6,0.0,1.0,-1.0,3.0,0,1,0,0,0.0147778552246093,0.6174260048706797,0.23621113338011107,0.1881379341681202,0.6305050761164108,0.23296842510784976,0.22317813310980328,0.5438582120858305,0.24807645723263433,0.22777198609228358,0.5898993116114537,0.24191811377178676,0.2021911274618592,0.44914377700481967,0.24741364458266452,0.22591295662777844,0.2627175569349264,0.19369704221307013,0.1957735303571727,0.5043696763583095,0.24998090592852365,0.2580761924048208,0.3926214584785495,0.23846984882072614,0.24021245755315834,0.5481899668094637,0.24767772709890282,0.17650593952606453,0.4484653468005228,0.24734417951960966,0.2553310074448315,0.589271258823383,0.24203064234808855,0.22203571272487627
13.0,0.0,13.0,0.0,2.0,0.0,2.0,0.0,,,,left,1.1886450999882072,460.3281369000906,fd13,452.8614224001067,454.8609698000364,460.3281369000906,,False,2.0,['p'],False,0.2,0.2,0.0,0.0,1.0,0.4554859150035951,0.0013027343749999,wait_cost,1.0,1.0,458.844494100078,,fd13,1,2022-04-07_11h27.33.193,threat_forest,2021.2.3,59.947581798236335,False,50.0,0.35,0.3305555555555555,-1.2625000000000002,-1.3208796296296297,0,0,0.0,0.1728140870200821,0.0013027343749999,0.2,0.2,0.2,0.0,-0.4000000000000001,-0.4000000000000001,1.6,1.6,0.0,1.0,-1.0,2.0,0,1,0,0,0.0013027343749999,0.6174260048706797,0.23621113338011107,0.1881379341681202,0.6305050761164108,0.23296842510784976,0.22317813310980328,0.5438582120858305,0.24807645723263433,0.22777198609228358,0.5898993116114537,0.24191811377178676,0.2021911274618592,0.44914377700481967,0.24741364458266452,0.22591295662777844,0.2627175569349264,0.19369704221307013,0.1957735303571727,0.5043696763583095,0.24998090592852365,0.2580761924048208,0.3926214584785495,0.23846984882072614,0.24021245755315834,0.5481899668094637,0.24767772709890282,0.17650593952606453,0.4484653468005228,0.24734417951960966,0.2553310074448315,0.5709167130225469,0.24497081981407773,0.22464054041716847
13.0,0.0,13.0,0.0,3.0,0.0,3.0,0.0,,,,left,1.0268876999616623,464.59515400009695,fd13,452.8614224001067,454.8609698000364,464.59515400009695,,False,1.0,['p'],False,0.2,0.2,0.0,0.0,1.0,0.4554859150035951,0.0266386718749999,wait_cost,1.0,0.0,463.5444950000383,,fd13,1,2022-04-07_11h27.33.193,threat_forest,2021.2.3,59.947581798236335,False,50.0,0.35,0.3305555555555555,-1.2625000000000002,-1.3208796296296297,0,0,0.0,0.0265325773157901,0.0266386718749999,1.0,0.2,0.2,0.0,-0.4000000000000001,-0.4000000000000001,0.5999999999999999,1.0,0.0,1.0,-1.0,1.0,1,1,0,0,0.625,0.6174260048706797,0.23621113338011107,0.1881379341681202,0.6305050761164108,0.23296842510784976,0.22317813310980328,0.8367328370955716,0.13661099642156732,0.04099619329206075,0.5898993116114537,0.24191811377178676,0.2021911274618592,0.44914377700481967,0.24741364458266452,0.22591295662777844,0.2627175569349264,0.19369704221307013,0.1957735303571727,0.5043696763583095,0.24998090592852365,0.2580761924048208,0.3926214584785495,0.23846984882072614,0.24021245755315834,0.5481899668094637,0.24767772709890282,0.17650593952606453,0.9327327615114765,0.06274235711465162,0.004712555530705986,0.6052255818311136,0.2389275769283036,0.219286575698302
14.0,0.0,14.0,0.0,0.0,0.0,0.0,0.0,470.8169128000736,474.32799320004415,,left,2.5061940999003127,476.1789809000911,fd13,476.1789809000911,,470.8169128000736,474.32799320004415,True,4.0,['p'],True,0.2448979591836734,0.2857142857142857,0.1428571428571428,1.0,1.0,0.8400769154957735,0.0043475630520346,figh_cost,0.0,1.0,,,fd13,1,2022-04-07_11h27.33.193,threat_forest,2021.2.3,59.947581798236335,True,69.0,0.3928571428571428,0.3714285714285714,-1.2665816326530612,-1.2645408163265306,0,0,1.0,0.9187653075448212,0.0043475630520346,0.2448979591836734,0.2448979591836734,0.2857142857142857,0.1428571428571428,-0.5714285714285712,-0.4081632653061224,3.591836734693877,3.591836734693877,1.0,1.0,-1.0,4.0,0,1,0,0,0.0043475630520346,0.6174260048706797,0.23621113338011107,0.1881379341681202,0.6305050761164108,0.23296842510784976,0.22317813310980328,0.5438582120858305,0.24807645723263433,0.22777198609228358,0.5833266272871196,0.24305667318495341,0.19829364627820378,0.5548136417929206,0.24699546467339742,0.2252931037040764,0.3772728118704974,0.23493803729382565,0.25682576296702936,0.462826738691895,0.2486181486437193,0.25490306878820934,0.4589464810821779,0.24831460858446402,0.2588104807408994,0.5481899668094637,0.24767772709890282,0.17650593952606453,0.488079232536147,0.24985789530307267,0.2587436690859588,0.5750830888725426,0.24436252976535783,0.22410163051047743
14.0,0.0,14.0,0.0,1.0,0.0,1.0,0.0,,,,left,1.9102184999501333,482.69568390003406,fd13,482.69568390003406,,470.8169128000736,474.32799320004415,True,1.0,['p'],True,0.2448979591836734,0.2857142857142857,0.1428571428571428,1.0,1.0,0.8400769154957735,0.0157373162780367,succ_gain,0.0,2.0,480.7114448000211,,fd13,1,2022-04-07_11h27.33.193,threat_forest,2021.2.3,59.947581798236335,True,69.0,0.3928571428571428,0.3714285714285714,-1.2665816326530612,-1.2645408163265306,0,0,1.0,0.647217633395251,0.0157373162780367,1.0,0.2448979591836734,0.2857142857142857,0.1428571428571428,-0.5714285714285712,-0.4081632653061224,0.5918367346938775,1.0,1.0,1.0,-1.0,1.0,1,1,0,0,0.625,0.6174260048706797,0.23621113338011107,0.1881379341681202,0.6305050761164108,0.23296842510784976,0.22317813310980328,0.8367328370955716,0.13661099642156732,0.04099619329206075,0.5833266272871196,0.24305667318495341,0.19829364627820378,0.5548136417929206,0.24699546467339742,0.2252931037040764,0.3772728118704974,0.23493803729382565,0.25682576296702936,0.462826738691895,0.2486181486437193,0.25490306878820934,0.4589464810821779,0.24831460858446402,0.2588104807408994,0.5481899668094637,0.24767772709890282,0.17650593952606453,0.9327327615114765,0.06274235711465162,0.004712555530705986,0.5905693479990841,0.2417971932030208,0.22182889024397207
14.0,0.0,14.0,0.0,2.0,0.0,2.0,0.0,,,,right,1.3884862000122666,488.2451257000212,fd13,484.6284321000567,486.62812940008007,488.2451257000212,,True,2.0,['p'],False,0.375,0.5,0.25,1.0,1.0,0.9850568223215076,0.0332729833967032,unsucc_cost,1.0,0.0,486.62812940008007,,fd13,1,2022-04-07_11h27.33.193,threat_forest,2021.2.3,59.947581798236335,True,69.0,0.3928571428571428,0.3714285714285714,-1.2665816326530612,-1.2645408163265306,1,1,1.0,0.3282140889413025,0.0332729833967032,0.375,0.375,0.5,0.25,-0.25,-0.125,1.875,1.875,0.0,1.0,1.0,2.0,0,1,1,1,0.0332729833967032,0.4782368673535457,0.2495263660574129,0.2516908398852471,0.6305050761164108,0.23296842510784976,0.22317813310980328,0.5438582120858305,0.24807645723263433,0.22777198609228358,0.5898993116114537,0.24191811377178676,0.2021911274618592,0.6314266085470407,0.23272704656582294,0.20414354466360612,0.6954532022415452,0.21179804573352567,0.22256984492811688,0.5406899002809227,0.24834433201512854,0.2542654981654062,0.6508529963115677,0.22724337350382218,0.2190041951606682,0.6249997008979172,0.23437507477543124,0.2239514496802686,0.6019439358942719,0.23960743393438458,0.2448274751602527,0.6140550814460227,0.23699143839634115,0.21757126860459464
15.0,0.0,15.0,0.0,0.0,0.0,0.0,0.0,493.9522434000392,497.4616462000413,,left,1.5999218999641016,500.1289092000807,fd13,500.1289092000807,,493.9522434000392,497.4616462000413,True,4.0,['p'],True,0.25,0.5,0.5,1.0,2.0,0.9463946303571862,0.0192737415335937,succ_gain,0.0,6.0,,,fd13,1,2022-04-07_11h27.33.193,threat_forest,2021.2.3,59.947581798236335,True,8.0,0.35,0.3714285714285714,-1.5300000000000002,-1.3982908163265306,0,0,1.0,0.4699548155319291,0.0192737415335937,0.25,0.25,0.5,0.5,-0.5,-0.5,3.5,3.5,1.0,2.0,-1.0,4.0,0,1,0,0,0.0192737415335937,0.6174260048706797,0.23621113338011107,0.1881379341681202,0.6305050761164108,0.23296842510784976,0.22317813310980328,0.5438582120858305,0.24807645723263433,0.22777198609228358,0.5833266272871196,0.24305667318495341,0.19829364627820378,0.7825883921534975,0.17014380062010115,0.11137866735946605,0.6954532022415452,0.21179804573352567,0.22256984492811688,0.4801067632897248,0.24960425913318898,0.25719918601877967,0.46662292765792973,0.24888597104187216,0.25988985824593736,0.5481899668094637,0.24767772709890282,0.17650593952606453,0.49259970529062735,0.24994523563821444,0.2588622437527618,0.5953428841567976,0.24090973444066346,0.22104265295500014
15.0,0.0,15.0,0.0,1.0,0.0,1.0,0.0,,,,left,2.1513705999823287,504.9842852000147,fd13,501.7453089000192,503.74524110008497,504.9842852000147,,False,6.0,['p'],False,0.16,0.2,0.2,2.0,2.0,0.8198746470064713,-0.0746401575431251,wait_cost,1.0,5.0,503.74524110008497,,fd13,1,2022-04-07_11h27.33.193,threat_forest,2021.2.3,59.947581798236335,False,8.0,0.35,0.3714285714285714,-1.5300000000000002,-1.3982908163265306,0,0,0.0,0.7661051273940536,-0.0746401575431251,0.16,0.16,0.2,0.2,-0.8000000000000003,-0.5600000000000003,5.44,5.44,0.0,2.0,1.0,6.0,0,1,0,0,-0.0746401575431251,0.4782368673535457,0.2495263660574129,0.2516908398852471,0.6305050761164108,0.23296842510784976,0.22317813310980328,0.5438582120858305,0.24807645723263433,0.22777198609228358,0.5898993116114537,0.24191811377178676,0.2021911274618592,0.5962459473931433,0.24073671761039622,0.2160159897640213,0.2627175569349264,0.19369704221307013,0.1957735303571727,0.4083242088327375,0.24159554931385652,0.23855123854516902,0.33662171291614623,0.22330753530954586,0.21156888828096476,0.5481899668094637,0.24767772709890282,0.17650593952606453,0.41370032497045245,0.2425523660897945,0.2488255631973356,0.46527400411071745,0.2487941052094975,0.22802775081134619
15.0,0.0,15.0,0.0,2.0,0.0,2.0,0.0,,,,left,2.963789899949916,510.0624259000178,fd13,501.7453089000192,503.74524110008497,510.0624259000178,,False,5.0,['p'],False,0.16,0.2,0.2,2.0,2.0,0.8198746470064713,0.0056887462499999,wait_cost,1.0,4.0,509.16186190000735,,fd13,1,2022-04-07_11h27.33.193,threat_forest,2021.2.3,59.947581798236335,False,8.0,0.35,0.3714285714285714,-1.5300000000000002,-1.3982908163265306,0,0,0.0,1.086468820963936,0.0056887462499999,0.16,0.16,0.2,0.2,-0.8000000000000003,-0.5600000000000003,4.44,4.44,0.0,2.0,-1.0,5.0,0,1,0,0,0.0056887462499999,0.6174260048706797,0.23621113338011107,0.1881379341681202,0.6305050761164108,0.23296842510784976,0.22317813310980328,0.5438582120858305,0.24807645723263433,0.22777198609228358,0.5898993116114537,0.24191811377178676,0.2021911274618592,0.5962459473931433,0.24073671761039622,0.2160159897640213,0.2627175569349264,0.19369704221307013,0.1957735303571727,0.4083242088327375,0.24159554931385652,0.23855123854516902,0.33662171291614623,0.22330753530954586,0.21156888828096476,0.5481899668094637,0.24767772709890282,0.17650593952606453,0.41370032497045245,0.2425523660897945,0.2488255631973356,0.5769149477679796,0.244084090809849,0.22385494965181763
15.0,0.0,15.0,0.0,3.0,0.0,3.0,0.0,,,,left,1.328775699948892,516.5454708000179,fd13,516.5454708000179,,513.0454781000735,515.0453141001053,True,4.0,['p'],True,0.25,0.5,0.5,1.0,2.0,0.9463946303571862,0.0410130625,succ_gain,0.0,6.0,515.0453141001053,,fd13,1,2022-04-07_11h27.33.193,threat_forest,2021.2.3,59.947581798236335,True,8.0,0.35,0.3714285714285714,-1.5300000000000002,-1.3982908163265306,0,0,1.0,0.2842579919348734,0.0410130625,0.25,0.25,0.5,0.5,-0.5,-0.5,3.5,3.5,1.0,2.0,-1.0,4.0,0,1,0,0,0.0410130625,0.6174260048706797,0.23621113338011107,0.1881379341681202,0.6305050761164108,0.23296842510784976,0.22317813310980328,0.5438582120858305,0.24807645723263433,0.22777198609228358,0.5833266272871196,0.24305667318495341,0.19829364627820378,0.7825883921534975,0.17014380062010115,0.11137866735946605,0.6954532022415452,0.21179804573352567,0.22256984492811688,0.4801067632897248,0.24960425913318898,0.25719918601877967,0.46662292765792973,0.24888597104187216,0.25988985824593736,0.5481899668094637,0.24767772709890282,0.17650593952606453,0.49259970529062735,0.24994523563821444,0.2588622437527618,0.6242618328002395,0.2345589969091253,0.21541626571137695
15.0,0.0,15.0,0.0,4.0,0.0,4.0,0.0,,,,left,1.0568008000263944,521.8999309000792,fd13,517.8957575000823,519.8953789001098,521.8999309000792,,False,6.0,['p'],False,0.16,0.2,0.2,2.0,2.0,0.8198746470064713,-0.140755,wait_cost,1.0,5.0,519.8953789001098,,fd13,1,2022-04-07_11h27.33.193,threat_forest,2021.2.3,59.947581798236335,False,8.0,0.35,0.3714285714285714,-1.5300000000000002,-1.3982908163265306,0,0,0.0,0.0552462312529387,-0.140755,0.0,0.16,0.2,0.2,-0.8000000000000003,-0.5600000000000003,5.44,5.44,0.0,2.0,1.0,6.0,0,0,0,0,-0.84,0.4782368673535457,0.2495263660574129,0.2516908398852471,0.25640688916915316,0.1906623963557508,0.02785333949282176,0.5438582120858305,0.24807645723263433,0.22777198609228358,0.5898993116114537,0.24191811377178676,0.2021911274618592,0.5962459473931433,0.24073671761039622,0.2160159897640213,0.2627175569349264,0.19369704221307013,0.1957735303571727,0.4083242088327375,0.24159554931385652,0.23855123854516902,0.33662171291614623,0.22330753530954586,0.21156888828096476,0.5481899668094637,0.24767772709890282,0.17650593952606453,0.2857832310302243,0.20411117589214975,0.1966371749595636,0.3754552672043974,0.23448860953287196,0.21535390655483844
15.0,0.0,15.0,0.0,5.0,0.0,5.0,0.0,,,,left,2.109389300108888,525.5457350000506,fd13,517.8957575000823,519.8953789001098,525.5457350000506,,False,5.0,['p'],False,0.16,0.2,0.2,2.0,2.0,0.8198746470064713,-0.1545,wait_cost,1.0,4.0,524.9787333999993,,fd13,1,2022-04-07_11h27.33.193,threat_forest,2021.2.3,59.947581798236335,False,8.0,0.35,0.3714285714285714,-1.5300000000000002,-1.3982908163265306,0,0,0.0,0.7463984743666583,-0.1545,0.0,0.16,0.2,0.2,-0.8000000000000003,-0.5600000000000003,4.44,4.44,0.0,2.0,-1.0,5.0,0,0,0,0,-0.84,0.6174260048706797,0.23621113338011107,0.1881379341681202,0.25640688916915316,0.1906623963557508,0.02785333949282176,0.5438582120858305,0.24807645723263433,0.22777198609228358,0.5898993116114537,0.24191811377178676,0.2021911274618592,0.5962459473931433,0.24073671761039622,0.2160159897640213,0.2627175569349264,0.19369704221307013,0.1957735303571727,0.4083242088327375,0.24159554931385652,0.23855123854516902,0.33662171291614623,0.22330753530954586,0.21156888828096476,0.5481899668094637,0.24767772709890282,0.17650593952606453,0.2857832310302243,0.20411117589214975,0.1966371749595636,0.3576096117169063,0.22972497732458985,0.21113360310868112
15.0,0.0,15.0,0.0,6.0,0.0,6.0,0.0,,,,left,1.563864800031297,532.2960430000676,fd13,517.8957575000823,519.8953789001098,532.2960430000676,,False,4.0,['p'],False,0.16,0.2,0.2,2.0,2.0,0.8198746470064713,-0.159,wait_cost,1.0,3.0,529.6787622000556,,fd13,1,2022-04-07_11h27.33.193,threat_forest,2021.2.3,59.947581798236335,False,8.0,0.35,0.3714285714285714,-1.5300000000000002,-1.3982908163265306,0,0,0.0,0.4471601933937587,-0.159,0.0,0.16,0.2,0.2,-0.8000000000000003,-0.5600000000000003,3.4399999999999995,3.4399999999999995,0.0,2.0,-1.0,4.0,0,0,0,0,-0.84,0.6174260048706797,0.23621113338011107,0.1881379341681202,0.25640688916915316,0.1906623963557508,0.02785333949282176,0.5438582120858305,0.24807645723263433,0.22777198609228358,0.5898993116114537,0.24191811377178676,0.2021911274618592,0.5962459473931433,0.24073671761039622,0.2160159897640213,0.2627175569349264,0.19369704221307013,0.1957735303571727,0.4083242088327375,0.24159554931385652,0.23855123854516902,0.33662171291614623,0.22330753530954586,0.21156888828096476,0.5481899668094637,0.24767772709890282,0.17650593952606453,0.2857832310302243,0.20411117589214975,0.1966371749595636,0.35184911112188605,0.22805131412462473,0.20965083402372975
15.0,0.0,15.0,0.0,7.0,0.0,7.0,0.0,,,,right,2.2945295000681654,539.3961143000051,fd13,539.3961143000051,,533.8791238000849,535.8789468000177,False,3.0,['p'],True,0.25,0.5,0.5,1.0,2.0,0.9463946303571862,-0.5,wait_cost,0.0,2.0,535.8789468000177,,fd13,1,2022-04-07_11h27.33.193,threat_forest,2021.2.3,59.947581798236335,False,8.0,0.35,0.3714285714285714,-1.5300000000000002,-1.3982908163265306,0,0,0.0,0.8305278116313642,-0.5,0.0,0.25,0.5,0.5,-0.5,-0.5,2.5,2.5,1.0,2.0,-1.0,3.0,0,0,0,0,-0.84,0.6174260048706797,0.23621113338011107,0.1881379341681202,0.25640688916915316,0.1906623963557508,0.02785333949282176,0.5438582120858305,0.24807645723263433,0.22777198609228358,0.5833266272871196,0.24305667318495341,0.19829364627820378,0.7825883921534975,0.17014380062010115,0.11137866735946605,0.6954532022415452,0.21179804573352567,0.22256984492811688,0.4801067632897248,0.24960425913318898,0.25719918601877967,0.46662292765792973,0.24888597104187216,0.25988985824593736,0.5481899668094637,0.24767772709890282,0.17650593952606453,0.2857832310302243,0.20411117589214975,0.1966371749595636,0.07460543131597809,0.06903946093413497,0.06877550136623747
16.0,0.0,16.0,0.0,0.0,0.0,0.0,0.0,547.4893912000116,550.9869983000681,,left,2.7360943000530824,553.6132582999999,fd13,547.4893912000116,550.9869983000681,553.6132582999999,,False,5.0,['p'],False,0.375,0.5,0.25,1.0,1.0,0.9850568223215076,0.037518611380037,wait_cost,1.0,4.0,,,fd13,1,2022-04-07_11h27.33.193,threat_forest,2021.2.3,59.947581798236335,False,9.0,0.4,0.375,-1.3025,-1.4162500000000002,1,0,0.0,1.006531465560022,0.037518611380037,0.375,0.375,0.5,0.25,-0.25,-0.125,4.875,4.875,0.0,1.0,-1.0,5.0,0,1,0,1,0.037518611380037,0.6174260048706797,0.23621113338011107,0.1881379341681202,0.6305050761164108,0.23296842510784976,0.22317813310980328,0.5438582120858305,0.24807645723263433,0.22777198609228358,0.5898993116114537,0.24191811377178676,0.2021911274618592,0.6314266085470407,0.23272704656582294,0.20414354466360612,0.6954532022415452,0.21179804573352567,0.22256984492811688,0.5406899002809227,0.24834433201512854,0.2542654981654062,0.6508529963115677,0.22724337350382218,0.2190041951606682,0.6249997008979172,0.23437507477543124,0.2239514496802686,0.6019439358942719,0.23960743393438458,0.2448274751602527,0.6196667957686407,0.23567985799046645,0.21640928399604287
16.0,0.0,16.0,0.0,1.0,0.0,1.0,0.0,,,,left,2.6897792000090703,561.7797410000348,fd13,547.4893912000116,550.9869983000681,561.7797410000348,,False,4.0,['p'],False,0.375,0.5,0.25,1.0,1.0,0.9850568223215076,0.0528715126498535,wait_cost,1.0,3.0,558.3792692000279,,fd13,1,2022-04-07_11h27.33.193,threat_forest,2021.2.3,59.947581798236335,False,9.0,0.4,0.375,-1.3025,-1.4162500000000002,1,0,0.0,0.9894591084638392,0.0528715126498535,0.375,0.375,0.5,0.25,-0.25,-0.125,3.875,3.875,0.0,1.0,-1.0,4.0,0,1,0,1,0.0528715126498535,0.6174260048706797,0.23621113338011107,0.1881379341681202,0.6305050761164108,0.23296842510784976,0.22317813310980328,0.5438582120858305,0.24807645723263433,0.22777198609228358,0.5898993116114537,0.24191811377178676,0.2021911274618592,0.6314266085470407,0.23272704656582294,0.20414354466360612,0.6954532022415452,0.21179804573352567,0.22256984492811688,0.5406899002809227,0.24834433201512854,0.2542654981654062,0.6508529963115677,0.22724337350382218,0.2190041951606682,0.6249997008979172,0.23437507477543124,0.2239514496802686,0.6019439358942719,0.23960743393438458,0.2448274751602527,0.6396850038066133,0.2304880997115465,0.21180968553878848
16.0,0.0,16.0,0.0,2.0,0.0,2.0,0.0,,,,right,1.708032099995762,567.4801208000863,fd13,547.4893912000116,550.9869983000681,567.4801208000863,,True,3.0,['p'],False,0.375,0.5,0.25,1.0,1.0,0.9850568223215076,0.0485216770605467,succ_gain,1.0,4.0,566.4960428000195,,fd13,1,2022-04-07_11h27.33.193,threat_forest,2021.2.3,59.947581798236335,True,9.0,0.4,0.375,-1.3025,-1.4162500000000002,1,0,1.0,0.5353418890983006,0.0485216770605467,0.375,0.375,0.5,0.25,-0.25,-0.125,2.875,2.875,0.0,1.0,-1.0,3.0,0,1,0,1,0.0485216770605467,0.6174260048706797,0.23621113338011107,0.1881379341681202,0.6305050761164108,0.23296842510784976,0.22317813310980328,0.5438582120858305,0.24807645723263433,0.22777198609228358,0.5898993116114537,0.24191811377178676,0.2021911274618592,0.6314266085470407,0.23272704656582294,0.20414354466360612,0.6954532022415452,0.21179804573352567,0.22256984492811688,0.5406899002809227,0.24834433201512854,0.2542654981654062,0.6508529963115677,0.22724337350382218,0.2190041951606682,0.6249997008979172,0.23437507477543124,0.2239514496802686,0.6019439358942719,0.23960743393438458,0.2448274751602527,0.6340590778900062,0.23202816363528128,0.21317409336887666
16.0,0.0,16.0,0.0,3.0,0.0,3.0,0.0,,,,right,2.009323799982667,573.2338726000162,fd13,573.2338726000162,,569.2130500000203,571.2128631001106,False,4.0,['p'],True,0.24,0.3,0.2,2.0,1.0,0.9003120349047065,-0.0391069940625,wait_cost,0.0,3.0,571.2128631001106,,fd13,1,2022-04-07_11h27.33.193,threat_forest,2021.2.3,59.947581798236335,False,9.0,0.4,0.375,-1.3025,-1.4162500000000002,0,0,0.0,0.6977982475507103,-0.0391069940625,0.24,0.24,0.3,0.2,-0.7,-0.48,3.52,3.52,1.0,1.0,1.0,4.0,0,1,0,0,-0.0391069940625,0.4782368673535457,0.2495263660574129,0.2516908398852471,0.6305050761164108,0.23296842510784976,0.22317813310980328,0.5438582120858305,0.24807645723263433,0.22777198609228358,0.5833266272871196,0.24305667318495341,0.19829364627820378,0.5962459473931433,0.24073671761039622,0.2160159897640213,0.39826935511442146,0.2396508758911643,0.26380254220657046,0.4319736488309128,0.24537241554662004,0.24734551436640217,0.45159533256413825,0.2476569881704236,0.25756815081080753,0.5481899668094637,0.24767772709890282,0.17650593952606453,0.4837414030970484,0.2497356580267473,0.2585777177613199,0.5148945314342381,0.24977815293335448,0.22889956035049502
16.0,0.0,16.0,0.0,5.0,0.0,5.0,0.0,,,,right,1.798509299987927,583.7991948000854,fd13,583.7991948000854,,581.0966778000584,583.0963247000473,False,2.0,['p'],True,0.24,0.3,0.2,2.0,1.0,0.9003120349047065,-0.0675,wait_cost,0.0,1.0,583.0963247000473,,fd13,1,2022-04-07_11h27.33.193,threat_forest,2021.2.3,59.947581798236335,False,9.0,0.4,0.375,-1.3025,-1.4162500000000002,0,0,0.0,0.5869581551092725,-0.0675,0.24,0.24,0.3,0.2,-0.7,-0.48,1.52,1.52,1.0,1.0,-1.0,2.0,0,1,0,0,-0.0675,0.6174260048706797,0.23621113338011107,0.1881379341681202,0.6305050761164108,0.23296842510784976,0.22317813310980328,0.5438582120858305,0.24807645723263433,0.22777198609228358,0.5833266272871196,0.24305667318495341,0.19829364627820378,0.5962459473931433,0.24073671761039622,0.2160159897640213,0.39826935511442146,0.2396508758911643,0.26380254220657046,0.4319736488309128,0.24537241554662004,0.24734551436640217,0.45159533256413825,0.2476569881704236,0.25756815081080753,0.5481899668094637,0.24767772709890282,0.17650593952606453,0.4837414030970484,0.2497356580267473,0.2585777177613199,0.4752213815479201,0.24938602006760618,0.2285521532434157
16.0,0.0,16.0,0.0,6.0,0.0,6.0,0.0,,,,left,1.0040105000371111,589.3820116000716,fd13,589.3820116000716,,581.0966778000584,583.0963247000473,True,1.0,['p'],True,0.24,0.3,0.2,2.0,1.0,0.9003120349047065,0.24,succ_gain,0.0,2.0,587.6296840000432,,fd13,1,2022-04-07_11h27.33.193,threat_forest,2021.2.3,59.947581798236335,True,9.0,0.4,0.375,-1.3025,-1.4162500000000002,0,0,1.0,0.0040024794191447,0.24,1.0,0.24,0.3,0.2,-0.7,-0.48,0.52,1.0,1.0,1.0,-1.0,1.0,1,1,0,0,0.625,0.6174260048706797,0.23621113338011107,0.1881379341681202,0.6305050761164108,0.23296842510784976,0.22317813310980328,0.8367328370955716,0.13661099642156732,0.04099619329206075,0.5833266272871196,0.24305667318495341,0.19829364627820378,0.5962459473931433,0.24073671761039622,0.2160159897640213,0.39826935511442146,0.2396508758911643,0.26380254220657046,0.4319736488309128,0.24537241554662004,0.24734551436640217,0.45159533256413825,0.2476569881704236,0.25756815081080753,0.5481899668094637,0.24767772709890282,0.17650593952606453,0.9327327615114765,0.06274235711465162,0.004712555530705986,0.8348691836898949,0.13786262981486336,0.12974886037111982
16.0,0.0,16.0,0.0,7.0,0.0,7.0,0.0,,,,left,1.697113799978979,594.9637363000074,fd13,590.4135290000122,592.413065000088,594.9637363000074,,False,2.0,['p'],False,0.375,0.5,0.25,1.0,1.0,0.9850568223215076,-0.625,wait_cost,1.0,1.0,592.413065000088,,fd13,1,2022-04-07_11h27.33.193,threat_forest,2021.2.3,59.947581798236335,False,9.0,0.4,0.375,-1.3025,-1.4162500000000002,1,0,0.0,0.5289290435081083,-0.625,0.0,0.375,0.5,0.25,-0.25,-0.125,1.875,1.875,0.0,1.0,1.0,2.0,0,0,0,1,-0.84,0.4782368673535457,0.2495263660574129,0.2516908398852471,0.25640688916915316,0.1906623963557508,0.02785333949282176,0.5438582120858305,0.24807645723263433,0.22777198609228358,0.5898993116114537,0.24191811377178676,0.2021911274618592,0.6314266085470407,0.23272704656582294,0.20414354466360612,0.6954532022415452,0.21179804573352567,0.22256984492811688,0.5406899002809227,0.24834433201512854,0.2542654981654062,0.6508529963115677,0.22724337350382218,0.2190041951606682,0.6249997008979172,0.23437507477543124,0.2239514496802686,0.2857832310302243,0.20411117589214975,0.1966371749595636,0.03852781202959647,0.037043419729808555,0.040428853880892034
17.0,0.0,17.0,0.0,0.0,0.0,0.0,0.0,600.1051823000889,603.6131989000132,,left,2.3100582000333816,605.4635988000082,fd13,605.4635988000082,,600.1051823000889,603.6131989000132,True,4.0,['p'],True,0.2448979591836734,0.2857142857142857,0.1428571428571428,1.0,2.0,0.8400769154957735,0.0036753268254111,unsucc_cost,0.0,2.0,,,fd13,1,2022-04-07_11h27.33.193,threat_forest,2021.2.3,59.947581798236335,True,42.0,0.3928571428571428,0.3964285714285714,-0.9566326530612244,-1.1295663265306122,0,0,1.0,0.8372727190359638,0.0036753268254111,0.2448979591836734,0.2448979591836734,0.2857142857142857,0.1428571428571428,-0.2857142857142856,-0.1632653061224489,3.836734693877551,3.836734693877551,1.0,2.0,-1.0,4.0,0,1,0,0,0.0036753268254111,0.6174260048706797,0.23621113338011107,0.1881379341681202,0.6305050761164108,0.23296842510784976,0.22317813310980328,0.5438582120858305,0.24807645723263433,0.22777198609228358,0.5833266272871196,0.24305667318495341,0.19829364627820378,0.5548136417929206,0.24699546467339742,0.2252931037040764,0.3772728118704974,0.23493803729382565,0.25682576296702936,0.5320668919105316,0.24897171444319827,0.25572633203608397,0.4589464810821779,0.24831460858446402,0.2588104807408994,0.5481899668094637,0.24767772709890282,0.17650593952606453,0.488079232536147,0.24985789530307267,0.2587436690859588,0.5741641333835774,0.24449968131946295,0.22422313887869888
17.0,0.0,17.0,0.0,1.0,0.0,1.0,0.0,,,,right,0.8948889999883249,611.0636369000422,fd13,607.7968786000274,609.7967800000915,611.0636369000422,,True,2.0,['p'],False,0.375,0.5,0.25,1.0,2.0,0.9850568223215076,0.0419793571159062,succ_gain,1.0,4.0,609.7967800000915,,fd13,1,2022-04-07_11h27.33.193,threat_forest,2021.2.3,59.947581798236335,True,42.0,0.3928571428571428,0.3964285714285714,-0.9566326530612244,-1.1295663265306122,1,0,1.0,-0.1110555907581039,0.0419793571159062,0.375,0.375,0.5,0.25,0.25,0.25,2.25,2.25,0.0,2.0,-1.0,2.0,0,1,0,1,0.0419793571159062,0.6174260048706797,0.23621113338011107,0.1881379341681202,0.6305050761164108,0.23296842510784976,0.22317813310980328,0.5438582120858305,0.24807645723263433,0.22777198609228358,0.5898993116114537,0.24191811377178676,0.2021911274618592,0.6314266085470407,0.23272704656582294,0.20414354466360612,0.6954532022415452,0.21179804573352567,0.22256984492811688,0.6566928680496963,0.22544734510236042,0.2009508171636616,0.6508529963115677,0.22724337350382218,0.2190041951606682,0.6249997008979172,0.23437507477543124,0.2239514496802686,0.6019439358942719,0.23960743393438458,0.2448274751602527,0.6255285652893239,0.23424257929640396,0.21513593795243052
17.0,0.0,17.0,0.0,2.0,0.0,2.0,0.0,,,,right,1.208456400083378,617.5139158000238,fd13,617.5139158000238,,611.9803053000942,613.9802517000353,False,4.0,['p'],True,0.2448979591836734,0.2857142857142857,0.1428571428571428,1.0,2.0,0.8400769154957735,-0.0143430278316863,wait_cost,0.0,3.0,613.9802517000353,,fd13,1,2022-04-07_11h27.33.193,threat_forest,2021.2.3,59.947581798236335,False,42.0,0.3928571428571428,0.3964285714285714,-0.9566326530612244,-1.1295663265306122,0,0,0.0,0.1893438427972023,-0.0143430278316863,0.2448979591836734,0.2448979591836734,0.2857142857142857,0.1428571428571428,-0.2857142857142856,-0.1632653061224489,3.836734693877551,3.836734693877551,1.0,2.0,1.0,4.0,0,1,0,0,-0.0143430278316863,0.4782368673535457,0.2495263660574129,0.2516908398852471,0.6305050761164108,0.23296842510784976,0.22317813310980328,0.5438582120858305,0.24807645723263433,0.22777198609228358,0.5833266272871196,0.24305667318495341,0.19829364627820378,0.5548136417929206,0.24699546467339742,0.2252931037040764,0.3772728118704974,0.23493803729382565,0.25682576296702936,0.5320668919105316,0.24897171444319827,0.25572633203608397,0.4589464810821779,0.24831460858446402,0.2588104807408994,0.5481899668094637,0.24767772709890282,0.17650593952606453,0.488079232536147,0.24985789530307267,0.2587436690859588,0.5493615383070863,0.24756343853595808,0.226937451103829
17.0,0.0,17.0,0.0,3.0,0.0,3.0,0.0,,,,right,0.8399900000076741,621.5138108000392,fd13,618.747111500008,620.7468926000874,621.5138108000392,,True,3.0,['p'],False,0.375,0.5,0.25,1.0,2.0,0.9850568223215076,0.0863342129519169,unsucc_cost,1.0,1.0,620.7468926000874,,fd13,1,2022-04-07_11h27.33.193,threat_forest,2021.2.3,59.947581798236335,True,42.0,0.3928571428571428,0.3964285714285714,-0.9566326530612244,-1.1295663265306122,1,0,1.0,-0.1743652919684088,0.0863342129519169,0.375,0.375,0.5,0.25,0.25,0.25,3.25,3.25,0.0,2.0,-1.0,3.0,0,1,0,1,0.0863342129519169,0.6174260048706797,0.23621113338011107,0.1881379341681202,0.6305050761164108,0.23296842510784976,0.22317813310980328,0.5438582120858305,0.24807645723263433,0.22777198609228358,0.5898993116114537,0.24191811377178676,0.2021911274618592,0.6314266085470407,0.23272704656582294,0.20414354466360612,0.6954532022415452,0.21179804573352567,0.22256984492811688,0.6566928680496963,0.22544734510236042,0.2009508171636616,0.6508529963115677,0.22724337350382218,0.2190041951606682,0.6249997008979172,0.23437507477543124,0.2239514496802686,0.6019439358942719,0.23960743393438458,0.2448274751602527,0.6816015438834664,0.21702087925914149,0.19987850479258606
17.0,0.0,17.0,0.0,4.0,0.0,4.0,0.0,,,,right,1.1590540999313816,627.7640845000278,fd13,618.747111500008,620.7468926000874,627.7640845000278,,True,1.0,['p'],False,0.375,0.5,0.25,1.0,2.0,0.9850568223215076,0.1736050327337567,figh_cost,1.0,0.0,624.3802683000686,,fd13,1,2022-04-07_11h27.33.193,threat_forest,2021.2.3,59.947581798236335,True,42.0,0.3928571428571428,0.3964285714285714,-0.9566326530612244,-1.1295663265306122,1,0,1.0,0.1476042413798576,0.1736050327337567,1.0,0.375,0.5,0.25,0.25,0.25,1.25,1.25,0.0,2.0,-1.0,1.0,1,1,0,1,0.625,0.6174260048706797,0.23621113338011107,0.1881379341681202,0.6305050761164108,0.23296842510784976,0.22317813310980328,0.8367328370955716,0.13661099642156732,0.04099619329206075,0.5898993116114537,0.24191811377178676,0.2021911274618592,0.6314266085470407,0.23272704656582294,0.20414354466360612,0.6954532022415452,0.21179804573352567,0.22256984492811688,0.6566928680496963,0.22544734510236042,0.2009508171636616,0.6508529963115677,0.22724337350382218,0.2190041951606682,0.6249997008979172,0.23437507477543124,0.2239514496802686,0.9327327615114765,0.06274235711465162,0.004712555530705986,0.7771639055229975,0.17318016947523887,0.16103816395743353
0.0,0.0,0.0,0.0,0.0,0.0,0.0,0.0,11.366884699906224,14.87144009990152,,right,1.2103929999284446,17.20954479998909,fd13,11.366884699906224,14.87144009990152,17.20954479998909,,True,5.0,['r'],False,0.24,0.3,0.2,2.0,2.0,0.9003120349047065,-0.0006443703968158,unsucc_cost,1.0,3.0,,,fd13,2,2022-04-07_11h39.57.230,threat_forest,2021.2.3,60.01489571272593,True,55.0,0.2928571428571428,0.3428571428571428,-1.0485714285714285,-1.0026020408163263,0,0,1.0,0.1909451002040075,-0.0006443703968158,0.24,0.24,0.3,0.2,-0.3999999999999999,-0.24,4.76,4.76,0.0,2.0,-1.0,5.0,0,1,0,0,-0.0006443703968158,0.6174260048706797,0.23621113338011107,0.1881379341681202,0.6305050761164108,0.23296842510784976,0.22317813310980328,0.5438582120858305,0.24807645723263433,0.22777198609228358,0.5898993116114537,0.24191811377178676,0.2021911274618592,0.5962459473931433,0.24073671761039622,0.2160159897640213,0.39826935511442146,0.2396508758911643,0.26380254220657046,0.5043696763583095,0.24998090592852368,0.2580761924048208,0.45159533256413825,0.2476569881704236,0.25756815081080753,0.5481899668094637,0.24767772709890282,0.17650593952606453,0.4837414030970484,0.2497356580267473,0.2585777177613199,0.5682470850464205,0.2453423353826666,0.2249696817878416
