miniblock.thisRepN,miniblock.thisTrialN,miniblock.thisN,miniblock.thisIndex,day.thisRepN,day.thisTrialN,day.thisN,day.thisIndex,forest.started,fixation_forest.started,fixation_forest.stopped,key_resp.keys,key_resp.rt,key_resp.started,Subject_ID,weather_left.started,weather_left.stopped,weather_right.started,weather_right.stopped,foraging T/F,in_LP,p/r heuristic,good_weather.T/F,p_succ_correct,p_succ_uncorrected,r_threat,n_oponents,gain_if_succ,weather_entropy,OP_value_difference,action_outcome,forest_side_L=0_R=1,out_LP,fixation_day.started,fixation_day.stopped,participant,session,date,expName,psychopyVersion,frameRate,foraging T/F NaNs,fora_NR,forest_mean_p,mvt_cutoff_p,forest_mean_ev,mvt_cutoff_ev,mvt_policy_eg,mvt_policy_p,fora_response,logRT,optimal policy,$\mathit{p}$ success cor + cap,$\mathit{p}$ success cor,$\mathit{p}$ success,risk threat encounter,expected gain naive,expected gain correct,expected state no bounds,expected state with bounds,weather type,gain magnitude,win stay lose shift,continuous energy state,binary energy state,$\mathit{p}$ success based MVT,expected gain based MVT,weather type fit,weather type_uncertain,weather type_uncertain_fit,risk threat encounter fit,risk threat encounter_uncertain,risk threat encounter_uncertain_fit,win stay lose shift fit,win stay lose shift_uncertain,win stay lose shift_uncertain_fit,$\mathit{p}$ success fit,$\mathit{p}$ success_uncertain,$\mathit{p}$ success_uncertain_fit,expected gain naive fit,expected gain naive_uncertain,expected gain naive_uncertain_fit,expected gain based MVT fit,expected gain based MVT_uncertain,expected gain based MVT_uncertain_fit,$\mathit{p}$ success cor fit,$\mathit{p}$ success cor_uncertain,$\mathit{p}$ success cor_uncertain_fit,binary energy state fit,binary energy state_uncertain,binary energy state_uncertain_fit,$\mathit{p}$ success cor + cap fit,$\mathit{p}$ success cor + cap_uncertain,$\mathit{p}$ success cor + cap_uncertain_fit,optimal policy fit,optimal policy_uncertain,optimal policy_uncertain_fit
0.0,0.0,0.0,0.0,0.0,0.0,0.0,0.0,36.38254209999286,39.88762389999465,None,right,0.8289640000002692,42.07951640000101,rn14,36.38254209999286,39.88762389999465,42.07951640000101,None,True,4.0,['r'],False,0.345679012345679,0.4444444444444444,0.2222222222222222,2.0,2.0,0.9685033186841367,0.0005482667043862,succ_gain,1.0,6.0,,,rn14,1,2023-03-30_11h23.48.840,threat_forest,2021.2.3,60.09442035514424,True,52.0,0.4365079365079364,0.4365079365079364,-0.5626102292768962,-0.5626102292768962,0,0,1,-0.1875785506036793,0.0005482667043862,0.345679012345679,0.345679012345679,0.4444444444444444,0.7777777777777778,-0.888888888888889,-0.8395061728395062,3.1604938271604937,3.1604938271604937,0.0,2.0,,4.0,0,0,0,0.604277725972614,0.23912615586598046,-0.13458235189442247,0.5553032112034705,0.24694155483058428,-0.06245339415851259,,,,0.5636405298641848,0.2459498829586058,-0.0632353046903198,0.5687827617794036,0.24526893168199781,-0.06558369282813192,0.4764387269239056,0.24944486641103364,0.03412879469032637,0.5608920054182353,0.24629216367614562,-0.04343888565496945,0.5261502339613333,0.24931616526376751,-0.0863323420891733,0.7033998914863487,0.20862848414334156,0.04822560525944236,0.605196833358919,0.2389336262512558,0.0904718656201765
0.0,0.0,0.0,0.0,1.0,0.0,1.0,0.0,,,,right,0.8139475000061793,47.12651449999248,rn14,47.12651449999248,None,42.92695880000247,44.94129200000316,False,6.0,['r'],True,0.4285714285714285,0.4285714285714285,0.0,0.0,2.0,0.6216097450797565,-0.0377659661652755,wait_cost,0.0,5.0,44.94129200000316,None,rn14,1,2023-03-30_11h23.48.840,threat_forest,2021.2.3,60.09442035514424,False,52.0,0.4365079365079364,0.4365079365079364,-0.5626102292768962,-0.5626102292768962,1,0,0,-0.205859411366478,-0.0377659661652755,0.4285714285714285,0.4285714285714285,0.4285714285714285,1.0,-0.285714285714286,-0.285714285714286,5.7142857142857135,5.7142857142857135,1.0,2.0,1.0,6.0,0,0,1,0.5209537543323275,0.24956094017938052,-0.03842372806338634,0.6226643697389012,0.23495345239655815,-0.14824505333887528,0.2658186319306174,0.19515908684915237,-0.08114571970098605,0.5607131729478135,0.24631391063060887,-0.053614869497045525,0.6143022949722752,0.23693498536407104,-0.1828145810187598,0.6467545017727171,0.22846311620944162,-0.20318237765325353,0.6068893856817866,0.23857465922857027,-0.1176909005322937,0.5261502339613333,0.24931616526376751,-0.0863323420891733,0.8370084511002641,0.13642530388700091,-0.10248433577753746,0.4244947871004286,0.2442989628249904,0.10097677812437972
0.0,0.0,0.0,0.0,2.0,0.0,2.0,0.0,,,,right,1.4846581000019796,50.54011190000165,rn14,47.972159999990254,49.98648399999365,50.54011190000165,None,True,5.0,['r'],False,0.345679012345679,0.4444444444444444,0.2222222222222222,2.0,2.0,0.9685033186841367,-0.0045127077489298,figh_cost,1.0,2.0,49.98648399999365,None,rn14,1,2023-03-30_11h23.48.840,threat_forest,2021.2.3,60.09442035514424,True,52.0,0.4365079365079364,0.4365079365079364,-0.5626102292768962,-0.5626102292768962,0,0,1,0.3951845100574552,-0.0045127077489298,0.345679012345679,0.345679012345679,0.4444444444444444,0.7777777777777778,-0.888888888888889,-0.8395061728395062,4.160493827160494,4.160493827160494,0.0,2.0,-1.0,5.0,0,0,0,0.604277725972614,0.23912615586598046,-0.13458235189442247,0.5553032112034705,0.24694155483058428,-0.06245339415851259,0.6496315388832757,0.22761040257142276,-0.0911882189192003,0.5636405298641848,0.2459498829586058,-0.0632353046903198,0.5687827617794036,0.24526893168199781,-0.06558369282813192,0.4764387269239056,0.24944486641103364,0.03412879469032637,0.5608920054182353,0.24629216367614562,-0.04343888565496945,0.5261502339613333,0.24931616526376751,-0.0863323420891733,0.7033998914863487,0.20862848414334156,0.04822560525944236,0.581890688746429,0.24329391509663553,0.09900897269338377
0.0,0.0,0.0,0.0,3.0,0.0,3.0,0.0,,,,left,1.1660002999997232,55.28232329999446,rn14,47.972159999990254,49.98648399999365,55.28232329999446,None,False,2.0,['r'],False,0.345679012345679,0.4444444444444444,0.2222222222222222,2.0,2.0,0.9685033186841367,-0.0056321942339038,wait_cost,1.0,1.0,54.06602169999678,None,rn14,1,2023-03-30_11h23.48.840,threat_forest,2021.2.3,60.09442035514424,False,52.0,0.4365079365079364,0.4365079365079364,-0.5626102292768962,-0.5626102292768962,0,0,0,0.15357934521791,-0.0056321942339038,0.345679012345679,0.345679012345679,0.4444444444444444,0.7777777777777778,-0.888888888888889,-0.8395061728395062,1.1604938271604937,1.1604938271604937,0.0,2.0,-1.0,2.0,0,0,0,0.604277725972614,0.23912615586598046,-0.13458235189442247,0.5553032112034705,0.24694155483058428,-0.06245339415851259,0.6496315388832757,0.22761040257142276,-0.0911882189192003,0.5636405298641848,0.2459498829586058,-0.0632353046903198,0.5687827617794036,0.24526893168199781,-0.06558369282813192,0.4764387269239056,0.24944486641103364,0.03412879469032637,0.5608920054182353,0.24629216367614562,-0.04343888565496945,0.5261502339613333,0.24931616526376751,-0.0863323420891733,0.7033998914863487,0.20862848414334156,0.04822560525944236,0.5766816516642672,0.24411992429804,0.10062623458724124
0.0,0.0,0.0,0.0,4.0,0.0,4.0,0.0,,,,left,0.5951901000080397,61.00991609999619,rn14,61.00991609999619,None,56.48085100000026,58.49525779999385,True,1.0,['r'],True,0.4285714285714285,0.4285714285714285,0.0,0.0,2.0,0.6216097450797565,0.2491588248076028,unsucc_cost,0.0,0.0,58.49525779999385,None,rn14,1,2023-03-30_11h23.48.840,threat_forest,2021.2.3,60.09442035514424,True,52.0,0.4365079365079364,0.4365079365079364,-0.5626102292768962,-0.5626102292768962,1,0,1,-0.5188744286525941,0.2491588248076028,1.0,0.4285714285714285,0.4285714285714285,1.0,-0.285714285714286,-0.285714285714286,0.714285714285714,0.714285714285714,1.0,2.0,-1.0,1.0,1,0,1,0.5209537543323275,0.24956094017938052,-0.03842372806338634,0.6226643697389012,0.23495345239655815,-0.14824505333887528,0.6496315388832757,0.22761040257142276,-0.0911882189192003,0.5607131729478135,0.24631391063060887,-0.053614869497045525,0.6143022949722752,0.23693498536407104,-0.1828145810187598,0.6467545017727171,0.22846311620944162,-0.20318237765325353,0.6068893856817866,0.23857465922857027,-0.1176909005322937,0.9999999469966782,5.3003318989656325e-08,-0.12157417971934999,0.9990538002083198,0.0009453044976344699,-0.3852721942509656,0.9943686940819555,0.005599594311701963,-0.3663780553665726
1.0,0.0,1.0,0.0,0.0,0.0,0.0,0.0,67.09967219999817,70.60064279999642,None,right,1.014569000006304,74.33093440000084,rn14,67.09967219999817,70.60064279999642,74.33093440000084,None,True,4.0,['p'],False,0.2448979591836734,0.2857142857142857,0.1428571428571428,1.0,1.0,0.8400769154957735,0.0039960293469888,figh_cost,1.0,1.0,,,rn14,1,2023-03-30_11h23.48.840,threat_forest,2021.2.3,60.09442035514424,True,13.0,0.4761904761904761,0.4563492063492063,-1.2040816326530612,-0.8833459309649787,0,0,1,0.0144638917770135,0.0039960293469888,0.2448979591836734,0.2448979591836734,0.2857142857142857,0.8571428571428572,-1.5714285714285712,-1.4081632653061225,2.591836734693877,2.591836734693877,0.0,1.0,-1.0,4.0,0,0,0,0.604277725972614,0.23912615586598046,-0.13458235189442247,0.5797325378313214,0.2436427224109769,-0.08606115929011571,0.6496315388832757,0.22761040257142276,-0.0911882189192003,0.534200636672492,0.24883031645119622,0.012888094367559333,0.5158774479754841,0.2497479066457858,-0.0025794217232189,0.4764387269239056,0.24944486641103364,0.03412879469032637,0.5036052585718783,0.24998700211062994,-0.007889933235145197,0.5261502339613333,0.24931616526376751,-0.0863323420891733,0.48106293447030607,0.24964138754912402,0.13383197650370654,0.6208112229875006,0.2354046484002644,0.0835624009399148
1.0,0.0,1.0,0.0,1.0,0.0,1.0,0.0,,,,right,1.3871768999961205,79.74244950000138,rn14,67.09967219999817,70.60064279999642,79.74244950000138,None,True,1.0,['p'],False,0.2448979591836734,0.2857142857142857,0.1428571428571428,1.0,1.0,0.8400769154957735,0.0206995466331703,unsucc_cost,1.0,0.0,77.37761789999786,None,rn14,1,2023-03-30_11h23.48.840,threat_forest,2021.2.3,60.09442035514424,True,13.0,0.4761904761904761,0.4563492063492063,-1.2040816326530612,-0.8833459309649787,0,0,1,0.3272706746535584,0.0206995466331703,1.0,0.2448979591836734,0.2857142857142857,0.8571428571428572,-1.5714285714285712,-1.4081632653061225,-0.4081632653061224,0.0,0.0,1.0,-1.0,1.0,1,0,0,0.604277725972614,0.23912615586598046,-0.13458235189442247,0.5797325378313214,0.2436427224109769,-0.08606115929011571,0.6496315388832757,0.22761040257142276,-0.0911882189192003,0.534200636672492,0.24883031645119622,0.012888094367559333,0.5158774479754841,0.2497479066457858,-0.0025794217232189,0.4764387269239056,0.24944486641103364,0.03412879469032637,0.5036052585718783,0.24998700211062994,-0.007889933235145197,0.9999999469966782,5.3003318989656325e-08,-0.12157417971934999,0.9990538002083198,0.0009453044976344699,-0.3852721942509656,0.6925152977479403,0.21293786013302193,0.039574173593058426
2.0,0.0,2.0,0.0,0.0,0.0,0.0,0.0,84.71147690000362,88.21745899999223,None,left,0.7025846000033198,91.49852919999104,rn14,91.49852919999104,None,84.71147690000362,88.21745899999223,True,5.0,['r'],True,0.4,0.4,0.0,0.0,1.0,0.6126016192893442,0.0454165613168723,unsucc_cost,0.0,3.0,,,rn14,1,2023-03-30_11h23.48.840,threat_forest,2021.2.3,60.09442035514424,True,7.0,0.45,0.4630952380952381,-1.0666666666666669,-1.135374149659864,1,0,1,-0.3529894579740024,0.0454165613168723,0.4,0.4,0.4,1.0,-0.7999999999999999,-0.7999999999999999,4.2,4.2,1.0,1.0,-1.0,5.0,0,0,1,0.5209537543323275,0.24956094017938052,-0.03842372806338634,0.6226643697389012,0.23495345239655815,-0.14824505333887528,0.6496315388832757,0.22761040257142276,-0.0911882189192003,0.5554334027939205,0.24692713785468698,-0.03740864886680573,0.5755843241671535,0.24428700994019467,-0.07939606376669461,0.6467545017727171,0.22846311620944162,-0.20318237765325353,0.5912047448794636,0.24168169451147198,-0.08779734729658806,0.5261502339613333,0.24931616526376751,-0.0863323420891733,0.7973538329451549,0.16158069803282488,-0.049977396955459885,0.783098458843258,0.16985526260057215,-0.044778207904820844
2.0,0.0,2.0,0.0,1.0,0.0,1.0,0.0,,,,right,1.0535966000024928,97.96007699999608,rn14,92.23080799999298,94.24517449999985,97.96007699999608,None,True,3.0,['r'],False,0.3333333333333333,0.5,0.3333333333333333,2.0,1.0,1.0,0.0216859945130315,figh_cost,1.0,0.0,94.24517449999983,None,rn14,1,2023-03-30_11h23.48.840,threat_forest,2021.2.3,60.09442035514424,True,7.0,0.45,0.4630952380952381,-1.0666666666666669,-1.135374149659864,0,0,1,0.0522096444129619,0.0216859945130315,0.3333333333333333,0.3333333333333333,0.5,0.6666666666666667,-1.5,-1.3333333333333337,1.6666666666666663,1.6666666666666663,0.0,1.0,-1.0,3.0,0,0,0,0.604277725972614,0.23912615586598046,-0.13458235189442247,0.5206747373135173,0.2495725552370171,-0.04362490220874249,0.6496315388832757,0.22761040257142276,-0.0911882189192003,0.5738501238249977,0.2445461592110325,-0.10033257608312152,0.5214515848935186,0.24953982950555614,-0.005506374577333162,0.4764387269239056,0.24944486641103364,0.03412879469032637,0.5539303099665833,0.24709152166690826,-0.035748065153911934,0.5261502339613333,0.24931616526376751,-0.0863323420891733,0.6788459747644872,0.2180141173105404,0.06781626894214132,0.6965111140718736,0.2113833820462311,0.03653062617212327
3.0,0.0,3.0,0.0,0.0,0.0,0.0,0.0,103.39702289999695,106.90002619998997,None,right,0.9687339999945834,108.2495357000007,rn14,103.39702289999695,106.90002619998995,108.2495357000007,None,True,5.0,['p'],False,0.375,0.5,0.25,1.0,2.0,0.9850568223215076,0.0256486737394332,succ_gain,1.0,6.0,,,rn14,1,2023-03-30_11h23.48.840,threat_forest,2021.2.3,60.09442035514424,True,45.0,0.35,0.4,-0.975,-1.0208333333333337,1,0,1,-0.0317652145855967,0.0256486737394332,0.375,0.375,0.5,0.75,-0.75,-0.75,4.25,4.25,0.0,2.0,-1.0,5.0,0,0,1,0.604277725972614,0.23912615586598046,-0.13458235189442247,0.5466830727871854,0.2478206907151463,-0.056161945899987575,0.6496315388832757,0.22761040257142276,-0.0911882189192003,0.5738501238249977,0.2445461592110325,-0.10033257608312152,0.5793978314427898,0.24369598436218234,-0.08770982663611981,0.6467545017727171,0.22846311620944162,-0.20318237765325353,0.5773255018579758,0.2440207667624121,-0.06529255591541672,0.5261502339613333,0.24931616526376751,-0.0863323420891733,0.7570963607005892,0.18390146131451257,-0.0033871926716517176,0.7122621611801251,0.20494477493114263,0.02392433326515936
3.0,0.0,3.0,0.0,1.0,0.0,1.0,0.0,,,,right,1.2536743999953617,114.6764916999964,rn14,103.39702289999695,106.90002619998995,114.6764916999964,None,True,6.0,['p'],False,0.375,0.5,0.25,1.0,2.0,0.9850568223215076,-0.0734960487365723,succ_gain,1.0,6.0,111.26263630000176,None,rn14,1,2023-03-30_11h23.48.840,threat_forest,2021.2.3,60.09442035514424,True,45.0,0.35,0.4,-0.975,-1.0208333333333337,1,0,1,0.2260787593695525,-0.0734960487365723,0.375,0.375,0.5,0.75,-0.75,-0.75,5.25,5.25,0.0,2.0,1.0,6.0,0,0,1,0.604277725972614,0.23912615586598046,-0.13458235189442247,0.5466830727871854,0.2478206907151463,-0.056161945899987575,0.2658186319306174,0.19515908684915237,-0.08114571970098605,0.5738501238249977,0.2445461592110325,-0.10033257608312152,0.5793978314427898,0.24369598436218234,-0.08770982663611981,0.6467545017727171,0.22846311620944162,-0.20318237765325353,0.5773255018579758,0.2440207667624121,-0.06529255591541672,0.5261502339613333,0.24931616526376751,-0.0863323420891733,0.7570963607005892,0.18390146131451257,-0.0033871926716517176,0.27159887879462186,0.19783292783212617,0.009999888732793893
3.0,0.0,3.0,0.0,2.0,0.0,2.0,0.0,,,,right,0.8730901000089943,119.85485839999455,rn14,103.39702289999695,106.90002619998995,119.85485839999455,None,True,6.0,['p'],False,0.375,0.5,0.25,1.0,2.0,0.9850568223215076,0.0593289184570313,unsucc_cost,1.0,4.0,117.97300959999848,None,rn14,1,2023-03-30_11h23.48.840,threat_forest,2021.2.3,60.09442035514424,True,45.0,0.35,0.4,-0.975,-1.0208333333333337,1,0,1,-0.1357165211267009,0.0593289184570313,0.375,0.375,0.5,0.75,-0.75,-0.75,5.25,5.25,0.0,2.0,-1.0,6.0,0,0,1,0.604277725972614,0.23912615586598046,-0.13458235189442247,0.5466830727871854,0.2478206907151463,-0.056161945899987575,0.6496315388832757,0.22761040257142276,-0.0911882189192003,0.5738501238249977,0.2445461592110325,-0.10033257608312152,0.5793978314427898,0.24369598436218234,-0.08770982663611981,0.6467545017727171,0.22846311620944162,-0.20318237765325353,0.5773255018579758,0.2440207667624121,-0.06529255591541672,0.5261502339613333,0.24931616526376751,-0.0863323420891733,0.7570963607005892,0.18390146131451257,-0.0033871926716517176,0.8248323686627183,0.1444839322689679,-0.09445330313621336
3.0,0.0,3.0,0.0,3.0,0.0,3.0,0.0,,,,right,0.9129822999966564,125.3167614999984,rn14,103.39702289999695,106.90002619998995,125.3167614999984,None,True,4.0,['p'],False,0.375,0.5,0.25,1.0,2.0,0.9850568223215076,0.07561669921875,succ_gain,1.0,6.0,122.76885619999666,None,rn14,1,2023-03-30_11h23.48.840,threat_forest,2021.2.3,60.09442035514424,True,45.0,0.35,0.4,-0.975,-1.0208333333333337,1,0,1,-0.0910387852162131,0.07561669921875,0.375,0.375,0.5,0.75,-0.75,-0.75,3.25,3.25,0.0,2.0,-1.0,4.0,0,0,1,0.604277725972614,0.23912615586598046,-0.13458235189442247,0.5466830727871854,0.2478206907151463,-0.056161945899987575,0.6496315388832757,0.22761040257142276,-0.0911882189192003,0.5738501238249977,0.2445461592110325,-0.10033257608312152,0.5793978314427898,0.24369598436218234,-0.08770982663611981,0.6467545017727171,0.22846311620944162,-0.20318237765325353,0.5773255018579758,0.2440207667624121,-0.06529255591541672,0.5261502339613333,0.24931616526376751,-0.0863323420891733,0.7570963607005892,0.18390146131451257,-0.0033871926716517176,0.8653448963748185,0.11652310669287325,-0.14919842903568886
3.0,0.0,3.0,0.0,4.0,0.0,4.0,0.0,,,,right,1.9519851000077324,128.85013269999763,rn14,128.85013269999763,None,126.24895090000064,128.2634235000005,False,6.0,['p'],True,0.2,0.2,0.0,0.0,2.0,0.4554859150035951,0.0,wait_cost,0.0,5.0,128.2634235000005,None,rn14,1,2023-03-30_11h23.48.840,threat_forest,2021.2.3,60.09442035514424,False,45.0,0.35,0.4,-0.975,-1.0208333333333337,0,0,0,0.6688468547690077,0.0,0.0,0.2,0.2,1.0,-1.2000000000000002,-1.2000000000000002,4.8,4.8,1.0,2.0,1.0,6.0,0,0,0,0.5209537543323275,0.24956094017938052,-0.03842372806338634,0.6226643697389012,0.23495345239655815,-0.14824505333887528,0.2658186319306174,0.19515908684915237,-0.08114571970098605,0.5181900296436696,0.24966912282156242,0.03505586606856603,0.5447886727663687,0.24799397479182714,-0.027251405585548394,0.4764387269239056,0.24944486641103364,0.03412879469032637,0.47796307065847654,0.24951437374519675,-0.012437207377969273,0.5261502339613333,0.24931616526376751,-0.0863323420891733,0.08640475312294084,0.0789389717607045,-0.22247575020592822,0.6026929922442639,0.23945414934391962,0.09149100942778382
3.0,0.0,3.0,0.0,5.0,0.0,5.0,0.0,,,,left,1.0643972999969264,134.09262349999335,rn14,134.09262349999335,None,126.24895090000064,128.2634235000005,True,5.0,['p'],True,0.2,0.2,0.0,0.0,2.0,0.4554859150035951,0.0,unsucc_cost,0.0,3.0,132.84240839999984,None,rn14,1,2023-03-30_11h23.48.840,threat_forest,2021.2.3,60.09442035514424,True,45.0,0.35,0.4,-0.975,-1.0208333333333337,0,0,1,0.0624087234749314,0.0,0.0,0.2,0.2,1.0,-1.2000000000000002,-1.2000000000000002,3.8,3.8,1.0,2.0,-1.0,5.0,0,0,0,0.5209537543323275,0.24956094017938052,-0.03842372806338634,0.6226643697389012,0.23495345239655815,-0.14824505333887528,0.6496315388832757,0.22761040257142276,-0.0911882189192003,0.5181900296436696,0.24966912282156242,0.03505586606856603,0.5447886727663687,0.24799397479182714,-0.027251405585548394,0.4764387269239056,0.24944486641103364,0.03412879469032637,0.47796307065847654,0.24951437374519675,-0.012437207377969273,0.5261502339613333,0.24931616526376751,-0.0863323420891733,0.08640475312294084,0.0789389717607045,-0.22247575020592822,0.6026929922442639,0.23945414934391962,0.09149100942778382
3.0,0.0,3.0,0.0,6.0,0.0,6.0,0.0,,,,right,1.0296572000079325,140.18604299999424,rn14,140.18604299999424,None,126.24895090000064,128.2634235000005,False,3.0,['p'],True,0.2,0.2,0.0,0.0,2.0,0.4554859150035951,-0.5700000000000001,wait_cost,0.0,2.0,137.1883001999959,None,rn14,1,2023-03-30_11h23.48.840,threat_forest,2021.2.3,60.09442035514424,False,45.0,0.35,0.4,-0.975,-1.0208333333333337,0,0,0,0.0292259313198866,-0.5700000000000001,0.0,0.2,0.2,1.0,-1.2000000000000002,-1.2000000000000002,1.7999999999999998,1.7999999999999998,1.0,2.0,-1.0,3.0,0,0,0,0.5209537543323275,0.24956094017938052,-0.03842372806338634,0.6226643697389012,0.23495345239655815,-0.14824505333887528,0.6496315388832757,0.22761040257142276,-0.0911882189192003,0.5181900296436696,0.24966912282156242,0.03505586606856603,0.5447886727663687,0.24799397479182714,-0.027251405585548394,0.4764387269239056,0.24944486641103364,0.03412879469032637,0.47796307065847654,0.24951437374519675,-0.012437207377969273,0.5261502339613333,0.24931616526376751,-0.0863323420891733,0.08640475312294084,0.0789389717607045,-0.22247575020592822,2.848701597427285e-05,2.8486204464193743e-05,-0.37728585255948077
3.0,0.0,3.0,0.0,7.0,0.0,7.0,0.0,,,,left,1.870057899999665,145.91390390000015,rn14,141.23506759999145,143.24934880000365,145.91390390000015,None,False,2.0,['p'],False,0.375,0.5,0.25,1.0,2.0,0.9850568223215076,-0.625,wait_cost,1.0,1.0,143.24934880000365,None,rn14,1,2023-03-30_11h23.48.840,threat_forest,2021.2.3,60.09442035514424,False,45.0,0.35,0.4,-0.975,-1.0208333333333337,1,0,0,0.6259693929538307,-0.625,0.0,0.375,0.5,0.75,-0.75,-0.75,1.25,1.25,0.0,2.0,-1.0,2.0,0,0,1,0.604277725972614,0.23912615586598046,-0.13458235189442247,0.5466830727871854,0.2478206907151463,-0.056161945899987575,0.6496315388832757,0.22761040257142276,-0.0911882189192003,0.5738501238249977,0.2445461592110325,-0.10033257608312152,0.5793978314427898,0.24369598436218234,-0.08770982663611981,0.6467545017727171,0.22846311620944162,-0.20318237765325353,0.5773255018579758,0.2440207667624121,-0.06529255591541672,0.5261502339613333,0.24931616526376751,-0.0863323420891733,0.08640475312294084,0.0789389717607045,-0.22247575020592822,9.96798760649339e-06,9.967888245716472e-06,-0.37732210998507315
4.0,0.0,4.0,0.0,0.0,0.0,0.0,0.0,152.06720560000394,155.57112389999384,None,left,1.64138400000229,158.47217239999736,rn14,158.47217239999736,None,152.06720560000394,155.57112389999384,True,4.0,['p'],True,0.1728395061728395,0.2222222222222222,0.2222222222222222,2.0,2.0,0.8571721972794328,-0.0108631914718901,figh_cost,0.0,1.0,,,rn14,1,2023-03-30_11h23.48.840,threat_forest,2021.2.3,60.09442035514424,True,59.0,0.3611111111111111,0.3555555555555555,-1.1404320987654322,-1.0577160493827162,0,0,1,0.4955397883910709,-0.0108631914718901,0.1728395061728395,0.1728395061728395,0.2222222222222222,0.7777777777777778,-1.7777777777777777,-1.5308641975308643,2.469135802469136,2.469135802469136,1.0,2.0,-1.0,4.0,0,0,0,0.5209537543323275,0.24956094017938052,-0.03842372806338634,0.5553032112034705,0.24694155483058428,-0.06245339415851259,0.6496315388832757,0.22761040257142276,-0.0911882189192003,0.5223458489820819,0.24950066303326998,0.030603851563673956,0.4997570874039726,0.24999994099347075,0.0009658627442483692,0.4764387269239056,0.24944486641103364,0.03412879469032637,0.4624987225030447,0.24859365418609636,-0.021295677478578412,0.5261502339613333,0.24931616526376751,-0.0863323420891733,0.3213876358481982,0.21809762337210414,0.06799057142535359,0.5521330899636266,0.2472821409308444,0.10681760927369899
4.0,0.0,4.0,0.0,1.0,0.0,1.0,0.0,,,,right,0.7925622999900952,162.73142389999705,rn14,160.13406640000176,162.14844089999679,162.73142389999705,None,True,1.0,['p'],False,0.375,0.5,0.25,1.0,2.0,0.9850568223215076,0.0773829730009039,figh_cost,1.0,0.0,162.1484408999968,None,rn14,1,2023-03-30_11h23.48.840,threat_forest,2021.2.3,60.09442035514424,True,59.0,0.3611111111111111,0.3555555555555555,-1.1404320987654322,-1.0577160493827162,1,1,1,-0.2324841643455772,0.0773829730009039,1.0,0.375,0.5,0.75,-0.75,-0.75,0.25,0.25,0.0,2.0,-1.0,1.0,1,1,1,0.604277725972614,0.23912615586598046,-0.13458235189442247,0.5466830727871854,0.2478206907151463,-0.056161945899987575,0.6496315388832757,0.22761040257142276,-0.0911882189192003,0.5738501238249977,0.2445461592110325,-0.10033257608312152,0.5793978314427898,0.24369598436218234,-0.08770982663611981,0.6467545017727171,0.22846311620944162,-0.20318237765325353,0.5773255018579758,0.2440207667624121,-0.06529255591541672,0.9999999469966782,5.3003318989656325e-08,-0.12157417971934999,0.9990538002083198,0.0009453044976344699,-0.3852721942509656,0.8692261724370781,0.11367203358746511,-0.15478060884935008
5.0,0.0,5.0,0.0,0.0,0.0,0.0,0.0,169.07189009999274,172.57199379999656,None,right,0.7433884000056423,175.0892085999949,rn14,169.07189009999274,172.57199379999656,175.0892085999949,None,True,5.0,['p'],False,0.48,0.6,0.2,1.0,1.0,0.9455672104350704,0.0603064788559827,succ_gain,1.0,6.0,,,rn14,1,2023-03-30_11h23.48.840,threat_forest,2021.2.3,60.09442035514424,True,4.0,0.4666666666666667,0.4138888888888888,-0.9911111111111112,-1.0657716049382715,1,1,1,-0.2965366252148443,0.0603064788559827,0.48,0.48,0.6,0.8,-0.8000000000000002,-0.7600000000000002,4.24,4.24,0.0,1.0,-1.0,5.0,0,1,1,0.604277725972614,0.23912615586598046,-0.13458235189442247,0.5621756914864422,0.24613418338818271,-0.06823126734567153,0.6496315388832757,0.22761040257142276,-0.0911882189192003,0.5920642441806593,0.241524174943444,-0.1801968447565807,0.5755843241671535,0.2442870099401947,-0.07939606376669417,0.6467545017727171,0.22846311620944162,-0.20318237765325353,0.6345552124197456,0.23189489481067715,-0.18195856248229703,0.5261502339613333,0.24931616526376751,-0.0863323420891733,0.8923980499618355,0.09602377038614887,-0.18681459256262234,0.8275127011188861,0.14273543060581123,-0.09787673365776395
5.0,0.0,5.0,0.0,1.0,0.0,1.0,0.0,,,,right,1.3963918999943417,178.74012679999578,rn14,178.74012679999578,None,175.8525568999903,177.867010499991,False,6.0,['p'],True,0.2962962962962963,0.3333333333333333,0.1111111111111111,1.0,1.0,0.8325252476189534,-0.1377614848417467,wait_cost,0.0,5.0,177.867010499991,None,rn14,1,2023-03-30_11h23.48.840,threat_forest,2021.2.3,60.09442035514424,False,4.0,0.4666666666666667,0.4138888888888888,-0.9911111111111112,-1.0657716049382715,0,0,0,0.3338916955976762,-0.1377614848417467,0.2962962962962963,0.2962962962962963,0.3333333333333333,0.8888888888888888,-1.3333333333333337,-1.2222222222222223,4.777777777777778,4.777777777777778,1.0,1.0,1.0,6.0,0,0,0,0.5209537543323275,0.24956094017938052,-0.03842372806338634,0.5894027912045345,0.24200714092483847,-0.09776603503610759,0.2658186319306174,0.19515908684915237,-0.08114571970098605,0.543067177742504,0.24814521820129554,-0.0052175163348566755,0.5344347686673545,0.2488142467068258,-0.015712909717597423,0.4764387269239056,0.24944486641103364,0.03412879469032637,0.532928709306812,0.24891570010338748,-0.018197194231264646,0.5261502339613333,0.24931616526376751,-0.0863323420891733,0.5994733903625118,0.24010504460978732,0.11392673580664398,0.09854344955586429,0.08883263810549515,-0.20341421693887343
5.0,0.0,5.0,0.0,2.0,0.0,2.0,0.0,,,,right,0.8785651000071084,185.8610742000019,rn14,180.16537940000129,182.1796364000038,185.8610742000019,None,True,5.0,['p'],False,0.48,0.6,0.2,1.0,1.0,0.9455672104350704,0.0867185088675958,succ_gain,1.0,6.0,182.1796364000038,None,rn14,1,2023-03-30_11h23.48.840,threat_forest,2021.2.3,60.09442035514424,True,4.0,0.4666666666666667,0.4138888888888888,-0.9911111111111112,-1.0657716049382715,1,1,1,-0.1294652705067719,0.0867185088675958,0.48,0.48,0.6,0.8,-0.8000000000000002,-0.7600000000000002,4.24,4.24,0.0,1.0,-1.0,5.0,0,1,1,0.604277725972614,0.23912615586598046,-0.13458235189442247,0.5621756914864422,0.24613418338818271,-0.06823126734567153,0.6496315388832757,0.22761040257142276,-0.0911882189192003,0.5920642441806593,0.241524174943444,-0.1801968447565807,0.5755843241671535,0.2442870099401947,-0.07939606376669417,0.6467545017727171,0.22846311620944162,-0.20318237765325353,0.6345552124197456,0.23189489481067715,-0.18195856248229703,0.5261502339613333,0.24931616526376751,-0.0863323420891733,0.8923980499618355,0.09602377038614887,-0.18681459256262234,0.8881888272731608,0.0993094343802881,-0.1829014631388905
5.0,0.0,5.0,0.0,3.0,0.0,3.0,0.0,,,,right,0.6549980999989202,192.25395339999525,rn14,180.16537940000129,182.1796364000038,192.25395339999525,None,True,6.0,['p'],False,0.48,0.6,0.2,1.0,1.0,0.9455672104350704,-0.2272256068282274,unsucc_cost,1.0,4.0,188.77346549999493,None,rn14,1,2023-03-30_11h23.48.840,threat_forest,2021.2.3,60.09442035514424,True,4.0,0.4666666666666667,0.4138888888888888,-0.9911111111111112,-1.0657716049382715,1,1,1,-0.4231229441160996,-0.2272256068282274,0.0,0.48,0.6,0.8,-0.8000000000000002,-0.7600000000000002,5.24,5.24,0.0,1.0,1.0,6.0,0,1,1,0.604277725972614,0.23912615586598046,-0.13458235189442247,0.5621756914864422,0.24613418338818271,-0.06823126734567153,0.2658186319306174,0.19515908684915237,-0.08114571970098605,0.5920642441806593,0.241524174943444,-0.1801968447565807,0.5755843241671535,0.2442870099401947,-0.07939606376669417,0.6467545017727171,0.22846311620944162,-0.20318237765325353,0.6345552124197456,0.23189489481067715,-0.18195856248229703,0.5261502339613333,0.24931616526376751,-0.0863323420891733,0.08640475312294084,0.0789389717607045,-0.22247575020592822,0.019424410712797102,0.01904710298125768,-0.34004887731188294
5.0,0.0,5.0,0.0,4.0,0.0,4.0,0.0,,,,right,1.3005335999914678,196.3013862999942,rn14,196.3013862999942,None,192.9366803000012,194.9510650000011,False,4.0,['p'],True,0.2962962962962963,0.3333333333333333,0.1111111111111111,1.0,1.0,0.8325252476189534,0.0069872275567748,wait_cost,0.0,3.0,194.9510650000011,None,rn14,1,2023-03-30_11h23.48.840,threat_forest,2021.2.3,60.09442035514424,False,4.0,0.4666666666666667,0.4138888888888888,-0.9911111111111112,-1.0657716049382715,0,0,0,0.262774641783099,0.0069872275567748,0.2962962962962963,0.2962962962962963,0.3333333333333333,0.8888888888888888,-1.3333333333333337,-1.2222222222222223,2.7777777777777777,2.7777777777777777,1.0,1.0,-1.0,4.0,0,0,0,0.5209537543323275,0.24956094017938052,-0.03842372806338634,0.5894027912045345,0.24200714092483847,-0.09776603503610759,0.6496315388832757,0.22761040257142276,-0.0911882189192003,0.543067177742504,0.24814521820129554,-0.0052175163348566755,0.5344347686673545,0.2488142467068258,-0.015712909717597423,0.4764387269239056,0.24944486641103364,0.03412879469032637,0.532928709306812,0.24891570010338748,-0.018197194231264646,0.5261502339613333,0.24931616526376751,-0.0863323420891733,0.5994733903625118,0.24010504460978732,0.11392673580664398,0.6341593398310793,0.23200127153608904,0.07689885324152579
5.0,0.0,5.0,0.0,5.0,0.0,5.0,0.0,,,,right,1.076921100000618,200.87979619999533,rn14,197.6323621999909,199.6467100000009,200.87979619999533,None,True,3.0,['p'],False,0.48,0.6,0.2,1.0,1.0,0.9455672104350704,0.1701333333333333,succ_gain,1.0,4.0,199.6467100000009,None,rn14,1,2023-03-30_11h23.48.840,threat_forest,2021.2.3,60.09442035514424,True,4.0,0.4666666666666667,0.4138888888888888,-0.9911111111111112,-1.0657716049382715,1,1,1,0.0741061364383251,0.1701333333333333,0.48,0.48,0.6,0.8,-0.8000000000000002,-0.7600000000000002,2.24,2.24,0.0,1.0,-1.0,3.0,0,1,1,0.604277725972614,0.23912615586598046,-0.13458235189442247,0.5621756914864422,0.24613418338818271,-0.06823126734567153,0.6496315388832757,0.22761040257142276,-0.0911882189192003,0.5920642441806593,0.241524174943444,-0.1801968447565807,0.5755843241671535,0.2442870099401947,-0.07939606376669417,0.6467545017727171,0.22846311620944162,-0.20318237765325353,0.6345552124197456,0.23189489481067715,-0.18195856248229703,0.5261502339613333,0.24931616526376751,-0.0863323420891733,0.8923980499618355,0.09602377038614887,-0.18681459256262234,0.9750343416314187,0.024342374270804674,-0.3296811471950021
5.0,0.0,5.0,0.0,6.0,0.0,6.0,0.0,,,,right,0.6301024999993388,206.77674619999016,rn14,206.77674619999016,None,201.97815759999503,203.99257899999793,False,4.0,['p'],True,0.2962962962962963,0.3333333333333333,0.1111111111111111,1.0,1.0,0.8325252476189534,-0.0679835390946502,wait_cost,0.0,3.0,203.992578999998,None,rn14,1,2023-03-30_11h23.48.840,threat_forest,2021.2.3,60.09442035514424,False,4.0,0.4666666666666667,0.4138888888888888,-0.9911111111111112,-1.0657716049382715,0,0,0,-0.461872774418861,-0.0679835390946502,0.0,0.2962962962962963,0.3333333333333333,0.8888888888888888,-1.3333333333333337,-1.2222222222222223,2.7777777777777777,2.7777777777777777,1.0,1.0,1.0,4.0,0,0,0,0.5209537543323275,0.24956094017938052,-0.03842372806338634,0.5894027912045345,0.24200714092483847,-0.09776603503610759,0.2658186319306174,0.19515908684915237,-0.08114571970098605,0.543067177742504,0.24814521820129554,-0.0052175163348566755,0.5344347686673545,0.2488142467068258,-0.015712909717597423,0.4764387269239056,0.24944486641103364,0.03412879469032637,0.532928709306812,0.24891570010338748,-0.018197194231264646,0.5261502339613333,0.24931616526376751,-0.0863323420891733,0.08640475312294084,0.0789389717607045,-0.22247575020592822,0.29291302448535916,0.20711498457219854,0.02817343527055355
5.0,0.0,5.0,0.0,7.0,0.0,7.0,0.0,,,,left,0.7899891999986721,211.12754380000115,rn14,207.4229717999988,209.43748680000135,211.12754380000115,None,False,3.0,['p'],False,0.48,0.6,0.2,1.0,1.0,0.9455672104350704,-0.2,wait_cost,1.0,2.0,209.43748680000127,None,rn14,1,2023-03-30_11h23.48.840,threat_forest,2021.2.3,60.09442035514424,False,4.0,0.4666666666666667,0.4138888888888888,-0.9911111111111112,-1.0657716049382715,1,1,0,-0.2357360045022741,-0.2,0.0,0.48,0.6,0.8,-0.8000000000000002,-0.7600000000000002,2.24,2.24,0.0,1.0,-1.0,3.0,0,1,1,0.604277725972614,0.23912615586598046,-0.13458235189442247,0.5621756914864422,0.24613418338818271,-0.06823126734567153,0.6496315388832757,0.22761040257142276,-0.0911882189192003,0.5920642441806593,0.241524174943444,-0.1801968447565807,0.5755843241671535,0.2442870099401947,-0.07939606376669417,0.6467545017727171,0.22846311620944162,-0.20318237765325353,0.6345552124197456,0.23189489481067715,-0.18195856248229703,0.5261502339613333,0.24931616526376751,-0.0863323420891733,0.08640475312294084,0.0789389717607045,-0.22247575020592822,0.03223913500660589,0.031199773180631735,-0.31625489246444194
6.0,0.0,6.0,0.0,0.0,0.0,0.0,0.0,216.7267152999993,220.22747250000248,None,left,1.2636217000108445,222.7116595999978,rn14,222.7116595999978,None,216.7267152999993,220.22747250000248,True,5.0,['r'],True,0.46875,0.625,0.25,2.0,1.0,0.9634951148421658,-0.0023436289892617,figh_cost,0.0,2.0,,,rn14,1,2023-03-30_11h23.48.840,threat_forest,2021.2.3,60.09442035514424,True,38.0,0.6125,0.5395833333333333,-0.5218750000000001,-0.7564930555555557,0,0,1,0.2339819629629802,-0.0023436289892617,0.46875,0.46875,0.625,0.75,-0.875,-0.84375,4.15625,4.15625,1.0,1.0,-1.0,5.0,0,0,0,0.5209537543323275,0.24956094017938052,-0.03842372806338634,0.5466830727871854,0.2478206907151463,-0.056161945899987575,0.6496315388832757,0.22761040257142276,-0.0911882189192003,0.5965805725034437,0.24067219301490708,-0.20271281691943432,0.5698472858141728,0.24512135666439328,-0.06765958217617296,0.4764387269239056,0.24944486641103364,0.03412879469032637,0.6285716971935694,0.2334693186807651,-0.16681064187932115,0.5261502339613333,0.24931616526376751,-0.0863323420891733,0.8819074403450025,0.10414670700912836,-0.16985955962432103,0.5919307751820833,0.2415487325744212,0.09559204079213579
6.0,0.0,6.0,0.0,1.0,0.0,1.0,0.0,,,,right,0.7144932000082918,229.3192826000013,rn14,224.00757609998985,226.02205309999408,229.3192826000013,None,True,2.0,['r'],False,0.6,0.6,0.0,0.0,1.0,0.6126016192893442,0.0828427075234651,succ_gain,1.0,3.0,226.02205309999408,None,rn14,1,2023-03-30_11h23.48.840,threat_forest,2021.2.3,60.09442035514424,True,38.0,0.6125,0.5395833333333333,-0.5218750000000001,-0.7564930555555557,1,1,1,-0.3361817987907547,0.0828427075234651,0.6,0.6,0.6,1.0,-0.2,-0.2,1.7999999999999998,1.7999999999999998,0.0,1.0,-1.0,2.0,0,1,1,0.604277725972614,0.23912615586598046,-0.13458235189442247,0.6226643697389012,0.23495345239655815,-0.14824505333887528,0.6496315388832757,0.22761040257142276,-0.0911882189192003,0.5920642441806593,0.241524174943444,-0.1801968447565807,0.6206308456887182,0.23544819906842462,-0.2037287159722525,0.6467545017727171,0.22846311620944162,-0.20318237765325353,0.6955298310048434,0.21176808518721738,-0.3756035649239511,0.5261502339613333,0.24931616526376751,-0.0863323420891733,0.962091278311412,0.03647165050852529,-0.3111179327135659,0.88062626174126,0.10512364887287386,-0.1715176825156425
6.0,0.0,6.0,0.0,2.0,0.0,2.0,0.0,,,,right,1.1035780000092927,232.85085580000305,rn14,232.85085580000305,None,230.05189479999527,232.0663598999963,False,3.0,['r'],True,0.46875,0.625,0.25,2.0,1.0,0.9634951148421658,0.0420991256654262,wait_cost,0.0,2.0,232.0663598999963,None,rn14,1,2023-03-30_11h23.48.840,threat_forest,2021.2.3,60.09442035514424,False,38.0,0.6125,0.5395833333333333,-0.5218750000000001,-0.7564930555555557,0,0,0,0.0985576284117439,0.0420991256654262,0.46875,0.46875,0.625,0.75,-0.875,-0.84375,2.15625,2.15625,1.0,1.0,1.0,3.0,0,0,0,0.5209537543323275,0.24956094017938052,-0.03842372806338634,0.5466830727871854,0.2478206907151463,-0.056161945899987575,0.2658186319306174,0.19515908684915237,-0.08114571970098605,0.5965805725034437,0.24067219301490708,-0.20271281691943432,0.5698472858141728,0.24512135666439328,-0.06765958217617296,0.4764387269239056,0.24944486641103364,0.03412879469032637,0.6285716971935694,0.2334693186807651,-0.16681064187932115,0.5261502339613333,0.24931616526376751,-0.0863323420891733,0.8819074403450025,0.10414670700912836,-0.16985955962432103,0.7721474337992069,0.17593577427650622,-0.032873038069033245
6.0,0.0,6.0,0.0,3.0,0.0,3.0,0.0,,,,right,0.6293017999996664,237.678044699991,rn14,233.98160590000043,235.99601039999106,237.678044699991,None,True,2.0,['r'],False,0.6,0.6,0.0,0.0,1.0,0.6126016192893442,0.0834363281249999,succ_gain,1.0,3.0,235.99601039999104,None,rn14,1,2023-03-30_11h23.48.840,threat_forest,2021.2.3,60.09442035514424,True,38.0,0.6125,0.5395833333333333,-0.5218750000000001,-0.7564930555555557,1,1,1,-0.4631443281328784,0.0834363281249999,0.6,0.6,0.6,1.0,-0.2,-0.2,1.7999999999999998,1.7999999999999998,0.0,1.0,-1.0,2.0,0,1,1,0.604277725972614,0.23912615586598046,-0.13458235189442247,0.6226643697389012,0.23495345239655815,-0.14824505333887528,0.6496315388832757,0.22761040257142276,-0.0911882189192003,0.5920642441806593,0.241524174943444,-0.1801968447565807,0.6206308456887182,0.23544819906842462,-0.2037287159722525,0.6467545017727171,0.22846311620944162,-0.20318237765325353,0.6955298310048434,0.21176808518721738,-0.3756035649239511,0.5261502339613333,0.24931616526376751,-0.0863323420891733,0.962091278311412,0.03647165050852529,-0.3111179327135659,0.8818125722476583,0.10421915967362673,-0.17328860215293085
6.0,0.0,6.0,0.0,4.0,0.0,4.0,0.0,,,,right,0.8422713999898406,241.0916140999907,rn14,233.98160590000043,235.99601039999106,241.0916140999907,None,True,3.0,['r'],False,0.6,0.6,0.0,0.0,1.0,0.6126016192893442,0.154048828125,unsucc_cost,1.0,1.0,240.34195349999936,None,rn14,1,2023-03-30_11h23.48.840,threat_forest,2021.2.3,60.09442035514424,True,38.0,0.6125,0.5395833333333333,-0.5218750000000001,-0.7564930555555557,1,1,1,-0.1716529888973407,0.154048828125,0.6,0.6,0.6,1.0,-0.2,-0.2,2.8,2.8,0.0,1.0,1.0,3.0,0,1,1,0.604277725972614,0.23912615586598046,-0.13458235189442247,0.6226643697389012,0.23495345239655815,-0.14824505333887528,0.2658186319306174,0.19515908684915237,-0.08114571970098605,0.5920642441806593,0.241524174943444,-0.1801968447565807,0.6206308456887182,0.23544819906842462,-0.2037287159722525,0.6467545017727171,0.22846311620944162,-0.20318237765325353,0.6955298310048434,0.21176808518721738,-0.3756035649239511,0.5261502339613333,0.24931616526376751,-0.0863323420891733,0.962091278311412,0.03647165050852529,-0.3111179327135659,0.9663618612207512,0.032506614398716736,-0.31369619880856314
6.0,0.0,6.0,0.0,5.0,0.0,5.0,0.0,,,,left,1.594007599996985,244.85748369999047,rn14,244.85748369999047,None,241.95737829999416,243.9719044999947,True,1.0,['r'],True,0.46875,0.625,0.25,2.0,1.0,0.9634951148421658,0.265869140625,unsucc_cost,0.0,0.0,243.9719044999947,None,rn14,1,2023-03-30_11h23.48.840,threat_forest,2021.2.3,60.09442035514424,True,38.0,0.6125,0.5395833333333333,-0.5218750000000001,-0.7564930555555557,0,0,1,0.4662513482343138,0.265869140625,1.0,0.46875,0.625,0.75,-0.875,-0.84375,0.15625,0.15625,1.0,1.0,-1.0,1.0,1,0,0,0.5209537543323275,0.24956094017938052,-0.03842372806338634,0.5466830727871854,0.2478206907151463,-0.056161945899987575,0.6496315388832757,0.22761040257142276,-0.0911882189192003,0.5965805725034437,0.24067219301490708,-0.20271281691943432,0.5698472858141728,0.24512135666439328,-0.06765958217617296,0.4764387269239056,0.24944486641103364,0.03412879469032637,0.6285716971935694,0.2334693186807651,-0.16681064187932115,0.9999999469966782,5.3003318989656325e-08,-0.12157417971934999,0.9990538002083198,0.0009453044976344699,-0.3852721942509656,0.9959006072345875,0.0040825877443672574,-0.3693482364612994
7.0,0.0,7.0,0.0,0.0,0.0,0.0,0.0,252.1575324000005,255.66093949999777,None,right,1.476666299990029,256.28054859999975,rn14,256.28054859999975,None,252.1575324000005,255.66093949999777,False,5.0,['p'],True,0.18,0.2,0.1,1.0,2.0,0.7058405977926203,-0.0324991432968132,wait_cost,0.0,4.0,,,rn14,1,2023-03-30_11h23.48.840,threat_forest,2021.2.3,60.09442035514424,False,41.0,0.4333333333333333,0.5229166666666667,-0.9677777777777778,-0.744826388888889,0,0,0,0.3897870470751536,-0.0324991432968132,0.18,0.18,0.2,0.9,-1.5000000000000002,-1.38,3.62,3.62,1.0,2.0,-1.0,5.0,0,0,0,0.5209537543323275,0.24956094017938052,-0.03842372806338634,0.5927715252968654,0.2413934440940931,-0.10215789518521157,0.6496315388832757,0.22761040257142276,-0.0911882189192003,0.5181900296436696,0.24966912282156242,0.03505586606856603,0.5214515848935185,0.24953982950555614,-0.005506374577333162,0.4764387269239056,0.24944486641103364,0.03412879469032637,0.46656991249670704,0.24888242924952222,-0.018517301327148683,0.5261502339613333,0.24931616526376751,-0.0863323420891733,0.3361133376729213,0.2231411619112901,0.07851796638441011,0.4492276780889517,0.2474221713277609,0.10709177792040375
7.0,0.0,7.0,0.0,1.0,0.0,1.0,0.0,,,,right,1.2692804000107571,262.7218266999989,rn14,262.7218266999989,None,252.1575324000005,255.66093949999777,False,4.0,['p'],True,0.18,0.2,0.1,1.0,2.0,0.7058405977926203,0.0073549610652169,wait_cost,0.0,3.0,259.79038520000177,None,rn14,1,2023-03-30_11h23.48.840,threat_forest,2021.2.3,60.09442035514424,False,41.0,0.4333333333333333,0.5229166666666667,-0.9677777777777778,-0.744826388888889,0,0,0,0.2384501257192726,0.0073549610652169,0.18,0.18,0.2,0.9,-1.5000000000000002,-1.38,2.62,2.62,1.0,2.0,-1.0,4.0,0,0,0,0.5209537543323275,0.24956094017938052,-0.03842372806338634,0.5927715252968654,0.2413934440940931,-0.10215789518521157,0.6496315388832757,0.22761040257142276,-0.0911882189192003,0.5181900296436696,0.24966912282156242,0.03505586606856603,0.5214515848935185,0.24953982950555614,-0.005506374577333162,0.4764387269239056,0.24944486641103364,0.03412879469032637,0.46656991249670704,0.24888242924952222,-0.018517301327148683,0.5261502339613333,0.24931616526376751,-0.0863323420891733,0.3361133376729213,0.2231411619112901,0.07851796638441011,0.6357866712052436,0.2315619799229991,0.07603875436498353
7.0,0.0,7.0,0.0,2.0,0.0,2.0,0.0,,,,right,0.661705799997435,268.182942799991,rn14,264.0202262999956,266.03450090000115,268.182942799991,None,True,3.0,['p'],False,0.4444444444444445,0.6666666666666666,0.3333333333333333,1.0,2.0,0.9656336071428248,0.1096367459228776,succ_gain,1.0,5.0,266.03450090000115,None,rn14,1,2023-03-30_11h23.48.840,threat_forest,2021.2.3,60.09442035514424,True,41.0,0.4333333333333333,0.5229166666666667,-0.9677777777777778,-0.744826388888889,1,0,1,-0.4129342327049186,0.1096367459228776,0.4444444444444445,0.4444444444444445,0.6666666666666666,0.6666666666666667,-0.3333333333333335,-0.5555555555555556,2.4444444444444446,2.4444444444444446,0.0,2.0,-1.0,3.0,0,0,1,0.604277725972614,0.23912615586598046,-0.13458235189442247,0.5206747373135173,0.2495725552370171,-0.04362490220874249,0.6496315388832757,0.22761040257142276,-0.0911882189192003,0.604071194015656,0.23916918657615574,-0.24243390724071645,0.610769510092255,0.23773011563392188,-0.17162974442323753,0.6467545017727171,0.22846311620944162,-0.20318237765325353,0.6155109627477214,0.23665721748509455,-0.13613908074781556,0.5261502339613333,0.24931616526376751,-0.0863323420891733,0.8561998767170572,0.12312164782675322,-0.1302531018249321,0.9248356924623465,0.06951463441003852,-0.24123736853202532
7.0,0.0,7.0,0.0,3.0,0.0,3.0,0.0,,,,right,0.7752454000001308,272.332570700004,rn14,272.332570700004,None,268.86558369999693,270.8800889999984,False,5.0,['p'],True,0.18,0.2,0.1,1.0,2.0,0.7058405977926203,-0.0095682962962963,wait_cost,0.0,4.0,270.8800889999984,None,rn14,1,2023-03-30_11h23.48.840,threat_forest,2021.2.3,60.09442035514424,False,41.0,0.4333333333333333,0.5229166666666667,-0.9677777777777778,-0.744826388888889,0,0,0,-0.2545756545888299,-0.0095682962962963,0.18,0.18,0.2,0.9,-1.5000000000000002,-1.38,3.62,3.62,1.0,2.0,1.0,5.0,0,0,0,0.5209537543323275,0.24956094017938052,-0.03842372806338634,0.5927715252968654,0.2413934440940931,-0.10215789518521157,0.2658186319306174,0.19515908684915237,-0.08114571970098605,0.5181900296436696,0.24966912282156242,0.03505586606856603,0.5214515848935185,0.24953982950555614,-0.005506374577333162,0.4764387269239056,0.24944486641103364,0.03412879469032637,0.46656991249670704,0.24888242924952222,-0.018517301327148683,0.5261502339613333,0.24931616526376751,-0.0863323420891733,0.3361133376729213,0.2231411619112901,0.07851796638441011,0.5582384175694104,0.246608286719011,0.10549825503774068
7.0,0.0,7.0,0.0,4.0,0.0,4.0,0.0,,,,right,0.6343652000068687,278.27353720000247,rn14,273.12846680000075,275.14271230000304,278.27353720000247,None,True,4.0,['p'],False,0.4444444444444445,0.6666666666666666,0.3333333333333333,1.0,2.0,0.9656336071428248,0.1732790123456791,succ_gain,1.0,6.0,275.14271230000304,None,rn14,1,2023-03-30_11h23.48.840,threat_forest,2021.2.3,60.09442035514424,True,41.0,0.4333333333333333,0.5229166666666667,-0.9677777777777778,-0.744826388888889,1,0,1,-0.4551304651363451,0.1732790123456791,0.4444444444444445,0.4444444444444445,0.6666666666666666,0.6666666666666667,-0.3333333333333335,-0.5555555555555556,3.4444444444444446,3.4444444444444446,0.0,2.0,-1.0,4.0,0,0,1,0.604277725972614,0.23912615586598046,-0.13458235189442247,0.5206747373135173,0.2495725552370171,-0.04362490220874249,0.6496315388832757,0.22761040257142276,-0.0911882189192003,0.604071194015656,0.23916918657615574,-0.24243390724071645,0.610769510092255,0.23773011563392188,-0.17162974442323753,0.6467545017727171,0.22846311620944162,-0.20318237765325353,0.6155109627477214,0.23665721748509455,-0.13613908074781556,0.5261502339613333,0.24931616526376751,-0.0863323420891733,0.8561998767170572,0.12312164782675322,-0.1302531018249321,0.9764553497196949,0.022990299723483102,-0.33232840419809573
7.0,0.0,7.0,0.0,5.0,0.0,5.0,0.0,,,,left,0.58292739999888,284.4844085999939,rn14,273.12846680000075,275.14271230000304,284.4844085999939,None,False,6.0,['p'],False,0.4444444444444445,0.6666666666666666,0.3333333333333333,1.0,2.0,0.9656336071428248,0.0,wait_cost,1.0,5.0,280.95399019999604,None,rn14,1,2023-03-30_11h23.48.840,threat_forest,2021.2.3,60.09442035514424,False,41.0,0.4333333333333333,0.5229166666666667,-0.9677777777777778,-0.744826388888889,1,0,0,-0.5396926286897455,0.0,0.0,0.4444444444444445,0.6666666666666666,0.6666666666666667,-0.3333333333333335,-0.5555555555555556,5.444444444444445,5.444444444444445,0.0,2.0,1.0,6.0,0,0,1,0.604277725972614,0.23912615586598046,-0.13458235189442247,0.5206747373135173,0.2495725552370171,-0.04362490220874249,0.2658186319306174,0.19515908684915237,-0.08114571970098605,0.604071194015656,0.23916918657615574,-0.24243390724071645,0.610769510092255,0.23773011563392188,-0.17162974442323753,0.6467545017727171,0.22846311620944162,-0.20318237765325353,0.6155109627477214,0.23665721748509455,-0.13613908074781556,0.5261502339613333,0.24931616526376751,-0.0863323420891733,0.08640475312294084,0.0789389717607045,-0.22247575020592822,0.6026929922442639,0.23945414934391962,0.09149100942778382
7.0,0.0,7.0,0.0,6.0,0.0,6.0,0.0,,,,left,0.6549514999933308,290.21225169999525,rn14,273.12846680000075,275.14271230000304,290.21225169999525,None,False,5.0,['p'],False,0.4444444444444445,0.6666666666666666,0.3333333333333333,1.0,2.0,0.9656336071428248,0.0,wait_cost,1.0,4.0,287.09828369999013,None,rn14,1,2023-03-30_11h23.48.840,threat_forest,2021.2.3,60.09442035514424,False,41.0,0.4333333333333333,0.5229166666666667,-0.9677777777777778,-0.744826388888889,1,0,0,-0.4231940919001203,0.0,0.0,0.4444444444444445,0.6666666666666666,0.6666666666666667,-0.3333333333333335,-0.5555555555555556,4.444444444444445,4.444444444444445,0.0,2.0,-1.0,5.0,0,0,1,0.604277725972614,0.23912615586598046,-0.13458235189442247,0.5206747373135173,0.2495725552370171,-0.04362490220874249,0.6496315388832757,0.22761040257142276,-0.0911882189192003,0.604071194015656,0.23916918657615574,-0.24243390724071645,0.610769510092255,0.23773011563392188,-0.17162974442323753,0.6467545017727171,0.22846311620944162,-0.20318237765325353,0.6155109627477214,0.23665721748509455,-0.13613908074781556,0.5261502339613333,0.24931616526376751,-0.0863323420891733,0.08640475312294084,0.0789389717607045,-0.22247575020592822,0.6026929922442639,0.23945414934391962,0.09149100942778382
7.0,0.0,7.0,0.0,7.0,0.0,7.0,0.0,,,,right,0.5816324000043096,294.6445260999899,rn14,294.6445260999899,None,290.89502480000374,292.9094505999965,False,4.0,['p'],True,0.18,0.2,0.1,1.0,2.0,0.7058405977926203,0.0,wait_cost,0.0,3.0,292.9094505999965,None,rn14,1,2023-03-30_11h23.48.840,threat_forest,2021.2.3,60.09442035514424,False,41.0,0.4333333333333333,0.5229166666666667,-0.9677777777777778,-0.744826388888889,0,0,0,-0.5419166459164262,0.0,0.0,0.18,0.2,0.9,-1.5000000000000002,-1.38,2.62,2.62,1.0,2.0,-1.0,4.0,0,0,0,0.5209537543323275,0.24956094017938052,-0.03842372806338634,0.5927715252968654,0.2413934440940931,-0.10215789518521157,0.6496315388832757,0.22761040257142276,-0.0911882189192003,0.5181900296436696,0.24966912282156242,0.03505586606856603,0.5214515848935185,0.24953982950555614,-0.005506374577333162,0.4764387269239056,0.24944486641103364,0.03412879469032637,0.46656991249670704,0.24888242924952222,-0.018517301327148683,0.5261502339613333,0.24931616526376751,-0.0863323420891733,0.08640475312294084,0.0789389717607045,-0.22247575020592822,0.6026929922442639,0.23945414934391962,0.09149100942778382
8.0,0.0,8.0,0.0,0.0,0.0,0.0,0.0,298.5339860999957,302.02646670000104,None,right,0.8271359000063967,304.9819259999931,rn14,298.5339860999957,302.02646670000104,304.9819259999931,None,True,5.0,['r'],False,0.2857142857142857,0.2857142857142857,0.0,0.0,2.0,0.5445684476282007,0.0313986794861317,succ_gain,1.0,6.0,,,rn14,1,2023-03-30_11h23.48.840,threat_forest,2021.2.3,60.09442035514424,True,55.0,0.2928571428571428,0.3630952380952381,-1.0485714285714285,-1.008174603174603,1,0,1,-0.1897862685515896,0.0313986794861317,0.2857142857142857,0.2857142857142857,0.2857142857142857,1.0,-0.8571428571428572,-0.8571428571428572,4.142857142857142,4.142857142857142,0.0,2.0,-1.0,5.0,0,0,1,0.604277725972614,0.23912615586598046,-0.13458235189442247,0.6226643697389012,0.23495345239655815,-0.14824505333887528,0.6496315388832757,0.22761040257142276,-0.0911882189192003,0.534200636672492,0.24883031645119622,0.012888094367559333,0.5712150098729432,0.2449284223687966,-0.07037352560373922,0.6467545017727171,0.22846311620944162,-0.20318237765325353,0.5269034360697267,0.24927620512764218,-0.014728686424609894,0.5261502339613333,0.24931616526376751,-0.0863323420891733,0.57557695373259,0.24428812406450195,0.12265809162414182,0.7342275147865119,0.1951374713169343,0.00472239412237363
8.0,0.0,8.0,0.0,1.0,0.0,1.0,0.0,,,,right,1.4531806000013603,310.7245757999917,rn14,310.7245757999917,None,305.83125380000274,307.84542689999216,False,6.0,['r'],True,0.24,0.3,0.2,2.0,2.0,0.9003120349047065,-0.1069245545540785,wait_cost,0.0,5.0,307.84542689999216,None,rn14,1,2023-03-30_11h23.48.840,threat_forest,2021.2.3,60.09442035514424,False,55.0,0.2928571428571428,0.3630952380952381,-1.0485714285714285,-1.008174603174603,0,0,0,0.3737546714281259,-0.1069245545540785,0.24,0.24,0.3,0.8,-1.4,-1.24,4.76,4.76,1.0,2.0,1.0,6.0,0,0,0,0.5209537543323275,0.24956094017938052,-0.03842372806338634,0.5621756914864422,0.24613418338818271,-0.06823126734567153,0.2658186319306174,0.19515908684915237,-0.08114571970098605,0.5368631269702175,0.2486411098699776,0.007887788641517623,0.529246101671419,0.24914466553702505,-0.011065016455332977,0.4764387269239056,0.24944486641103364,0.03412879469032637,0.5008064255193715,0.2499993496778817,-0.007771134243384825,0.5261502339613333,0.24931616526376751,-0.0863323420891733,0.4696783224655007,0.2490805958714939,0.13266143414851378,0.16454948192898972,0.13747294992589082,-0.10818026230650707
8.0,0.0,8.0,0.0,2.0,0.0,2.0,0.0,,,,right,0.8490958000038518,316.1215523999999,rn14,316.1215523999999,None,305.83125380000274,307.84542689999216,False,5.0,['r'],True,0.24,0.3,0.2,2.0,2.0,0.9003120349047065,-0.0038576902717201,wait_cost,0.0,4.0,314.2229107000021,None,rn14,1,2023-03-30_11h23.48.840,threat_forest,2021.2.3,60.09442035514424,False,55.0,0.2928571428571428,0.3630952380952381,-1.0485714285714285,-1.008174603174603,0,0,0,-0.1635832603983665,-0.0038576902717201,0.24,0.24,0.3,0.8,-1.4,-1.24,3.76,3.76,1.0,2.0,-1.0,5.0,0,0,0,0.5209537543323275,0.24956094017938052,-0.03842372806338634,0.5621756914864422,0.24613418338818271,-0.06823126734567153,0.6496315388832757,0.22761040257142276,-0.0911882189192003,0.5368631269702175,0.2486411098699776,0.007887788641517623,0.529246101671419,0.24914466553702505,-0.011065016455332977,0.4764387269239056,0.24944486641103364,0.03412879469032637,0.5008064255193715,0.2499993496778817,-0.007771134243384825,0.5261502339613333,0.24931616526376751,-0.0863323420891733,0.4696783224655007,0.2490805958714939,0.13266143414851378,0.5849301529263511,0.2427868691239066,0.09801621604038996
8.0,0.0,8.0,0.0,3.0,0.0,3.0,0.0,,,,right,1.067412600008538,319.91780260000087,rn14,316.9874257999909,319.0017802999937,319.91780260000087,None,True,4.0,['r'],False,0.2857142857142857,0.2857142857142857,0.0,0.0,2.0,0.5445684476282007,0.0512979591836735,unsucc_cost,1.0,2.0,319.0017802999937,None,rn14,1,2023-03-30_11h23.48.840,threat_forest,2021.2.3,60.09442035514424,True,55.0,0.2928571428571428,0.3630952380952381,-1.0485714285714285,-1.008174603174603,1,0,1,0.0652375892405206,0.0512979591836735,0.2857142857142857,0.2857142857142857,0.2857142857142857,1.0,-0.8571428571428572,-0.8571428571428572,3.142857142857143,3.142857142857143,0.0,2.0,-1.0,4.0,0,0,1,0.604277725972614,0.23912615586598046,-0.13458235189442247,0.6226643697389012,0.23495345239655815,-0.14824505333887528,0.6496315388832757,0.22761040257142276,-0.0911882189192003,0.534200636672492,0.24883031645119622,0.012888094367559333,0.5712150098729432,0.2449284223687966,-0.07037352560373922,0.6467545017727171,0.22846311620944162,-0.20318237765325353,0.5269034360697267,0.24927620512764218,-0.014728686424609894,0.5261502339613333,0.24931616526376751,-0.0863323420891733,0.57557695373259,0.24428812406450195,0.12265809162414182,0.8015651747276623,0.15905844539147446,-0.06591753785118054
8.0,0.0,8.0,0.0,4.0,0.0,4.0,0.0,,,,left,2.090807600005064,326.81408219999867,rn14,326.81408219999867,None,321.0169472999987,323.031229500004,True,2.0,['r'],True,0.24,0.3,0.2,2.0,2.0,0.9003120349047065,-0.0228571428571429,figh_cost,0.0,0.0,323.031229500004,None,rn14,1,2023-03-30_11h23.48.840,threat_forest,2021.2.3,60.09442035514424,True,55.0,0.2928571428571428,0.3630952380952381,-1.0485714285714285,-1.008174603174603,0,0,1,0.7375504028247047,-0.0228571428571429,0.24,0.24,0.3,0.8,-1.4,-1.24,0.76,0.76,1.0,2.0,-1.0,2.0,0,0,0,0.5209537543323275,0.24956094017938052,-0.03842372806338634,0.5621756914864422,0.24613418338818271,-0.06823126734567153,0.6496315388832757,0.22761040257142276,-0.0911882189192003,0.5368631269702175,0.2486411098699776,0.007887788641517623,0.529246101671419,0.24914466553702505,-0.011065016455332977,0.4764387269239056,0.24944486641103364,0.03412879469032637,0.5008064255193715,0.2499993496778817,-0.007771134243384825,0.5261502339613333,0.24931616526376751,-0.0863323420891733,0.4696783224655007,0.2490805958714939,0.13266143414851378,0.4950747441494773,0.24997574185480695,0.11209147078054038
9.0,0.0,9.0,0.0,0.0,0.0,0.0,0.0,334.27818280000065,337.7841974999901,None,left,0.6467888999904972,340.23238269999274,rn14,340.23238269999274,None,334.27818280000065,337.7841974999901,True,4.0,['r'],True,0.25,0.25,0.0,0.0,1.0,0.5118595071429148,0.013244588621374,unsucc_cost,0.0,2.0,,,rn14,1,2023-03-30_11h23.48.840,threat_forest,2021.2.3,60.09442035514424,True,20.0,0.4583333333333333,0.3755952380952381,-1.625,-1.3367857142857142,1,0,1,-0.4357353128511548,0.013244588621374,0.25,0.25,0.25,1.0,-1.25,-1.25,2.75,2.75,1.0,1.0,-1.0,4.0,0,0,1,0.5209537543323275,0.24956094017938052,-0.03842372806338634,0.6226643697389012,0.23495345239655815,-0.14824505333887528,0.6496315388832757,0.22761040257142276,-0.0911882189192003,0.5275362089572208,0.24924175719626424,0.023761550778218954,0.54091000847608,0.24832637120648704,-0.022575694291591564,0.6467545017727171,0.22846311620944162,-0.20318237765325353,0.5065204668350283,0.24995748351225328,-0.008173938954961546,0.5261502339613333,0.24931616526376751,-0.0863323420891733,0.49294267623695853,0.24995019418130368,0.13447654962586536,0.6614071168811946,0.2239477426201004,0.06113066881360213
9.0,0.0,9.0,0.0,1.0,0.0,1.0,0.0,,,,right,0.4684717000054661,346.60954589999164,rn14,340.89834220000193,342.9126316000038,346.60954589999164,None,True,2.0,['r'],False,0.2222222222222222,0.6666666666666666,0.6666666666666666,2.0,1.0,0.77250688571426,0.0020522694729823,unsucc_cost,1.0,0.0,342.9126316000038,None,rn14,1,2023-03-30_11h23.48.840,threat_forest,2021.2.3,60.09442035514424,True,20.0,0.4583333333333333,0.3755952380952381,-1.625,-1.3367857142857142,0,0,1,-0.7582795846661073,0.0020522694729823,0.2222222222222222,0.2222222222222222,0.6666666666666666,0.3333333333333333,-2.0,-2.0,0.0,0.0,0.0,1.0,-1.0,2.0,0,0,0,0.604277725972614,0.23912615586598046,-0.13458235189442247,0.41693208622839684,0.24309972170163346,-0.08994708969879017,0.6496315388832757,0.22761040257142276,-0.0911882189192003,0.604071194015656,0.23916918657615574,-0.24243390724071645,0.4823982249007143,0.24969017751335418,-0.0033914784861566183,0.4764387269239056,0.24944486641103364,0.03412879469032637,0.4906485651887838,0.24991255066697157,-0.008606248948302309,0.5261502339613333,0.24931616526376751,-0.0863323420891733,0.4287059738133702,0.24491716183010015,0.12397108426832687,0.6120367267641835,0.2374477718559677,0.08756267805999651
10.0,0.0,10.0,0.0,0.0,0.0,0.0,0.0,350.96875620000355,354.4670793999976,None,right,1.0426896999997552,358.0842496999976,rn14,350.96875620000355,354.4670793999976,358.0842496999976,None,True,4.0,['p'],False,0.3950617283950617,0.4444444444444444,0.1111111111111111,1.0,2.0,0.8733423231021583,0.0168321275219163,succ_gain,1.0,6.0,,,rn14,1,2023-03-30_11h23.48.840,threat_forest,2021.2.3,60.09442035514424,True,51.0,0.5555555555555556,0.5069444444444444,-0.2376543209876542,-0.9313271604938272,1,0,1,0.0418036245635611,0.0168321275219163,0.3950617283950617,0.3950617283950617,0.4444444444444444,0.8888888888888888,-0.5555555555555556,-0.5308641975308641,3.469135802469136,3.469135802469136,0.0,2.0,-1.0,4.0,0,0,1,0.604277725972614,0.23912615586598046,-0.13458235189442247,0.5894027912045345,0.24200714092483847,-0.09776603503610759,0.6496315388832757,0.22761040257142276,-0.0911882189192003,0.5636405298641848,0.2459498829586058,-0.0632353046903198,0.5941343817501001,0.24113871817252644,-0.12368205099618779,0.6467545017727171,0.22846311620944162,-0.20318237765325353,0.5884739262421681,0.24217236437529546,-0.08307649144532592,0.5261502339613333,0.24931616526376751,-0.0863323420891733,0.7898149191753551,0.1660073126233824,-0.04073770942967708,0.6765728520207528,0.21882202792925737,0.05109491735442845
10.0,0.0,10.0,0.0,1.0,0.0,1.0,0.0,,,,right,1.1307355000026291,363.3773063999979,rn14,350.96875620000355,354.4670793999976,363.3773063999979,None,True,6.0,['p'],False,0.3950617283950617,0.4444444444444444,0.1111111111111111,1.0,2.0,0.8733423231021583,-0.0448036713827231,unsucc_cost,1.0,4.0,361.162221999999,None,rn14,1,2023-03-30_11h23.48.840,threat_forest,2021.2.3,60.09442035514424,True,51.0,0.5555555555555556,0.5069444444444444,-0.2376543209876542,-0.9313271604938272,1,0,1,0.1228683059485849,-0.0448036713827231,0.3950617283950617,0.3950617283950617,0.4444444444444444,0.8888888888888888,-0.5555555555555556,-0.5308641975308641,5.469135802469136,5.469135802469136,0.0,2.0,1.0,6.0,0,0,1,0.604277725972614,0.23912615586598046,-0.13458235189442247,0.5894027912045345,0.24200714092483847,-0.09776603503610759,0.2658186319306174,0.19515908684915237,-0.08114571970098605,0.5636405298641848,0.2459498829586058,-0.0632353046903198,0.5941343817501001,0.24113871817252644,-0.12368205099618779,0.6467545017727171,0.22846311620944162,-0.20318237765325353,0.5884739262421681,0.24217236437529546,-0.08307649144532592,0.5261502339613333,0.24931616526376751,-0.0863323420891733,0.7898149191753551,0.1660073126233824,-0.04073770942967708,0.39204695429162445,0.23834613992228534,0.08932161299418806
10.0,0.0,10.0,0.0,2.0,0.0,2.0,0.0,,,,right,0.7190611000114586,369.1052609000035,rn14,350.96875620000355,354.4670793999976,369.1052609000035,None,True,4.0,['p'],False,0.3950617283950617,0.4444444444444444,0.1111111111111111,1.0,2.0,0.8733423231021583,0.0125899016646355,succ_gain,1.0,6.0,366.5407040999999,None,rn14,1,2023-03-30_11h23.48.840,threat_forest,2021.2.3,60.09442035514424,True,51.0,0.5555555555555556,0.5069444444444444,-0.2376543209876542,-0.9313271604938272,1,0,1,-0.3298089457179859,0.0125899016646355,0.3950617283950617,0.3950617283950617,0.4444444444444444,0.8888888888888888,-0.5555555555555556,-0.5308641975308641,3.469135802469136,3.469135802469136,0.0,2.0,-1.0,4.0,0,0,1,0.604277725972614,0.23912615586598046,-0.13458235189442247,0.5894027912045345,0.24200714092483847,-0.09776603503610759,0.6496315388832757,0.22761040257142276,-0.0911882189192003,0.5636405298641848,0.2459498829586058,-0.0632353046903198,0.5941343817501001,0.24113871817252644,-0.12368205099618779,0.6467545017727171,0.22846311620944162,-0.20318237765325353,0.5884739262421681,0.24217236437529546,-0.08307649144532592,0.5261502339613333,0.24931616526376751,-0.0863323420891733,0.7898149191753551,0.1660073126233824,-0.04073770942967708,0.6586022329883028,0.2248453316911241,0.06288807853548095
10.0,0.0,10.0,0.0,3.0,0.0,3.0,0.0,,,,left,1.2985506999975769,374.7000015999947,rn14,350.96875620000355,354.4670793999976,374.7000015999947,None,False,6.0,['p'],False,0.3950617283950617,0.4444444444444444,0.1111111111111111,1.0,2.0,0.8733423231021583,-0.1662308233651524,wait_cost,1.0,5.0,371.8690127000009,None,rn14,1,2023-03-30_11h23.48.840,threat_forest,2021.2.3,60.09442035514424,False,51.0,0.5555555555555556,0.5069444444444444,-0.2376543209876542,-0.9313271604938272,1,0,0,0.2612487964085449,-0.1662308233651524,0.0,0.3950617283950617,0.4444444444444444,0.8888888888888888,-0.5555555555555556,-0.5308641975308641,5.469135802469136,5.469135802469136,0.0,2.0,1.0,6.0,0,0,1,0.604277725972614,0.23912615586598046,-0.13458235189442247,0.5894027912045345,0.24200714092483847,-0.09776603503610759,0.2658186319306174,0.19515908684915237,-0.08114571970098605,0.5636405298641848,0.2459498829586058,-0.0632353046903198,0.5941343817501001,0.24113871817252644,-0.12368205099618779,0.6467545017727171,0.22846311620944162,-0.20318237765325353,0.5884739262421681,0.24217236437529546,-0.08307649144532592,0.5261502339613333,0.24931616526376751,-0.0863323420891733,0.08640475312294084,0.0789389717607045,-0.22247575020592822,0.059688855818233834,0.05612609630934394,-0.26745108679072715
10.0,0.0,10.0,0.0,4.0,0.0,4.0,0.0,,,,left,1.1411238000000594,379.4457159000012,rn14,350.96875620000355,354.4670793999976,379.4457159000012,None,False,5.0,['p'],False,0.3950617283950617,0.4444444444444444,0.1111111111111111,1.0,2.0,0.8733423231021583,-0.2223920435194122,wait_cost,1.0,4.0,378.0299154999957,None,rn14,1,2023-03-30_11h23.48.840,threat_forest,2021.2.3,60.09442035514424,False,51.0,0.5555555555555556,0.5069444444444444,-0.2376543209876542,-0.9313271604938272,1,0,0,0.132013566308785,-0.2223920435194122,0.0,0.3950617283950617,0.4444444444444444,0.8888888888888888,-0.5555555555555556,-0.5308641975308641,4.469135802469136,4.469135802469136,0.0,2.0,-1.0,5.0,0,0,1,0.604277725972614,0.23912615586598046,-0.13458235189442247,0.5894027912045345,0.24200714092483847,-0.09776603503610759,0.6496315388832757,0.22761040257142276,-0.0911882189192003,0.5636405298641848,0.2459498829586058,-0.0632353046903198,0.5941343817501001,0.24113871817252644,-0.12368205099618779,0.6467545017727171,0.22846311620944162,-0.20318237765325353,0.5884739262421681,0.24217236437529546,-0.08307649144532592,0.5261502339613333,0.24931616526376751,-0.0863323420891733,0.08640475312294084,0.0789389717607045,-0.22247575020592822,0.02126237953884065,0.020810290755186946,-0.3365966925255117
10.0,0.0,10.0,0.0,5.0,0.0,5.0,0.0,,,,left,0.7194091999990633,383.2587177999958,rn14,350.96875620000355,354.4670793999976,383.2587177999958,None,False,4.0,['p'],False,0.3950617283950617,0.4444444444444444,0.1111111111111111,1.0,2.0,0.8733423231021583,-0.2975918305136412,wait_cost,1.0,3.0,382.6255969999911,None,rn14,1,2023-03-30_11h23.48.840,threat_forest,2021.2.3,60.09442035514424,False,51.0,0.5555555555555556,0.5069444444444444,-0.2376543209876542,-0.9313271604938272,1,0,0,-0.3293249593688801,-0.2975918305136412,0.0,0.3950617283950617,0.4444444444444444,0.8888888888888888,-0.5555555555555556,-0.5308641975308641,3.469135802469136,3.469135802469136,0.0,2.0,-1.0,4.0,0,0,1,0.604277725972614,0.23912615586598046,-0.13458235189442247,0.5894027912045345,0.24200714092483847,-0.09776603503610759,0.6496315388832757,0.22761040257142276,-0.0911882189192003,0.5636405298641848,0.2459498829586058,-0.0632353046903198,0.5941343817501001,0.24113871817252644,-0.12368205099618779,0.6467545017727171,0.22846311620944162,-0.20318237765325353,0.5884739262421681,0.24217236437529546,-0.08307649144532592,0.5261502339613333,0.24931616526376751,-0.0863323420891733,0.08640475312294084,0.0789389717607045,-0.22247575020592822,0.005142412851351521,0.005115968441417778,-0.36732495727706505
10.0,0.0,10.0,0.0,6.0,0.0,6.0,0.0,,,,left,0.5426373000082094,387.0562613999937,rn14,387.0562613999937,None,384.008038400003,386.0224165999971,True,3.0,['p'],True,0.5555555555555556,0.6666666666666666,0.1666666666666666,1.0,2.0,0.8929352898779306,-0.3124142661179698,succ_gain,0.0,5.0,386.0224165999971,None,rn14,1,2023-03-30_11h23.48.840,threat_forest,2021.2.3,60.09442035514424,True,51.0,0.5555555555555556,0.5069444444444444,-0.2376543209876542,-0.9313271604938272,1,1,1,-0.6113141380160433,-0.3124142661179698,0.0,0.5555555555555556,0.6666666666666666,0.8333333333333334,0.1666666666666667,0.0555555555555556,3.055555555555556,3.055555555555556,1.0,2.0,-1.0,3.0,0,1,1,0.5209537543323275,0.24956094017938052,-0.03842372806338634,0.5724390356528163,0.24475258611369,-0.07811853041754624,0.6496315388832757,0.22761040257142276,-0.0911882189192003,0.604071194015656,0.23916918657615574,-0.24243390724071645,0.6472203618183942,0.22832616506606107,-0.30391203129130684,0.6467545017727171,0.22846311620944162,-0.20318237765325353,0.6735996549478613,0.21986315980198345,-0.2977188542883127,0.5261502339613333,0.24931616526376751,-0.0863323420891733,0.08640475312294084,0.0789389717607045,-0.22247575020592822,0.003879837035167903,0.003864783899748443,-0.36977467948110926
10.0,0.0,10.0,0.0,7.0,0.0,7.0,0.0,,,,left,1.527787900005933,393.31758039999113,rn14,387.62130879999313,389.6356015999918,393.31758039999113,None,False,5.0,['p'],False,0.3950617283950617,0.4444444444444444,0.1111111111111111,1.0,2.0,0.8733423231021583,0.0,wait_cost,1.0,4.0,389.6356015999918,None,rn14,1,2023-03-30_11h23.48.840,threat_forest,2021.2.3,60.09442035514424,False,51.0,0.5555555555555556,0.5069444444444444,-0.2376543209876542,-0.9313271604938272,1,0,0,0.4238208722128415,0.0,0.0,0.3950617283950617,0.4444444444444444,0.8888888888888888,-0.5555555555555556,-0.5308641975308641,4.469135802469136,4.469135802469136,0.0,2.0,1.0,5.0,0,0,1,0.604277725972614,0.23912615586598046,-0.13458235189442247,0.5894027912045345,0.24200714092483847,-0.09776603503610759,0.2658186319306174,0.19515908684915237,-0.08114571970098605,0.5636405298641848,0.2459498829586058,-0.0632353046903198,0.5941343817501001,0.24113871817252644,-0.12368205099618779,0.6467545017727171,0.22846311620944162,-0.20318237765325353,0.5884739262421681,0.24217236437529546,-0.08307649144532592,0.5261502339613333,0.24931616526376751,-0.0863323420891733,0.08640475312294084,0.0789389717607045,-0.22247575020592822,0.6026929922442639,0.23945414934391962,0.09149100942778382
11.0,0.0,11.0,0.0,0.0,0.0,0.0,0.0,399.1146153000009,402.6236358000024,None,left,1.559924500004854,405.0051119999989,rn14,405.0051119999989,None,399.1146153000009,402.6236358000024,True,4.0,['r'],True,0.36,0.6,0.4,2.0,1.0,0.9801625908629508,0.0090639294214999,figh_cost,0.0,1.0,,,rn14,1,2023-03-30_11h23.48.840,threat_forest,2021.2.3,60.09442035514424,True,0.0,0.55,0.5527777777777778,-0.91,-0.5738271604938272,0,0,1,0.4446374226574662,0.0090639294214999,0.36,0.36,0.6,0.6,-1.4000000000000004,-1.3200000000000005,2.68,2.68,1.0,1.0,-1.0,4.0,0,0,0,0.5209537543323275,0.24956094017938052,-0.03842372806338634,0.49978020981083016,0.24999995169227268,-0.04056628211219504,0.6496315388832757,0.22761040257142276,-0.0911882189192003,0.5920642441806593,0.241524174943444,-0.1801968447565807,0.529246101671419,0.24914466553702502,-0.01106501645533342,0.4764387269239056,0.24944486641103364,0.03412879469032637,0.5689374763946677,0.24524762434833466,-0.0534886563075716,0.5261502339613333,0.24931616526376751,-0.0863323420891733,0.7304720538217567,0.19688263240718124,0.023708449418091804,0.643308199786017,0.22946275987409107,0.07192864447014458
11.0,0.0,11.0,0.0,1.0,0.0,1.0,0.0,,,,left,0.8845823000010569,412.3481198999944,rn14,412.3481198999944,None,399.1146153000009,402.6236358000024,True,1.0,['r'],True,0.36,0.6,0.4,2.0,1.0,0.9801625908629508,0.0554677811999999,figh_cost,0.0,0.0,408.6013126999897,None,rn14,1,2023-03-30_11h23.48.840,threat_forest,2021.2.3,60.09442035514424,True,0.0,0.55,0.5527777777777778,-0.91,-0.5738271604938272,0,0,1,-0.122639722790535,0.0554677811999999,1.0,0.36,0.6,0.6,-1.4000000000000004,-1.3200000000000005,-0.3200000000000003,0.0,1.0,1.0,-1.0,1.0,1,0,0,0.5209537543323275,0.24956094017938052,-0.03842372806338634,0.49978020981083016,0.24999995169227268,-0.04056628211219504,0.6496315388832757,0.22761040257142276,-0.0911882189192003,0.5920642441806593,0.241524174943444,-0.1801968447565807,0.529246101671419,0.24914466553702502,-0.01106501645533342,0.4764387269239056,0.24944486641103364,0.03412879469032637,0.5689374763946677,0.24524762434833466,-0.0534886563075716,0.9999999469966782,5.3003318989656325e-08,-0.12157417971934999,0.9990538002083198,0.0009453044976344699,-0.3852721942509656,0.8139249316887052,0.1514511372642418,-0.08081205661451468
12.0,0.0,12.0,0.0,0.0,0.0,0.0,0.0,418.4664150000026,421.97221019999415,None,right,1.0278218000021295,425.6201998000033,rn14,418.4664150000026,421.97221019999415,425.6201998000033,None,True,4.0,['r'],False,0.3333333333333333,0.3333333333333333,0.0,0.0,2.0,0.5793801642856949,0.0501512138139916,unsucc_cost,1.0,2.0,,,rn14,1,2023-03-30_11h23.48.840,threat_forest,2021.2.3,60.09442035514424,True,46.0,0.3666666666666667,0.4583333333333333,-1.0533333333333337,-0.9816666666666668,1,0,1,0.0274418057053363,0.0501512138139916,0.3333333333333333,0.3333333333333333,0.3333333333333333,1.0,-0.6666666666666669,-0.6666666666666669,3.333333333333333,3.333333333333333,0.0,2.0,-1.0,4.0,0,0,1,0.604277725972614,0.23912615586598046,-0.13458235189442247,0.6226643697389012,0.23495345239655815,-0.14824505333887528,0.6496315388832757,0.22761040257142276,-0.0911882189192003,0.543067177742504,0.24814521820129554,-0.0052175163348566755,0.585732459200673,0.24264994543940496,-0.10242411292032383,0.6467545017727171,0.22846311620944162,-0.20318237765325353,0.5539303099665833,0.24709152166690826,-0.035748065153911934,0.5261502339613333,0.24931616526376751,-0.0863323420891733,0.6788459747644872,0.2180141173105404,0.06781626894214132,0.7980597042643862,0.16116041269382664,-0.06180204904736519
12.0,0.0,12.0,0.0,1.0,0.0,1.0,0.0,,,,right,0.7612435999908485,430.7143500999955,rn14,418.4664150000026,421.97221019999415,430.7143500999955,None,True,2.0,['r'],False,0.3333333333333333,0.3333333333333333,0.0,0.0,2.0,0.5793801642856949,0.0282073652674897,unsucc_cost,1.0,0.0,428.6825865999999,None,rn14,1,2023-03-30_11h23.48.840,threat_forest,2021.2.3,60.09442035514424,True,46.0,0.3666666666666667,0.4583333333333333,-1.0533333333333337,-0.9816666666666668,1,0,1,-0.272801867230352,0.0282073652674897,0.3333333333333333,0.3333333333333333,0.3333333333333333,1.0,-0.6666666666666669,-0.6666666666666669,1.333333333333333,1.333333333333333,0.0,2.0,-1.0,2.0,0,0,1,0.604277725972614,0.23912615586598046,-0.13458235189442247,0.6226643697389012,0.23495345239655815,-0.14824505333887528,0.6496315388832757,0.22761040257142276,-0.0911882189192003,0.543067177742504,0.24814521820129554,-0.0052175163348566755,0.585732459200673,0.24264994543940496,-0.10242411292032383,0.6467545017727171,0.22846311620944162,-0.20318237765325353,0.5539303099665833,0.24709152166690826,-0.035748065153911934,0.5261502339613333,0.24931616526376751,-0.0863323420891733,0.6788459747644872,0.2180141173105404,0.06781626894214132,0.7221693904973637,0.20064076192602998,0.015497409918542537
13.0,0.0,13.0,0.0,0.0,0.0,0.0,0.0,437.0857163000037,440.5881017999927,None,right,1.1702874999900814,441.3714667000022,rn14,437.0857163000037,440.5881017999927,441.3714667000022,None,True,4.0,['r'],False,0.2040816326530612,0.2857142857142857,0.2857142857142857,2.0,2.0,0.9335459102197724,-0.0038600655291852,unsucc_cost,1.0,2.0,,,rn14,1,2023-03-30_11h23.48.840,threat_forest,2021.2.3,60.09442035514424,True,17.0,0.2678571428571428,0.3172619047619047,-1.2346938775510203,-1.144013605442177,0,0,1,0.1572494451111054,-0.0038600655291852,0.2040816326530612,0.2040816326530612,0.2857142857142857,0.7142857142857143,-1.7142857142857144,-1.469387755102041,2.5306122448979598,2.5306122448979598,0.0,2.0,-1.0,4.0,0,0,0,0.604277725972614,0.23912615586598046,-0.13458235189442247,0.5355594853333551,0.2487355230028269,-0.049615039893486035,0.6496315388832757,0.22761040257142276,-0.0911882189192003,0.534200636672492,0.24883031645119622,0.012888094367559333,0.5047187013248025,0.24997773385780733,0.0006534822538206697,0.4764387269239056,0.24944486641103364,0.03412879469032637,0.48029141411059995,0.24961157164224013,-0.011502042423244152,0.5261502339613333,0.24931616526376751,-0.0863323420891733,0.3878850041865686,0.23743022771375433,0.10834358150160289,0.5849191425883962,0.2427887392220516,0.0980198775473835
13.0,0.0,13.0,0.0,1.0,0.0,1.0,0.0,,,,right,1.813080700012506,445.56715370000165,rn14,445.56715370000165,None,442.56997529999353,444.5843431999965,False,2.0,['r'],True,0.25,0.25,0.0,0.0,2.0,0.5118595071429148,0.0114206737974505,wait_cost,0.0,1.0,444.5843431999965,None,rn14,1,2023-03-30_11h23.48.840,threat_forest,2021.2.3,60.09442035514424,False,17.0,0.2678571428571428,0.3172619047619047,-1.2346938775510203,-1.144013605442177,1,0,0,0.5950274426477858,0.0114206737974505,0.25,0.25,0.25,1.0,-1.0,-1.0,1.0,1.0,1.0,2.0,-1.0,2.0,0,0,1,0.5209537543323275,0.24956094017938052,-0.03842372806338634,0.6226643697389012,0.23495345239655815,-0.14824505333887528,0.6496315388832757,0.22761040257142276,-0.0911882189192003,0.5275362089572208,0.24924175719626424,0.023761550778218954,0.5602444734948503,0.24637060341332825,-0.05008683808111192,0.6467545017727171,0.22846311620944162,-0.20318237765325353,0.5065204668350283,0.24995748351225328,-0.008173938954961546,0.5261502339613333,0.24931616526376751,-0.0863323420891733,0.49294267623695853,0.24995019418130368,0.13447654962586536,0.6535652742063723,0.22641770655792165,0.06596666646235522
13.0,0.0,13.0,0.0,2.0,0.0,2.0,0.0,,,,left,0.8821616000059294,450.4628778999904,rn14,450.4628778999904,None,442.56997529999353,444.5843431999965,True,1.0,['r'],True,0.25,0.25,0.0,0.0,2.0,0.5118595071429148,0.0699967163129748,unsucc_cost,0.0,0.0,449.4130956000008,None,rn14,1,2023-03-30_11h23.48.840,threat_forest,2021.2.3,60.09442035514424,True,17.0,0.2678571428571428,0.3172619047619047,-1.2346938775510203,-1.144013605442177,1,0,1,-0.1253800197967018,0.0699967163129748,1.0,0.25,0.25,1.0,-1.0,-1.0,0.0,0.0,1.0,2.0,-1.0,1.0,1,0,1,0.5209537543323275,0.24956094017938052,-0.03842372806338634,0.6226643697389012,0.23495345239655815,-0.14824505333887528,0.6496315388832757,0.22761040257142276,-0.0911882189192003,0.5275362089572208,0.24924175719626424,0.023761550778218954,0.5602444734948503,0.24637060341332825,-0.05008683808111192,0.6467545017727171,0.22846311620944162,-0.20318237765325353,0.5065204668350283,0.24995748351225328,-0.008173938954961546,0.9999999469966782,5.3003318989656325e-08,-0.12157417971934999,0.9990538002083198,0.0009453044976344699,-0.3852721942509656,0.8523448655390559,0.12585309572826467,-0.13093103478464366
14.0,0.0,14.0,0.0,0.0,0.0,0.0,0.0,454.7031722999964,458.19366209999134,None,right,0.9175021999981254,458.9046967000031,rn14,454.7031722999964,458.19366209999134,458.9046967000031,None,True,5.0,['p'],False,0.24,0.4,0.4,2.0,2.0,0.9801625908629508,0.0016114560000002,succ_gain,1.0,6.0,,,rn14,1,2023-03-30_11h23.48.840,threat_forest,2021.2.3,60.09442035514424,True,65.0,0.3,0.2839285714285714,-1.5000000000000002,-1.3673469387755102,0,0,1,-0.0861003012381661,0.0016114560000002,0.24,0.24,0.4,0.6,-1.6,-1.4400000000000002,3.56,3.56,0.0,2.0,-1.0,5.0,0,0,0,0.604277725972614,0.23912615586598046,-0.13458235189442247,0.49978020981083016,0.24999995169227268,-0.04056628211219504,0.6496315388832757,0.22761040257142276,-0.0911882189192003,0.5554334027939205,0.24692713785468698,-0.03740864886680573,0.5136466086309218,0.24981377007287445,-0.001652942506491506,0.4764387269239056,0.24944486641103364,0.03412879469032637,0.5008064255193715,0.2499993496778817,-0.007771134243384825,0.5261502339613333,0.24931616526376751,-0.0863323420891733,0.4696783224655007,0.2490805958714939,0.13266143414851378,0.6100364357477225,0.2378919828079373,0.08843240862018048
14.0,0.0,14.0,0.0,1.0,0.0,1.0,0.0,,,,right,0.9014039000030608,464.7215507999936,rn14,464.7215507999936,None,459.853850200001,461.8682203999924,False,6.0,['p'],True,0.16,0.2,0.2,2.0,2.0,0.8198746470064713,-0.08017472,wait_cost,0.0,5.0,461.8682203999924,None,rn14,1,2023-03-30_11h23.48.840,threat_forest,2021.2.3,60.09442035514424,False,65.0,0.3,0.2839285714285714,-1.5000000000000002,-1.3673469387755102,0,0,0,-0.1038018421284913,-0.08017472,0.16,0.16,0.2,0.8,-1.8000000000000005,-1.5600000000000005,4.44,4.44,1.0,2.0,1.0,6.0,0,0,0,0.5209537543323275,0.24956094017938052,-0.03842372806338634,0.5621756914864422,0.24613418338818271,-0.06823126734567153,0.2658186319306174,0.19515908684915237,-0.08114571970098605,0.5181900296436696,0.24966912282156242,0.03505586606856603,0.49802048381423486,0.2499960815156703,0.0009115727364608084,0.4764387269239056,0.24944486641103364,0.03412879469032637,0.4552115187014448,0.24799399194296898,-0.027065175909130712,0.5261502339613333,0.24931616526376751,-0.0863323420891733,0.29586389576535865,0.20832845094790367,0.04759934496130802,0.24711880326608593,0.18605110033842343,-0.013068014885191714
14.0,0.0,14.0,0.0,2.0,0.0,2.0,0.0,,,,right,1.5289478000049712,468.7621299000021,rn14,468.7621299000021,None,459.853850200001,461.8682203999924,False,5.0,['p'],True,0.16,0.2,0.2,2.0,2.0,0.8198746470064713,0.0009920000000001,wait_cost,0.0,4.0,467.662679999994,None,rn14,1,2023-03-30_11h23.48.840,threat_forest,2021.2.3,60.09442035514424,False,65.0,0.3,0.2839285714285714,-1.5000000000000002,-1.3673469387755102,0,0,0,0.4245797864066362,0.0009920000000001,0.16,0.16,0.2,0.8,-1.8000000000000005,-1.5600000000000005,3.4399999999999995,3.4399999999999995,1.0,2.0,-1.0,5.0,0,0,0,0.5209537543323275,0.24956094017938052,-0.03842372806338634,0.5621756914864422,0.24613418338818271,-0.06823126734567153,0.6496315388832757,0.22761040257142276,-0.0911882189192003,0.5181900296436696,0.24966912282156242,0.03505586606856603,0.49802048381423486,0.2499960815156703,0.0009115727364608084,0.4764387269239056,0.24944486641103364,0.03412879469032637,0.4552115187014448,0.24799399194296898,-0.027065175909130712,0.5261502339613333,0.24931616526376751,-0.0863323420891733,0.29586389576535865,0.20832845094790367,0.04759934496130802,0.6072192605928662,0.23850403015791907,0.08963074981865493
14.0,0.0,14.0,0.0,3.0,0.0,3.0,0.0,,,,left,1.1775805999932345,474.3737974999967,rn14,474.3737974999967,None,459.853850200001,461.8682203999924,True,4.0,['p'],True,0.16,0.2,0.2,2.0,2.0,0.8198746470064713,0.0127999999999998,succ_gain,0.0,6.0,472.3250016999955,None,rn14,1,2023-03-30_11h23.48.840,threat_forest,2021.2.3,60.09442035514424,True,65.0,0.3,0.2839285714285714,-1.5000000000000002,-1.3673469387755102,0,0,1,0.163461994666246,0.0127999999999998,0.16,0.16,0.2,0.8,-1.8000000000000005,-1.5600000000000005,2.4399999999999995,2.4399999999999995,1.0,2.0,-1.0,4.0,0,0,0,0.5209537543323275,0.24956094017938052,-0.03842372806338634,0.5621756914864422,0.24613418338818271,-0.06823126734567153,0.6496315388832757,0.22761040257142276,-0.0911882189192003,0.5181900296436696,0.24966912282156242,0.03505586606856603,0.49802048381423486,0.2499960815156703,0.0009115727364608084,0.4764387269239056,0.24944486641103364,0.03412879469032637,0.4552115187014448,0.24799399194296898,-0.027065175909130712,0.5261502339613333,0.24931616526376751,-0.0863323420891733,0.29586389576535865,0.20832845094790367,0.04759934496130802,0.6595035815787973,0.22455860746353595,0.06232669475605623
14.0,0.0,14.0,0.0,4.0,0.0,4.0,0.0,,,,right,0.5449679000012111,480.3523037999985,rn14,480.3523037999985,None,459.853850200001,461.8682203999924,False,6.0,['p'],True,0.16,0.2,0.2,2.0,2.0,0.8198746470064713,-0.14,wait_cost,0.0,5.0,477.5867586999957,None,rn14,1,2023-03-30_11h23.48.840,threat_forest,2021.2.3,60.09442035514424,False,65.0,0.3,0.2839285714285714,-1.5000000000000002,-1.3673469387755102,0,0,0,-0.6070283851338586,-0.14,0.0,0.16,0.2,0.8,-1.8000000000000005,-1.5600000000000005,4.44,4.44,1.0,2.0,1.0,6.0,0,0,0,0.5209537543323275,0.24956094017938052,-0.03842372806338634,0.5621756914864422,0.24613418338818271,-0.06823126734567153,0.2658186319306174,0.19515908684915237,-0.08114571970098605,0.5181900296436696,0.24966912282156242,0.03505586606856603,0.49802048381423486,0.2499960815156703,0.0009115727364608084,0.4764387269239056,0.24944486641103364,0.03412879469032637,0.4552115187014448,0.24799399194296898,-0.027065175909130712,0.5261502339613333,0.24931616526376751,-0.0863323420891733,0.08640475312294084,0.0789389717607045,-0.22247575020592822,0.09481144324512653,0.08582223347490267,-0.20930835551005533
14.0,0.0,14.0,0.0,5.0,0.0,5.0,0.0,,,,left,1.0112369999988005,486.0799107999919,rn14,480.9174416000024,482.9347118000005,486.0799107999919,None,False,5.0,['p'],False,0.24,0.4,0.4,2.0,2.0,0.9801625908629508,-0.312,wait_cost,1.0,4.0,482.9347118000005,None,rn14,1,2023-03-30_11h23.48.840,threat_forest,2021.2.3,60.09442035514424,False,65.0,0.3,0.2839285714285714,-1.5000000000000002,-1.3673469387755102,0,0,0,0.0111743339297384,-0.312,0.0,0.24,0.4,0.6,-1.6,-1.4400000000000002,3.56,3.56,0.0,2.0,-1.0,5.0,0,0,0,0.604277725972614,0.23912615586598046,-0.13458235189442247,0.49978020981083016,0.24999995169227268,-0.04056628211219504,0.6496315388832757,0.22761040257142276,-0.0911882189192003,0.5554334027939205,0.24692713785468698,-0.03740864886680573,0.5136466086309218,0.24981377007287445,-0.001652942506491506,0.4764387269239056,0.24944486641103364,0.03412879469032637,0.5008064255193715,0.2499993496778817,-0.007771134243384825,0.5261502339613333,0.24931616526376751,-0.0863323420891733,0.08640475312294084,0.0789389717607045,-0.22247575020592822,0.0039105253451913085,0.003895233136715926,-0.369715062238879
14.0,0.0,14.0,0.0,6.0,0.0,6.0,0.0,,,,right,0.612771200001589,492.2932665999979,rn14,492.2932665999979,None,487.1115472999954,489.1283604999917,False,4.0,['p'],True,0.16,0.2,0.2,2.0,2.0,0.8198746470064713,-0.16,wait_cost,0.0,3.0,489.1283604999917,None,rn14,1,2023-03-30_11h23.48.840,threat_forest,2021.2.3,60.09442035514424,False,65.0,0.3,0.2839285714285714,-1.5000000000000002,-1.3673469387755102,0,0,0,-0.4897636590466082,-0.16,0.0,0.16,0.2,0.8,-1.8000000000000005,-1.5600000000000005,2.4399999999999995,2.4399999999999995,1.0,2.0,-1.0,4.0,0,0,0,0.5209537543323275,0.24956094017938052,-0.03842372806338634,0.5621756914864422,0.24613418338818271,-0.06823126734567153,0.6496315388832757,0.22761040257142276,-0.0911882189192003,0.5181900296436696,0.24966912282156242,0.03505586606856603,0.49802048381423486,0.2499960815156703,0.0009115727364608084,0.4764387269239056,0.24944486641103364,0.03412879469032637,0.4552115187014448,0.24799399194296898,-0.027065175909130712,0.5261502339613333,0.24931616526376751,-0.0863323420891733,0.08640475312294084,0.0789389717607045,-0.22247575020592822,0.0667260457827629,0.06227368059695953,-0.2554145939880651
14.0,0.0,14.0,0.0,7.0,0.0,7.0,0.0,,,,right,0.687496899990947,498.16794669999217,rn14,498.16794669999217,None,487.1115472999954,489.1283604999917,False,3.0,['p'],True,0.16,0.2,0.2,2.0,2.0,0.8198746470064713,-0.2,wait_cost,0.0,2.0,494.93723959999625,None,rn14,1,2023-03-30_11h23.48.840,threat_forest,2021.2.3,60.09442035514424,False,65.0,0.3,0.2839285714285714,-1.5000000000000002,-1.3673469387755102,0,0,0,-0.3746979585556538,-0.2,0.0,0.16,0.2,0.8,-1.8000000000000005,-1.5600000000000005,1.4399999999999995,1.4399999999999995,1.0,2.0,-1.0,3.0,0,0,0,0.5209537543323275,0.24956094017938052,-0.03842372806338634,0.5621756914864422,0.24613418338818271,-0.06823126734567153,0.6496315388832757,0.22761040257142276,-0.0911882189192003,0.5181900296436696,0.24966912282156242,0.03505586606856603,0.49802048381423486,0.2499960815156703,0.0009115727364608084,0.4764387269239056,0.24944486641103364,0.03412879469032637,0.4552115187014448,0.24799399194296898,-0.027065175909130712,0.5261502339613333,0.24931616526376751,-0.0863323420891733,0.08640475312294084,0.0789389717607045,-0.22247575020592822,0.03223913500660589,0.031199773180631735,-0.31625489246444194
15.0,0.0,15.0,0.0,0.0,0.0,0.0,0.0,502.62677649999387,506.1264070999896,None,left,1.579974799999036,509.0747535999981,rn14,509.0747535999981,None,502.62677649999387,506.1264070999896,True,4.0,['p'],True,0.2222222222222222,0.3333333333333333,0.3333333333333333,2.0,2.0,0.9656336071428248,0.0156420001646662,unsucc_cost,0.0,2.0,,,rn14,1,2023-03-30_11h23.48.840,threat_forest,2021.2.3,60.09442035514424,True,63.0,0.2666666666666666,0.2833333333333333,-1.5022222222222226,-1.5011111111111113,1,0,1,0.4574088975439841,0.0156420001646662,0.2222222222222222,0.2222222222222222,0.3333333333333333,0.6666666666666667,-1.666666666666667,-1.4444444444444446,2.555555555555556,2.555555555555556,1.0,2.0,-1.0,4.0,0,0,1,0.5209537543323275,0.24956094017938052,-0.03842372806338634,0.5206747373135173,0.2495725552370171,-0.04362490220874249,0.6496315388832757,0.22761040257142276,-0.0911882189192003,0.543067177742504,0.24814521820129554,-0.0052175163348566755,0.5084393553810287,0.24992877728075272,-3.5173851215652974e-05,0.6467545017727171,0.22846311620944162,-0.20318237765325353,0.4906485651887838,0.24991255066697157,-0.008606248948302309,0.5261502339613333,0.24931616526376751,-0.0863323420891733,0.4287059738133702,0.24491716183010015,0.12397108426832687,0.6715808496891785,0.22056001201993955,0.05449775528554546
15.0,0.0,15.0,0.0,1.0,0.0,1.0,0.0,,,,left,1.4188626000104705,515.2552485999913,rn14,510.67286789999343,512.6873619999969,515.2552485999913,None,False,2.0,['p'],False,0.16,0.2,0.2,2.0,2.0,0.8198746470064713,-0.0035317610797812,wait_cost,1.0,1.0,512.6873619999969,None,rn14,1,2023-03-30_11h23.48.840,threat_forest,2021.2.3,60.09442035514424,False,63.0,0.2666666666666666,0.2833333333333333,-1.5022222222222226,-1.5011111111111113,0,0,0,0.3498555647444361,-0.0035317610797812,0.16,0.16,0.2,0.8,-1.8000000000000005,-1.5600000000000005,0.4399999999999997,0.4399999999999997,0.0,2.0,-1.0,2.0,0,0,0,0.604277725972614,0.23912615586598046,-0.13458235189442247,0.5621756914864422,0.24613418338818271,-0.06823126734567153,0.6496315388832757,0.22761040257142276,-0.0911882189192003,0.5181900296436696,0.24966912282156242,0.03505586606856603,0.49802048381423486,0.2499960815156703,0.0009115727364608084,0.4764387269239056,0.24944486641103364,0.03412879469032637,0.4552115187014448,0.24799399194296898,-0.027065175909130712,0.5261502339613333,0.24931616526376751,-0.0863323420891733,0.29586389576535865,0.20832845094790367,0.04759934496130802,0.5864401659001808,0.2425280977191492,0.0975095617181106
15.0,0.0,15.0,0.0,2.0,0.0,2.0,0.0,,,,left,0.6888353999966057,522.3785568000021,rn14,522.3785568000021,None,516.7008533999906,518.7150865000003,True,1.0,['p'],True,0.2222222222222222,0.3333333333333333,0.3333333333333333,2.0,2.0,0.9656336071428248,0.0504359153923011,unsucc_cost,0.0,0.0,518.7150865000003,None,rn14,1,2023-03-30_11h23.48.840,threat_forest,2021.2.3,60.09442035514424,True,63.0,0.2666666666666666,0.2833333333333333,-1.5022222222222226,-1.5011111111111113,1,0,1,-0.372752933465933,0.0504359153923011,1.0,0.2222222222222222,0.3333333333333333,0.6666666666666667,-1.666666666666667,-1.4444444444444446,-0.4444444444444446,0.0,1.0,2.0,-1.0,1.0,1,0,1,0.5209537543323275,0.24956094017938052,-0.03842372806338634,0.5206747373135173,0.2495725552370171,-0.04362490220874249,0.6496315388832757,0.22761040257142276,-0.0911882189192003,0.543067177742504,0.24814521820129554,-0.0052175163348566755,0.5084393553810287,0.24992877728075272,-3.5173851215652974e-05,0.6467545017727171,0.22846311620944162,-0.20318237765325353,0.4906485651887838,0.24991255066697157,-0.008606248948302309,0.9999999469966782,5.3003318989656325e-08,-0.12157417971934999,0.9990538002083198,0.0009453044976344699,-0.3852721942509656,0.7989342997153347,0.16063828445370237,-0.06282433560909367
16.0,0.0,16.0,0.0,0.0,0.0,0.0,0.0,526.9525365000009,530.4540140000026,None,left,1.5593815999891376,533.50186389999,rn14,533.50186389999,None,526.9525365000009,530.4540140000026,True,4.0,['p'],True,0.4444444444444445,0.6666666666666666,0.3333333333333333,1.0,2.0,0.9656336071428248,0.064046602155505,succ_gain,0.0,6.0,,,rn14,1,2023-03-30_11h23.48.840,threat_forest,2021.2.3,60.09442035514424,True,1.0,0.4833333333333333,0.375,-0.7877777777777778,-1.1450000000000002,1,1,1,0.4442893324067536,0.064046602155505,0.4444444444444445,0.4444444444444445,0.6666666666666666,0.6666666666666667,-0.3333333333333335,-0.5555555555555556,3.4444444444444446,3.4444444444444446,1.0,2.0,-1.0,4.0,0,1,1,0.5209537543323275,0.24956094017938052,-0.03842372806338634,0.5206747373135173,0.2495725552370171,-0.04362490220874249,0.6496315388832757,0.22761040257142276,-0.0911882189192003,0.604071194015656,0.23916918657615574,-0.24243390724071645,0.610769510092255,0.23773011563392188,-0.17162974442323753,0.6467545017727171,0.22846311620944162,-0.20318237765325353,0.6155109627477214,0.23665721748509455,-0.13613908074781556,0.5261502339613333,0.24931616526376751,-0.0863323420891733,0.8561998767170572,0.12312164782675322,-0.1302531018249321,0.8374681436379455,0.13611525202955904,-0.11083852939042615
16.0,0.0,16.0,0.0,1.0,0.0,1.0,0.0,,,,right,0.4409217000065837,538.5301283000008,rn14,538.5301283000008,None,526.9525365000009,530.4540140000026,False,6.0,['p'],True,0.4444444444444445,0.6666666666666666,0.3333333333333333,1.0,2.0,0.9656336071428248,-0.0704457173777337,wait_cost,0.0,5.0,537.0978211000038,None,rn14,1,2023-03-30_11h23.48.840,threat_forest,2021.2.3,60.09442035514424,False,1.0,0.4833333333333333,0.375,-0.7877777777777778,-1.1450000000000002,1,1,0,-0.818887970304816,-0.0704457173777337,0.4444444444444445,0.4444444444444445,0.6666666666666666,0.6666666666666667,-0.3333333333333335,-0.5555555555555556,5.444444444444445,5.444444444444445,1.0,2.0,1.0,6.0,0,1,1,0.5209537543323275,0.24956094017938052,-0.03842372806338634,0.5206747373135173,0.2495725552370171,-0.04362490220874249,0.2658186319306174,0.19515908684915237,-0.08114571970098605,0.604071194015656,0.23916918657615574,-0.24243390724071645,0.610769510092255,0.23773011563392188,-0.17162974442323753,0.6467545017727171,0.22846311620944162,-0.20318237765325353,0.6155109627477214,0.23665721748509455,-0.13613908074781556,0.5261502339613333,0.24931616526376751,-0.0863323420891733,0.8561998767170572,0.12312164782675322,-0.1302531018249321,0.2832723480575196,0.20302912488349908,0.02017363918239079
16.0,0.0,16.0,0.0,2.0,0.0,2.0,0.0,,,,right,1.5699776000110433,543.0962318999955,rn14,538.9963397999963,541.010804199992,543.0962318999955,None,True,5.0,['p'],False,0.27,0.3,0.1,1.0,2.0,0.7963326591781347,0.0041028475611568,unsucc_cost,1.0,3.0,541.010804199992,None,rn14,1,2023-03-30_11h23.48.840,threat_forest,2021.2.3,60.09442035514424,True,1.0,0.4833333333333333,0.375,-0.7877777777777778,-1.1450000000000002,1,0,1,0.4510613517495451,0.0041028475611568,0.27,0.27,0.3,0.9,-1.1,-1.02,3.98,3.98,0.0,2.0,-1.0,5.0,0,0,1,0.604277725972614,0.23912615586598046,-0.13458235189442247,0.5927715252968654,0.2413934440940931,-0.10215789518521157,0.6496315388832757,0.22761040257142276,-0.0911882189192003,0.5368631269702175,0.2486411098699776,0.007887788641517623,0.5525292614244713,0.24724067669419955,-0.03784780274102717,0.6467545017727171,0.22846311620944162,-0.20318237765325353,0.5179419501254551,0.2496780864256957,-0.010862087276569898,0.5261502339613333,0.24931616526376751,-0.0863323420891733,0.5394622377760943,0.24844273178970297,0.13133001830484842,0.6212911954227016,0.23528844591293202,0.08333488549043244
16.0,0.0,16.0,0.0,3.0,0.0,3.0,0.0,,,,left,1.5479263000015635,548.2551107000036,rn14,538.9963397999963,541.010804199992,548.2551107000036,None,False,3.0,['p'],False,0.27,0.3,0.1,1.0,2.0,0.7963326591781347,-0.0161841808487654,wait_cost,1.0,2.0,546.7054938999936,None,rn14,1,2023-03-30_11h23.48.840,threat_forest,2021.2.3,60.09442035514424,False,1.0,0.4833333333333333,0.375,-0.7877777777777778,-1.1450000000000002,1,0,0,0.4369161642160405,-0.0161841808487654,0.27,0.27,0.3,0.9,-1.1,-1.02,1.98,1.98,0.0,2.0,-1.0,3.0,0,0,1,0.604277725972614,0.23912615586598046,-0.13458235189442247,0.5927715252968654,0.2413934440940931,-0.10215789518521157,0.6496315388832757,0.22761040257142276,-0.0911882189192003,0.5368631269702175,0.2486411098699776,0.007887788641517623,0.5525292614244713,0.24724067669419955,-0.03784780274102717,0.6467545017727171,0.22846311620944162,-0.20318237765325353,0.5179419501254551,0.2496780864256957,-0.010862087276569898,0.5261502339613333,0.24931616526376751,-0.0863323420891733,0.5394622377760943,0.24844273178970297,0.13133001830484842,0.5268994908186722,0.24927641739369616,0.1107222477737339
16.0,0.0,16.0,0.0,4.0,0.0,4.0,0.0,,,,left,0.6661375999974553,553.0166809999937,rn14,553.0166809999937,None,549.819699899992,551.8340300999989,True,2.0,['p'],True,0.4444444444444445,0.6666666666666666,0.3333333333333333,1.0,2.0,0.9656336071428248,0.0872222222222222,unsucc_cost,0.0,0.0,551.8340300999989,None,rn14,1,2023-03-30_11h23.48.840,threat_forest,2021.2.3,60.09442035514424,True,1.0,0.4833333333333333,0.375,-0.7877777777777778,-1.1450000000000002,1,1,1,-0.4062590231791671,0.0872222222222222,0.4444444444444445,0.4444444444444445,0.6666666666666666,0.6666666666666667,-0.3333333333333335,-0.5555555555555556,1.4444444444444444,1.4444444444444444,1.0,2.0,-1.0,2.0,0,1,1,0.5209537543323275,0.24956094017938052,-0.03842372806338634,0.5206747373135173,0.2495725552370171,-0.04362490220874249,0.6496315388832757,0.22761040257142276,-0.0911882189192003,0.604071194015656,0.23916918657615574,-0.24243390724071645,0.610769510092255,0.23773011563392188,-0.17162974442323753,0.6467545017727171,0.22846311620944162,-0.20318237765325353,0.6155109627477214,0.23665721748509455,-0.13613908074781556,0.5261502339613333,0.24931616526376751,-0.0863323420891733,0.8561998767170572,0.12312164782675322,-0.1302531018249321,0.8891403417690014,0.09856979440790489,-0.18434962078710462
17.0,0.0,17.0,0.0,0.0,0.0,0.0,0.0,556.5869636999996,560.0930032000033,None,right,0.9050790999899618,563.8238455999963,rn14,556.5869636999996,560.0930032000033,563.8238455999963,None,True,5.0,['r'],False,0.4081632653061224,0.5714285714285714,0.2857142857142857,2.0,1.0,0.9885754083994552,-0.0004231906775603,succ_gain,1.0,6.0,,,rn14,1,2023-03-30_11h23.48.840,threat_forest,2021.2.3,60.09442035514424,True,35.0,0.5357142857142857,0.5095238095238095,-0.7806122448979592,-0.7841950113378685,0,0,1,-0.0997329357978319,-0.0004231906775603,0.4081632653061224,0.4081632653061224,0.5714285714285714,0.7142857142857143,-1.1428571428571428,-1.0612244897959184,3.938775510204081,3.938775510204081,0.0,1.0,-1.0,5.0,0,0,0,0.604277725972614,0.23912615586598046,-0.13458235189442247,0.5355594853333551,0.2487355230028269,-0.049615039893486035,0.6496315388832757,0.22761040257142276,-0.0911882189192003,0.5868836611979354,0.24245122941684233,-0.1556968735514035,0.5492147604639318,0.2475779073524778,-0.03310408972837786,0.4764387269239056,0.24944486641103364,0.03412879469032637,0.5957065639719539,0.2408402536126823,-0.09589305784132884,0.5261502339613333,0.24931616526376751,-0.0863323420891733,0.809370101007004,0.15429014060291615,-0.06519500200398226,0.600756660860608,0.2398480952922204,0.09226232501281983
17.0,0.0,17.0,0.0,1.0,0.0,1.0,0.0,,,,right,1.274366600002395,568.0193101999903,rn14,568.0193101999903,None,564.7557338999904,566.7701871000027,False,6.0,['r'],True,0.5,0.5,0.0,0.0,1.0,0.6309297535714574,-0.0434388067740604,wait_cost,0.0,5.0,566.7701871000027,None,rn14,1,2023-03-30_11h23.48.840,threat_forest,2021.2.3,60.09442035514424,False,35.0,0.5357142857142857,0.5095238095238095,-0.7806122448979592,-0.7841950113378685,1,0,0,0.242449270860333,-0.0434388067740604,0.5,0.5,0.5,1.0,-0.5,-0.5,5.5,5.5,1.0,1.0,1.0,6.0,0,0,1,0.5209537543323275,0.24956094017938052,-0.03842372806338634,0.6226643697389012,0.23495345239655815,-0.14824505333887528,0.2658186319306174,0.19515908684915237,-0.08114571970098605,0.5738501238249977,0.2445461592110325,-0.10033257608312152,0.5983150907935421,0.24033414292225758,-0.13499974703201723,0.6467545017727171,0.22846311620944162,-0.20318237765325353,0.6450897182457285,0.22894897365937508,-0.21030199689685425,0.5261502339613333,0.24931616526376751,-0.0863323420891733,0.909032835885982,0.08269213916707134,-0.21464175125314955,0.39827511175212066,0.23965204711095647,0.09187847789298254
17.0,0.0,17.0,0.0,2.0,0.0,2.0,0.0,,,,right,0.819621399990865,572.9158211000031,rn14,569.3180107999942,571.3325025999948,572.9158211000031,None,True,5.0,['r'],False,0.4081632653061224,0.5714285714285714,0.2857142857142857,2.0,1.0,0.9885754083994552,-0.0007263192497883,unsucc_cost,1.0,3.0,571.3325025999948,None,rn14,1,2023-03-30_11h23.48.840,threat_forest,2021.2.3,60.09442035514424,True,35.0,0.5357142857142857,0.5095238095238095,-0.7806122448979592,-0.7841950113378685,0,0,1,-0.1989127526716994,-0.0007263192497883,0.4081632653061224,0.4081632653061224,0.5714285714285714,0.7142857142857143,-1.1428571428571428,-1.0612244897959184,3.938775510204081,3.938775510204081,0.0,1.0,-1.0,5.0,0,0,0,0.604277725972614,0.23912615586598046,-0.13458235189442247,0.5355594853333551,0.2487355230028269,-0.049615039893486035,0.6496315388832757,0.22761040257142276,-0.0911882189192003,0.5868836611979354,0.24245122941684233,-0.1556968735514035,0.5492147604639318,0.2475779073524778,-0.03310408972837786,0.4764387269239056,0.24944486641103364,0.03412879469032637,0.5957065639719539,0.2408402536126823,-0.09589305784132884,0.5261502339613333,0.24931616526376751,-0.0863323420891733,0.809370101007004,0.15429014060291615,-0.06519500200398226,0.5993677372886602,0.2401260527861318,0.09280654420826062
