miniblock.thisRepN,miniblock.thisTrialN,miniblock.thisN,miniblock.thisIndex,day.thisRepN,day.thisTrialN,day.thisN,day.thisIndex,forest.started,fixation_forest.started,fixation_forest.stopped,key_resp.keys,key_resp.rt,key_resp.started,Subject_ID,weather_left.started,weather_left.stopped,weather_right.started,weather_right.stopped,foraging T/F,in_LP,p/r heuristic,good_weather.T/F,p_succ_correct,p_succ_uncorrected,r_threat,n_oponents,gain_if_succ,weather_entropy,OP_value_difference,action_outcome,forest_side_L=0_R=1,out_LP,fixation_day.started,fixation_day.stopped,participant,session,date,expName,psychopyVersion,frameRate,foraging T/F NaNs,fora_NR,forest_mean_p,mvt_cutoff_p,forest_mean_ev,mvt_cutoff_ev,mvt_policy_eg,mvt_policy_p,fora_response,logRT,optimal policy values,multi-heuristic policy,** $\mathit{p}$ success,* $\mathit{p}$ gain,* $\mathit{r}$ predator,expected gain naive,expected gain correct,expected state no bounds,expected state with bounds,weather type,gain magnitude,win stay lose shift,continuous energy state,** binary energy state,** wait when safe,$\mathit{p}$ success based MVT,marginal value,$\mathit{OP}$ values + cap,win stay lose shift fit,win stay lose shift_uncertain,win stay lose shift_uncertain_fit,** wait when safe fit,** wait when safe_uncertain,** wait when safe_uncertain_fit,** binary energy state fit,** binary energy state_uncertain,** binary energy state_uncertain_fit,weather type fit,weather type_uncertain,weather type_uncertain_fit,* $\mathit{r}$ predator fit,* $\mathit{r}$ predator_uncertain,* $\mathit{r}$ predator_uncertain_fit,* $\mathit{p}$ gain fit,* $\mathit{p}$ gain_uncertain,* $\mathit{p}$ gain_uncertain_fit,expected gain naive fit,expected gain naive_uncertain,expected gain naive_uncertain_fit,** $\mathit{p}$ success fit,** $\mathit{p}$ success_uncertain,** $\mathit{p}$ success_uncertain_fit,marginal value fit,marginal value_uncertain,marginal value_uncertain_fit,multi-heuristic policy fit,multi-heuristic policy_uncertain,multi-heuristic policy_uncertain_fit,optimal policy values fit,optimal policy values_uncertain,optimal policy values_uncertain_fit
0.0,0.0,0.0,0.0,0.0,0.0,0.0,0.0,37.854533600155264,41.35452349996194,,left,1.1693091997876763,43.63273950014264,lb11,37.854533600155264,41.35452349996194,43.63273950014264,,False,5.0,['r'],False,0.3061224489795918,0.4285714285714285,0.2857142857142857,2.0,1.0,0.9885754083994552,-0.0051042852935925,wait_cost,1.0,4.0,,,lb11,1,2022-05-13_14h22.34.969,threat_forest,2021.2.3,59.94758171456369,False,36.0,0.4142857142857142,0.4142857142857142,-1.083673469387755,-1.083673469387755,0,0,0.0,0.1564131469067899,-0.0051042852935925,0.3061224489795918,0.3061224489795918,0.4285714285714285,0.2857142857142857,-0.5714285714285716,-0.3673469387755101,4.63265306122449,4.63265306122449,0.0,1.0,,5.0,0,1,0,0,-0.0051042852935925,,,,0.7097872131404734,0.20598932520275356,-0.13953350706629486,0.6109204921953818,0.23769664441113425,-0.17416113146920492,0.6312599005966667,0.23277083849535318,-0.1756115405903717,0.6743250227984908,0.21961078642630566,-0.20238886897268427,0.65417107104639,0.22623128085240896,-0.12413078046053427,0.5198281877402757,0.24960684297093638,-0.10824797623976934,0.6064420990282551,0.23867007955445915,-0.13065340590065455,0.5093159334346684,0.24991321338424083,-0.1208462662182882,0.6419414117860158,0.22985263562019265,-0.14434219211621016,0.6429572276845877,0.22956323105273696,-0.1366804381001206
0.0,0.0,0.0,0.0,1.0,0.0,1.0,0.0,,,,right,1.576432100031525,48.96234309999272,lb11,48.96234309999272,,44.82337650004774,46.82285270001739,False,4.0,['r'],True,0.4,0.4,0.0,0.0,1.0,0.6126016192893442,0.0646553318748115,wait_cost,0.0,3.0,46.82285270001739,,lb11,1,2022-05-13_14h22.34.969,threat_forest,2021.2.3,59.94758171456369,False,36.0,0.4142857142857142,0.4142857142857142,-1.083673469387755,-1.083673469387755,1,0,0.0,0.4551641290034571,0.0646553318748115,0.4,0.4,0.4,0.0,0.2,0.2,4.2,4.2,1.0,1.0,-1.0,4.0,0,1,0,1,0.0646553318748115,0.639403900541974,0.23056655251368344,-0.169489951135535,0.7097872131404734,0.20598932520275356,-0.13953350706629486,0.6109204921953818,0.23769664441113425,-0.17416113146920492,0.6590788463418572,0.22469392064654378,-0.19085252303785566,0.5903254665787641,0.2418413100873286,-0.1429041659932727,0.6166529185788409,0.23639209658703833,-0.1052720810862694,0.696773428230644,0.2112802179423596,-0.18504774380392003,0.738131311946515,0.19329347827063154,-0.1973549482248374,0.771427704558638,0.17632700119802872,-0.24132366678844375,0.7428514143167994,0.19102319056433023,-0.17604843798699193,0.7383556814822149,0.19318656910514895,-0.18945148691349045
0.0,0.0,0.0,0.0,2.0,0.0,2.0,0.0,,,,right,1.65861380007118,54.11679140012711,lb11,54.11679140012711,,44.82337650004774,46.82285270001739,False,3.0,['r'],True,0.4,0.4,0.0,0.0,1.0,0.6126016192893442,0.0757459364998027,wait_cost,0.0,2.0,52.55660609994084,,lb11,1,2022-05-13_14h22.34.969,threat_forest,2021.2.3,59.94758171456369,False,36.0,0.4142857142857142,0.4142857142857142,-1.083673469387755,-1.083673469387755,1,0,0.0,0.5059821933133758,0.0757459364998027,0.4,0.4,0.4,0.0,0.2,0.2,3.2,3.2,1.0,1.0,-1.0,3.0,0,1,0,1,0.0757459364998027,0.639403900541974,0.23056655251368344,-0.169489951135535,0.7097872131404734,0.20598932520275356,-0.13953350706629486,0.6109204921953818,0.23769664441113425,-0.17416113146920492,0.6590788463418572,0.22469392064654378,-0.19085252303785566,0.5903254665787641,0.2418413100873286,-0.1429041659932727,0.6166529185788409,0.23639209658703833,-0.1052720810862694,0.696773428230644,0.2112802179423596,-0.18504774380392003,0.738131311946515,0.19329347827063154,-0.1973549482248374,0.771427704558638,0.17632700119802872,-0.24132366678844375,0.7428514143167994,0.19102319056433023,-0.17604843798699193,0.7519160690260599,0.1865382941664574,-0.19909603433842699
0.0,0.0,0.0,0.0,3.0,0.0,3.0,0.0,,,,left,0.8348014000803232,59.08061299985275,lb11,55.81059439992532,57.82316430006176,59.08061299985275,,False,2.0,['r'],False,0.3061224489795918,0.4285714285714285,0.2857142857142857,2.0,1.0,0.9885754083994552,-0.0018730078453705,wait_cost,1.0,1.0,57.82316430006176,,lb11,1,2022-05-13_14h22.34.969,threat_forest,2021.2.3,59.94758171456369,False,36.0,0.4142857142857142,0.4142857142857142,-1.083673469387755,-1.083673469387755,0,0,0.0,-0.1805614266358844,-0.0018730078453705,0.3061224489795918,0.3061224489795918,0.4285714285714285,0.2857142857142857,-0.5714285714285716,-0.3673469387755101,1.6326530612244898,1.6326530612244898,0.0,1.0,-1.0,2.0,0,1,0,0,-0.0018730078453705,0.639403900541974,0.23056655251368344,-0.169489951135535,0.7097872131404734,0.20598932520275356,-0.13953350706629486,0.6109204921953818,0.23769664441113425,-0.17416113146920492,0.6312599005966667,0.23277083849535318,-0.1756115405903717,0.6743250227984908,0.21961078642630566,-0.20238886897268427,0.65417107104639,0.22623128085240896,-0.12413078046053427,0.5198281877402757,0.24960684297093638,-0.10824797623976934,0.6064420990282551,0.23867007955445915,-0.13065340590065455,0.5093159334346684,0.24991321338424083,-0.1208462662182882,0.6419414117860158,0.22985263562019265,-0.14434219211621016,0.6477195976333318,0.22817892047504656,-0.13868863558600913
1.0,0.0,1.0,0.0,0.0,0.0,0.0,0.0,70.6157090999186,74.12317690020427,,right,1.431182200089097,75.45355470012873,lb11,70.6157090999186,74.12317690020427,75.45355470012873,,True,5.0,['r'],False,0.5,0.5,0.0,0.0,1.0,0.6309297535714574,0.07495910506875,succ_gain,1.0,6.0,,,lb11,1,2022-05-13_14h22.34.969,threat_forest,2021.2.3,59.94758171456369,True,24.0,0.55,0.4821428571428571,-0.91,-0.9968367346938776,1,1,1.0,0.3585008160815778,0.07495910506875,0.5,0.5,0.5,0.0,0.5,0.5,5.5,5.5,0.0,1.0,-1.0,5.0,0,1,1,1,0.07495910506875,0.639403900541974,0.23056655251368344,-0.169489951135535,0.7097872131404734,0.20598932520275356,-0.13953350706629486,0.6109204921953818,0.23769664441113425,-0.17416113146920492,0.6312599005966667,0.23277083849535318,-0.1756115405903717,0.5903254665787641,0.2418413100873286,-0.1429041659932727,0.7393460637444645,0.19271346177003074,-0.18634059611551962,0.75485350942814,0.1850496887321609,-0.23760907799199132,0.8428463471337047,0.13245638225707523,-0.28678271539599526,0.771427704558638,0.17632700119802872,-0.24132366678844375,0.8276402812542099,0.14265184609966228,-0.21554613718126586,0.7509697107557163,0.18701420428319213,-0.1984056390504489
1.0,0.0,1.0,0.0,1.0,0.0,1.0,0.0,,,,left,1.081574299838394,81.16029130015522,lb11,81.16029130015522,,76.90663240011781,78.90663419989869,True,6.0,['r'],True,0.36,0.6,0.4,2.0,1.0,0.9801625908629508,-0.1431121019999999,succ_gain,0.0,6.0,78.90663419989869,,lb11,1,2022-05-13_14h22.34.969,threat_forest,2021.2.3,59.94758171456369,True,24.0,0.55,0.4821428571428571,-0.91,-0.9968367346938776,0,0,1.0,0.0784176647801713,-0.1431121019999999,0.36,0.36,0.6,0.4,-0.4000000000000003,-0.3200000000000003,5.68,5.68,1.0,1.0,1.0,6.0,0,1,0,0,-0.1431121019999999,0.6818199380095047,0.21694151014221993,-0.2462349521298497,0.7097872131404734,0.20598932520275356,-0.13953350706629486,0.6109204921953818,0.23769664441113425,-0.17416113146920492,0.6590788463418572,0.22469392064654378,-0.19085252303785566,0.7053306625467521,0.20783931901811176,-0.23388710325116635,0.8333807611807081,0.13885726807457166,-0.28629888616533783,0.5613405789362272,0.24623733337576847,-0.11499987660984168,0.6854571569118096,0.21560564295018836,-0.1645570798386915,0.5093159334346684,0.24991321338424083,-0.1208462662182882,0.7021549635267835,0.2091333707214848,-0.16126054122460431,0.42544047447200495,0.24444087715304022,-0.11509767193761944
1.0,0.0,1.0,0.0,2.0,0.0,2.0,0.0,,,,right,1.0955814998596909,86.33885250007734,lb11,82.28685080027208,84.2896993001923,86.33885250007734,,True,6.0,['r'],False,0.5,0.5,0.0,0.0,1.0,0.6309297535714574,0.0760874999999999,succ_gain,1.0,6.0,84.2896993001923,,lb11,1,2022-05-13_14h22.34.969,threat_forest,2021.2.3,59.94758171456369,True,24.0,0.55,0.4821428571428571,-0.91,-0.9968367346938776,1,1,1.0,0.0912852724114353,0.0760874999999999,0.5,0.5,0.5,0.0,0.5,0.5,6.5,6.5,0.0,1.0,-1.0,6.0,0,1,1,1,0.0760874999999999,0.639403900541974,0.23056655251368344,-0.169489951135535,0.7097872131404734,0.20598932520275356,-0.13953350706629486,0.6109204921953818,0.23769664441113425,-0.17416113146920492,0.6312599005966667,0.23277083849535318,-0.1756115405903717,0.5903254665787641,0.2418413100873286,-0.1429041659932727,0.7393460637444645,0.19271346177003074,-0.18634059611551962,0.75485350942814,0.1850496887321609,-0.23760907799199132,0.8428463471337047,0.13245638225707523,-0.28678271539599526,0.771427704558638,0.17632700119802872,-0.24132366678844375,0.8276402812542099,0.14265184609966228,-0.21554613718126586,0.7523261322577991,0.18633152297981967,-0.1993959940323367
1.0,0.0,1.0,0.0,3.0,0.0,3.0,0.0,,,,left,0.9639975996688008,90.11171380011363,lb11,90.11171380011363,,87.45731149986386,89.45691569987684,True,6.0,['r'],True,0.36,0.6,0.4,2.0,1.0,0.9801625908629508,-0.268305,unsucc_cost,0.0,4.0,89.45691569987684,,lb11,1,2022-05-13_14h22.34.969,threat_forest,2021.2.3,59.94758171456369,True,24.0,0.55,0.4821428571428571,-0.91,-0.9968367346938776,0,0,1.0,-0.036666474344815,-0.268305,0.0,0.36,0.6,0.4,-0.4000000000000003,-0.3200000000000003,5.68,5.68,1.0,1.0,-1.0,6.0,0,0,0,0,-0.84,0.639403900541974,0.23056655251368344,-0.169489951135535,0.2799990094855455,0.20159956417265892,-0.4356261505632659,0.6109204921953818,0.23769664441113425,-0.17416113146920492,0.6590788463418572,0.22469392064654378,-0.19085252303785566,0.7053306625467521,0.20783931901811176,-0.23388710325116635,0.8333807611807081,0.13885726807457166,-0.28629888616533783,0.5613405789362272,0.24623733337576847,-0.11499987660984168,0.6854571569118096,0.21560564295018836,-0.1645570798386915,0.5093159334346684,0.24991321338424083,-0.1208462662182882,0.2745278670563876,0.19916231726585798,-0.16940242097591127,0.24849441375484843,0.18674494008748263,-0.1987962563653623
1.0,0.0,1.0,0.0,4.0,0.0,4.0,0.0,,,,right,1.1165054999291897,93.88703679991886,lb11,91.1081850999035,93.10703800013287,93.88703679991886,,True,4.0,['r'],False,0.5,0.5,0.0,0.0,1.0,0.6309297535714574,0.1425,unsucc_cost,1.0,2.0,93.10703800013287,,lb11,1,2022-05-13_14h22.34.969,threat_forest,2021.2.3,59.94758171456369,True,24.0,0.55,0.4821428571428571,-0.91,-0.9968367346938776,1,1,1.0,0.1102037183308952,0.1425,0.5,0.5,0.5,0.0,0.5,0.5,4.5,4.5,0.0,1.0,-1.0,4.0,0,1,1,1,0.1425,0.639403900541974,0.23056655251368344,-0.169489951135535,0.7097872131404734,0.20598932520275356,-0.13953350706629486,0.6109204921953818,0.23769664441113425,-0.17416113146920492,0.6312599005966667,0.23277083849535318,-0.1756115405903717,0.5903254665787641,0.2418413100873286,-0.1429041659932727,0.7393460637444645,0.19271346177003074,-0.18634059611551962,0.75485350942814,0.1850496887321609,-0.23760907799199132,0.8428463471337047,0.13245638225707523,-0.28678271539599526,0.771427704558638,0.17632700119802872,-0.24132366678844375,0.8276402812542099,0.14265184609966228,-0.21554613718126586,0.8232786250002515,0.1454909306179468,-0.2586427961770903
1.0,0.0,1.0,0.0,5.0,0.0,5.0,0.0,,,,right,1.5347082000225782,98.1760678999126,lb11,91.1081850999035,93.10703800013287,98.1760678999126,,True,2.0,['r'],False,0.5,0.5,0.0,0.0,1.0,0.6309297535714574,0.07,unsucc_cost,1.0,0.0,97.02373320003971,,lb11,1,2022-05-13_14h22.34.969,threat_forest,2021.2.3,59.94758171456369,True,24.0,0.55,0.4821428571428571,-0.91,-0.9968367346938776,1,1,1.0,0.4283402652631408,0.07,0.5,0.5,0.5,0.0,0.5,0.5,2.5,2.5,0.0,1.0,-1.0,2.0,0,1,1,1,0.07,0.639403900541974,0.23056655251368344,-0.169489951135535,0.7097872131404734,0.20598932520275356,-0.13953350706629486,0.6109204921953818,0.23769664441113425,-0.17416113146920492,0.6312599005966667,0.23277083849535318,-0.1756115405903717,0.5903254665787641,0.2418413100873286,-0.1429041659932727,0.7393460637444645,0.19271346177003074,-0.18634059611551962,0.75485350942814,0.1850496887321609,-0.23760907799199132,0.8428463471337047,0.13245638225707523,-0.28678271539599526,0.771427704558638,0.17632700119802872,-0.24132366678844375,0.8276402812542099,0.14265184609966228,-0.21554613718126586,0.7449498354092949,0.18999957813295928,-0.1940748043691577
2.0,0.0,2.0,0.0,0.0,0.0,0.0,0.0,104.08432530006394,107.57701379992068,,left,0.7093698997050524,110.3730498002842,lb11,110.3730498002842,,104.08432530006394,107.57701379992068,True,4.0,['r'],True,0.6,0.6,0.0,0.0,2.0,0.6126016192893442,0.1103326303155006,unsucc_cost,0.0,2.0,,,lb11,1,2022-05-13_14h22.34.969,threat_forest,2021.2.3,59.94758171456369,True,47.0,0.6333333333333333,0.5916666666666667,-0.0777777777777778,-0.493888888888889,1,1,1.0,-0.3433781681813145,0.1103326303155006,0.6,0.6,0.6,0.0,1.4,1.4,5.4,5.4,1.0,2.0,-1.0,4.0,0,1,1,1,0.1103326303155006,0.639403900541974,0.23056655251368344,-0.169489951135535,0.7097872131404734,0.20598932520275356,-0.13953350706629486,0.6109204921953818,0.23769664441113425,-0.17416113146920492,0.6590788463418572,0.22469392064654378,-0.19085252303785566,0.5903254665787641,0.2418413100873286,-0.1429041659932727,0.8333807611807081,0.13885726807457166,-0.28629888616533783,0.8810835166719541,0.10477535332093652,-0.39846462674829236,0.9107512813353251,0.08128338488138864,-0.3620046966316453,0.771427704558638,0.17632700119802872,-0.24132366678844375,0.8886621542793334,0.09894172983094766,-0.2512377029881556,0.7911016318278195,0.16525983994718071,-0.22996435171994964
2.0,0.0,2.0,0.0,1.0,0.0,1.0,0.0,,,,left,0.8198677003383636,114.8623652998358,lb11,114.8623652998358,,104.08432530006394,107.57701379992068,True,2.0,['r'],True,0.6,0.6,0.0,0.0,2.0,0.6126016192893442,0.0858461728395062,unsucc_cost,0.0,0.0,113.1237862999551,,lb11,1,2022-05-13_14h22.34.969,threat_forest,2021.2.3,59.94758171456369,True,47.0,0.6333333333333333,0.5916666666666667,-0.0777777777777778,-0.493888888888889,1,1,1.0,-0.1986122927914817,0.0858461728395062,0.6,0.6,0.6,0.0,1.4,1.4,3.4,3.4,1.0,2.0,-1.0,2.0,0,1,1,1,0.0858461728395062,0.639403900541974,0.23056655251368344,-0.169489951135535,0.7097872131404734,0.20598932520275356,-0.13953350706629486,0.6109204921953818,0.23769664441113425,-0.17416113146920492,0.6590788463418572,0.22469392064654378,-0.19085252303785566,0.5903254665787641,0.2418413100873286,-0.1429041659932727,0.8333807611807081,0.13885726807457166,-0.28629888616533783,0.8810835166719541,0.10477535332093652,-0.39846462674829236,0.9107512813353251,0.08128338488138864,-0.3620046966316453,0.771427704558638,0.17632700119802872,-0.24132366678844375,0.8886621542793334,0.09894172983094766,-0.2512377029881556,0.7638488845843006,0.18038376610362047,-0.2080243109707131
3.0,0.0,3.0,0.0,0.0,0.0,0.0,0.0,120.91242920001967,124.40654679993168,,left,1.1469745002686975,124.98884540004656,lb11,124.98884540004656,,120.91242920001967,124.40654679993168,True,5.0,['r'],True,0.5,0.5,0.0,0.0,2.0,0.6309297535714574,0.0630973775,unsucc_cost,0.0,3.0,,,lb11,1,2022-05-13_14h22.34.969,threat_forest,2021.2.3,59.94758171456369,True,18.0,0.55,0.5916666666666667,-0.4800000000000001,-0.2788888888888889,1,0,1.0,0.1371276062250387,0.0630973775,0.5,0.5,0.5,0.0,1.0,1.0,6.0,6.0,1.0,2.0,-1.0,5.0,0,1,0,1,0.0630973775,0.639403900541974,0.23056655251368344,-0.169489951135535,0.7097872131404734,0.20598932520275356,-0.13953350706629486,0.6109204921953818,0.23769664441113425,-0.17416113146920492,0.6590788463418572,0.22469392064654378,-0.19085252303785566,0.5903254665787641,0.2418413100873286,-0.1429041659932727,0.7393460637444645,0.19271346177003074,-0.18634059611551962,0.8337555090742133,0.13860726016261274,-0.33067147825803467,0.8428463471337047,0.13245638225707523,-0.28678271539599526,0.771427704558638,0.17632700119802872,-0.24132366678844375,0.8276402812542099,0.14265184609966228,-0.21554613718126586,0.7364129181352501,0.19410893213877553,-0.18811342943198522
3.0,0.0,3.0,0.0,1.0,0.0,1.0,0.0,,,,right,0.9508696999400854,131.57491330010816,lb11,126.15792299993336,128.15726230014116,131.57491330010816,,True,3.0,['r'],False,0.36,0.6,0.4,2.0,2.0,0.9801625908629508,0.02233521,unsucc_cost,1.0,1.0,128.15726230014116,,lb11,1,2022-05-13_14h22.34.969,threat_forest,2021.2.3,59.94758171456369,True,18.0,0.55,0.5916666666666667,-0.4800000000000001,-0.2788888888888889,0,0,1.0,-0.0503782395568086,0.02233521,0.36,0.36,0.6,0.4,0.1999999999999997,0.0399999999999998,3.04,3.04,0.0,2.0,-1.0,3.0,0,1,0,0,0.02233521,0.639403900541974,0.23056655251368344,-0.169489951135535,0.7097872131404734,0.20598932520275356,-0.13953350706629486,0.6109204921953818,0.23769664441113425,-0.17416113146920492,0.6312599005966667,0.23277083849535318,-0.1756115405903717,0.7053306625467521,0.20783931901811176,-0.23388710325116635,0.8333807611807081,0.13885726807457166,-0.28629888616533783,0.696773428230644,0.21128021794235963,-0.18504774380391997,0.6854571569118096,0.21560564295018836,-0.1645570798386915,0.5093159334346684,0.24991321338424083,-0.1208462662182882,0.7021549635267835,0.2091333707214848,-0.16126054122460431,0.6824207990108703,0.2167226520882357,-0.15530806315004786
3.0,0.0,3.0,0.0,2.0,0.0,2.0,0.0,,,,left,0.9398912000469865,135.11767560010776,lb11,135.11767560010776,,132.56266569998115,134.5741071999073,True,1.0,['r'],True,0.5,0.5,0.0,0.0,2.0,0.6309297535714574,0.2729625,succ_gain,0.0,3.0,134.5741071999073,,lb11,1,2022-05-13_14h22.34.969,threat_forest,2021.2.3,59.94758171456369,True,18.0,0.55,0.5916666666666667,-0.4800000000000001,-0.2788888888888889,1,0,1.0,-0.0619911550478796,0.2729625,1.0,0.5,0.5,0.0,1.0,1.0,2.0,2.0,1.0,2.0,-1.0,1.0,1,1,0,1,0.625,0.639403900541974,0.23056655251368344,-0.169489951135535,0.7097872131404734,0.20598932520275356,-0.13953350706629486,0.8837195114307325,0.10275933654735994,-0.24787625648011619,0.6590788463418572,0.22469392064654378,-0.19085252303785566,0.5903254665787641,0.2418413100873286,-0.1429041659932727,0.7393460637444645,0.19271346177003074,-0.18634059611551962,0.8337555090742133,0.13860726016261274,-0.33067147825803467,0.8428463471337047,0.13245638225707523,-0.28678271539599526,0.771427704558638,0.17632700119802872,-0.24132366678844375,0.9838532785804697,0.015886004806930497,-0.3190569889655623,0.9151989514182256,0.07760983074120605,-0.3571168353910771
3.0,0.0,3.0,0.0,3.0,0.0,3.0,0.0,,,,right,0.94557850016281,139.6065376000479,lb11,136.07953460002318,138.0907339998521,139.6065376000479,,True,3.0,['r'],False,0.36,0.6,0.4,2.0,2.0,0.9801625908629508,-0.044112,figh_cost,1.0,0.0,138.0907339998521,,lb11,1,2022-05-13_14h22.34.969,threat_forest,2021.2.3,59.94758171456369,True,18.0,0.55,0.5916666666666667,-0.4800000000000001,-0.2788888888888889,0,0,1.0,-0.0559583693032427,-0.044112,0.36,0.36,0.6,0.4,0.1999999999999997,0.0399999999999998,3.04,3.04,0.0,2.0,1.0,3.0,0,1,0,0,-0.044112,0.6818199380095047,0.21694151014221993,-0.2462349521298497,0.7097872131404734,0.20598932520275356,-0.13953350706629486,0.6109204921953818,0.23769664441113425,-0.17416113146920492,0.6312599005966667,0.23277083849535318,-0.1756115405903717,0.7053306625467521,0.20783931901811176,-0.23388710325116635,0.8333807611807081,0.13885726807457166,-0.28629888616533783,0.696773428230644,0.21128021794235963,-0.18504774380391997,0.6854571569118096,0.21560564295018836,-0.1645570798386915,0.5093159334346684,0.24991321338424083,-0.1208462662182882,0.7021549635267835,0.2091333707214848,-0.16126054122460431,0.5834694909798583,0.2430328440755634,-0.11714028327918308
4.0,0.0,4.0,0.0,0.0,0.0,0.0,0.0,143.42582210013643,146.94086119998246,,left,1.364212800282985,149.03438099985942,lb11,143.42582210013643,146.94086119998246,149.03438099985942,,False,4.0,['r'],False,0.5,0.5,0.0,0.0,1.0,0.6309297535714574,0.0773127614393294,wait_cost,1.0,3.0,,,lb11,1,2022-05-13_14h22.34.969,threat_forest,2021.2.3,59.94758171456369,False,27.0,0.5357142857142857,0.5428571428571429,-0.7806122448979592,-0.6303061224489797,1,0,0.0,0.3105775591903459,0.0773127614393294,0.5,0.5,0.5,0.0,0.5,0.5,4.5,4.5,0.0,1.0,-1.0,4.0,0,1,0,1,0.0773127614393294,0.639403900541974,0.23056655251368344,-0.169489951135535,0.7097872131404734,0.20598932520275356,-0.13953350706629486,0.6109204921953818,0.23769664441113425,-0.17416113146920492,0.6312599005966667,0.23277083849535318,-0.1756115405903717,0.5903254665787641,0.2418413100873286,-0.1429041659932727,0.7393460637444645,0.19271346177003074,-0.18634059611551962,0.75485350942814,0.1850496887321609,-0.23760907799199132,0.8428463471337047,0.13245638225707523,-0.28678271539599526,0.771427704558638,0.17632700119802872,-0.24132366678844375,0.8276402812542099,0.14265184609966228,-0.21554613718126586,0.7537933724195404,0.18558892411591654,-0.20047327047271618
4.0,0.0,4.0,0.0,1.0,0.0,1.0,0.0,,,,right,1.101999199949205,154.42952590016648,lb11,143.42582210013643,146.94086119998246,154.42952590016648,,True,3.0,['r'],False,0.5,0.5,0.0,0.0,1.0,0.6309297535714574,0.0991686602835485,succ_gain,1.0,4.0,152.4412219002843,,lb11,1,2022-05-13_14h22.34.969,threat_forest,2021.2.3,59.94758171456369,True,27.0,0.5357142857142857,0.5428571428571429,-0.7806122448979592,-0.6303061224489797,1,0,1.0,0.0971259847315526,0.0991686602835485,0.5,0.5,0.5,0.0,0.5,0.5,3.5,3.5,0.0,1.0,-1.0,3.0,0,1,0,1,0.0991686602835485,0.639403900541974,0.23056655251368344,-0.169489951135535,0.7097872131404734,0.20598932520275356,-0.13953350706629486,0.6109204921953818,0.23769664441113425,-0.17416113146920492,0.6312599005966667,0.23277083849535318,-0.1756115405903717,0.5903254665787641,0.2418413100873286,-0.1429041659932727,0.7393460637444645,0.19271346177003074,-0.18634059611551962,0.75485350942814,0.1850496887321609,-0.23760907799199132,0.8428463471337047,0.13245638225707523,-0.28678271539599526,0.771427704558638,0.17632700119802872,-0.24132366678844375,0.8276402812542099,0.14265184609966228,-0.21554613718126586,0.7789724297359595,0.1721743834472152,-0.21993353269955068
4.0,0.0,4.0,0.0,2.0,0.0,2.0,0.0,,,,right,1.61187560018152,160.91354259988293,lb11,160.91354259988293,,155.56007659994066,157.57449229992926,False,4.0,['r'],True,0.4081632653061224,0.5714285714285714,0.2857142857142857,2.0,1.0,0.9885754083994552,0.0111203127993457,wait_cost,0.0,3.0,157.57449229992926,,lb11,1,2022-05-13_14h22.34.969,threat_forest,2021.2.3,59.94758171456369,False,27.0,0.5357142857142857,0.5428571428571429,-0.7806122448979592,-0.6303061224489797,0,0,0.0,0.4773984700033183,0.0111203127993457,0.4081632653061224,0.4081632653061224,0.5714285714285714,0.2857142857142857,-0.1428571428571428,-0.0612244897959184,3.938775510204081,3.938775510204081,1.0,1.0,1.0,4.0,0,1,0,0,0.0111203127993457,0.6818199380095047,0.21694151014221993,-0.2462349521298497,0.7097872131404734,0.20598932520275356,-0.13953350706629486,0.6109204921953818,0.23769664441113425,-0.17416113146920492,0.6590788463418572,0.22469392064654378,-0.19085252303785566,0.6743250227984908,0.21961078642630566,-0.20238886897268427,0.8096473386157174,0.15411852568820333,-0.2579736535338863,0.6218668735740133,0.23514846512529541,-0.13722000435526255,0.7481540615851978,0.1884195617187698,-0.2045193841228694,0.5093159334346684,0.24991321338424083,-0.1208462662182882,0.7506952711400674,0.18715188102800812,-0.17920956202118668,0.6665674880209098,0.22225527193440406,-0.1472819789428539
4.0,0.0,4.0,0.0,3.0,0.0,3.0,0.0,,,,right,0.9533724999055266,165.53256910014898,lb11,162.54969649994746,164.5577869000845,165.53256910014898,,True,3.0,['r'],False,0.5,0.5,0.0,0.0,1.0,0.6309297535714574,0.1629165462519868,succ_gain,1.0,4.0,164.5577869000845,,lb11,1,2022-05-13_14h22.34.969,threat_forest,2021.2.3,59.94758171456369,True,27.0,0.5357142857142857,0.5428571428571429,-0.7806122448979592,-0.6303061224489797,1,0,1.0,-0.0477495808632793,0.1629165462519868,0.5,0.5,0.5,0.0,0.5,0.5,3.5,3.5,0.0,1.0,-1.0,3.0,0,1,0,1,0.1629165462519868,0.639403900541974,0.23056655251368344,-0.169489951135535,0.7097872131404734,0.20598932520275356,-0.13953350706629486,0.6109204921953818,0.23769664441113425,-0.17416113146920492,0.6312599005966667,0.23277083849535318,-0.1756115405903717,0.5903254665787641,0.2418413100873286,-0.1429041659932727,0.7393460637444645,0.19271346177003074,-0.18634059611551962,0.75485350942814,0.1850496887321609,-0.23760907799199132,0.8428463471337047,0.13245638225707523,-0.28678271539599526,0.771427704558638,0.17632700119802872,-0.24132366678844375,0.8276402812542099,0.14265184609966228,-0.21554613718126586,0.8416015104209982,0.13330840807809263,-0.27631578916767585
4.0,0.0,4.0,0.0,4.0,0.0,4.0,0.0,,,,right,0.738092599902302,171.32985740015283,lb11,162.54969649994746,164.5577869000845,171.32985740015283,,True,4.0,['r'],False,0.5,0.5,0.0,0.0,1.0,0.6309297535714574,0.1014160766347355,unsucc_cost,1.0,2.0,168.50792020000517,,lb11,1,2022-05-13_14h22.34.969,threat_forest,2021.2.3,59.94758171456369,True,27.0,0.5357142857142857,0.5428571428571429,-0.7806122448979592,-0.6303061224489797,1,0,1.0,-0.3036859881305234,0.1014160766347355,0.5,0.5,0.5,0.0,0.5,0.5,4.5,4.5,0.0,1.0,1.0,4.0,0,1,0,1,0.1014160766347355,0.6818199380095047,0.21694151014221993,-0.2462349521298497,0.7097872131404734,0.20598932520275356,-0.13953350706629486,0.6109204921953818,0.23769664441113425,-0.17416113146920492,0.6312599005966667,0.23277083849535318,-0.1756115405903717,0.5903254665787641,0.2418413100873286,-0.1429041659932727,0.7393460637444645,0.19271346177003074,-0.18634059611551962,0.75485350942814,0.1850496887321609,-0.23760907799199132,0.8428463471337047,0.13245638225707523,-0.28678271539599526,0.771427704558638,0.17632700119802872,-0.24132366678844375,0.8276402812542099,0.14265184609966228,-0.21554613718126586,0.7814541154010427,0.17078358092381649,-0.22195114794851933
4.0,0.0,4.0,0.0,5.0,0.0,5.0,0.0,,,,left,0.7736974996514618,176.74245089991018,lb11,176.74245089991018,,172.09123519994318,174.0916487001814,True,2.0,['r'],True,0.4081632653061224,0.5714285714285714,0.2857142857142857,2.0,1.0,0.9885754083994552,-0.0459183673469387,succ_gain,0.0,3.0,174.0916487001814,,lb11,1,2022-05-13_14h22.34.969,threat_forest,2021.2.3,59.94758171456369,True,27.0,0.5357142857142857,0.5428571428571429,-0.7806122448979592,-0.6303061224489797,0,0,1.0,-0.2565743091090061,-0.0459183673469387,0.4081632653061224,0.4081632653061224,0.5714285714285714,0.2857142857142857,-0.1428571428571428,-0.0612244897959184,1.9387755102040816,1.9387755102040816,1.0,1.0,-1.0,2.0,0,1,0,0,-0.0459183673469387,0.639403900541974,0.23056655251368344,-0.169489951135535,0.7097872131404734,0.20598932520275356,-0.13953350706629486,0.6109204921953818,0.23769664441113425,-0.17416113146920492,0.6590788463418572,0.22469392064654378,-0.19085252303785566,0.6743250227984908,0.21961078642630566,-0.20238886897268427,0.8096473386157174,0.15411852568820333,-0.2579736535338863,0.6218668735740133,0.23514846512529541,-0.13722000435526255,0.7481540615851978,0.1884195617187698,-0.2045193841228694,0.5093159334346684,0.24991321338424083,-0.1208462662182882,0.7506952711400674,0.18715188102800812,-0.17920956202118668,0.5806397926790936,0.2434972238366728,-0.11646661489595556
4.0,0.0,4.0,0.0,6.0,0.0,6.0,0.0,,,,right,0.8985419999808073,180.2881550001912,lb11,177.54181340010837,179.54148950008675,180.2881550001912,,True,3.0,['r'],False,0.5,0.5,0.0,0.0,1.0,0.6309297535714574,-0.2729591836734694,succ_gain,1.0,4.0,179.54148950008675,,lb11,1,2022-05-13_14h22.34.969,threat_forest,2021.2.3,59.94758171456369,True,27.0,0.5357142857142857,0.5428571428571429,-0.7806122448979592,-0.6303061224489797,1,0,1.0,-0.1069818292980862,-0.2729591836734694,0.0,0.5,0.5,0.0,0.5,0.5,3.5,3.5,0.0,1.0,1.0,3.0,0,0,0,1,-0.84,0.6818199380095047,0.21694151014221993,-0.2462349521298497,0.2799990094855455,0.20159956417265892,-0.4356261505632659,0.6109204921953818,0.23769664441113425,-0.17416113146920492,0.6312599005966667,0.23277083849535318,-0.1756115405903717,0.5903254665787641,0.2418413100873286,-0.1429041659932727,0.7393460637444645,0.19271346177003074,-0.18634059611551962,0.75485350942814,0.1850496887321609,-0.23760907799199132,0.8428463471337047,0.13245638225707523,-0.28678271539599526,0.771427704558638,0.17632700119802872,-0.24132366678844375,0.2745278670563876,0.19916231726585798,-0.16940242097591127,0.24293983818831702,0.18392007320935133,-0.2028942461185706
4.0,0.0,4.0,0.0,7.0,0.0,7.0,0.0,,,,right,1.0668240999802947,186.16552190016955,lb11,177.54181340010837,179.54148950008675,186.16552190016955,,True,4.0,['r'],False,0.5,0.5,0.0,0.0,1.0,0.6309297535714574,0.0,unsucc_cost,1.0,2.0,183.20808409992603,,lb11,1,2022-05-13_14h22.34.969,threat_forest,2021.2.3,59.94758171456369,True,27.0,0.5357142857142857,0.5428571428571429,-0.7806122448979592,-0.6303061224489797,1,0,1.0,0.0646861039782142,0.0,0.0,0.5,0.5,0.0,0.5,0.5,4.5,4.5,0.0,1.0,1.0,4.0,0,0,0,1,-0.84,0.6818199380095047,0.21694151014221993,-0.2462349521298497,0.2799990094855455,0.20159956417265892,-0.4356261505632659,0.6109204921953818,0.23769664441113425,-0.17416113146920492,0.6312599005966667,0.23277083849535318,-0.1756115405903717,0.5903254665787641,0.2418413100873286,-0.1429041659932727,0.7393460637444645,0.19271346177003074,-0.18634059611551962,0.75485350942814,0.1850496887321609,-0.23760907799199132,0.8428463471337047,0.13245638225707523,-0.28678271539599526,0.771427704558638,0.17632700119802872,-0.24132366678844375,0.2745278670563876,0.19916231726585798,-0.16940242097591127,0.6504667888955196,0.2273597454394712,-0.13987699986889263
5.0,0.0,5.0,0.0,0.0,0.0,0.0,0.0,190.96426719985905,194.4666714998893,,right,1.0057358001358807,195.56587170017883,lb11,195.56587170017883,,190.96426719985905,194.4666714998893,False,4.0,['p'],True,0.2,0.2,0.0,0.0,2.0,0.4554859150035951,-0.0012731594242116,wait_cost,0.0,3.0,,,lb11,1,2022-05-13_14h22.34.969,threat_forest,2021.2.3,59.94758171456369,False,37.0,0.2666666666666666,0.4011904761904762,-1.1277777777777778,-0.9541950113378684,0,0,0.0,0.0057194130663915,-0.0012731594242116,0.2,0.2,0.2,0.0,-0.2000000000000001,-0.2000000000000001,3.8,3.8,1.0,2.0,-1.0,4.0,0,1,0,0,-0.0012731594242116,0.639403900541974,0.23056655251368344,-0.169489951135535,0.7097872131404734,0.20598932520275356,-0.13953350706629486,0.6109204921953818,0.23769664441113425,-0.17416113146920492,0.6590788463418572,0.22469392064654378,-0.19085252303785566,0.5903254665787641,0.2418413100873286,-0.1429041659932727,0.34095341775400967,0.22470418467586944,-0.1269651048357709,0.6086710999674105,0.2381905920318731,-0.13112412090213793,0.43775318541236563,0.24612533407369272,-0.11969452046668877,0.5093159334346684,0.24991321338424083,-0.1208462662182882,0.5111321708087344,0.24987607477308516,-0.12799202064075157,0.6486004860183828,0.22791789555510045,-0.13906730031373565
5.0,0.0,5.0,0.0,1.0,0.0,1.0,0.0,,,,left,0.9967167996801436,200.34396150009707,lb11,200.34396150009707,,190.96426719985905,194.4666714998893,True,3.0,['p'],True,0.2,0.2,0.0,0.0,2.0,0.4554859150035951,0.0423369907978965,unsucc_cost,0.0,1.0,198.5919110001996,,lb11,1,2022-05-13_14h22.34.969,threat_forest,2021.2.3,59.94758171456369,True,37.0,0.2666666666666666,0.4011904761904762,-1.1277777777777778,-0.9541950113378684,0,0,1.0,-0.0032886018481332,0.0423369907978965,0.2,0.2,0.2,0.0,-0.2000000000000001,-0.2000000000000001,2.8,2.8,1.0,2.0,-1.0,3.0,0,1,0,0,0.0423369907978965,0.639403900541974,0.23056655251368344,-0.169489951135535,0.7097872131404734,0.20598932520275356,-0.13953350706629486,0.6109204921953818,0.23769664441113425,-0.17416113146920492,0.6590788463418572,0.22469392064654378,-0.19085252303785566,0.5903254665787641,0.2418413100873286,-0.1429041659932727,0.34095341775400967,0.22470418467586944,-0.1269651048357709,0.6086710999674105,0.2381905920318731,-0.13112412090213793,0.43775318541236563,0.24612533407369272,-0.11969452046668877,0.5093159334346684,0.24991321338424083,-0.1208462662182882,0.5111321708087344,0.24987607477308516,-0.12799202064075157,0.7096573962173404,0.2060437762113652,-0.1707997396810666
5.0,0.0,5.0,0.0,2.0,0.0,2.0,0.0,,,,right,0.6006029001437128,205.8584079998545,lb11,201.35909679997712,203.3584607001394,205.8584079998545,,True,1.0,['p'],False,0.2777777777777778,0.3333333333333333,0.1666666666666666,1.0,2.0,0.8929352898779304,0.0843845143440192,unsucc_cost,1.0,0.0,203.3584607001394,,lb11,1,2022-05-13_14h22.34.969,threat_forest,2021.2.3,59.94758171456369,True,37.0,0.2666666666666666,0.4011904761904762,-1.1277777777777778,-0.9541950113378684,0,0,1.0,-0.509821294700455,0.0843845143440192,1.0,0.2777777777777778,0.3333333333333333,0.1666666666666666,-0.1666666666666665,-0.0555555555555555,0.9444444444444444,1.0,0.0,2.0,-1.0,1.0,1,1,0,0,0.625,0.639403900541974,0.23056655251368344,-0.169489951135535,0.7097872131404734,0.20598932520275356,-0.13953350706629486,0.8837195114307325,0.10275933654735994,-0.24787625648011619,0.6312599005966667,0.23277083849535318,-0.1756115405903717,0.6403238720351629,0.23030921093705917,-0.17376189580400347,0.5242877633821847,0.249410104549891,-0.08111036956280193,0.6163893060987319,0.2364535294258557,-0.1346048866697223,0.5621875413849412,0.24613270969649625,-0.119683678636259,0.5093159334346684,0.24991321338424083,-0.1208462662182882,0.9838532785804697,0.015886004806930497,-0.3190569889655623,0.7621468352048342,0.1812790367920895,-0.2067255559263264
6.0,0.0,6.0,0.0,0.0,0.0,0.0,0.0,210.09694459987804,213.60848330007863,,right,1.204796599689871,216.4322667000816,lb11,216.4322667000816,,210.09694459987804,213.60848330007863,False,5.0,['p'],True,0.1975308641975308,0.2222222222222222,0.1111111111111111,1.0,1.0,0.7461067557824965,-0.0426399353164329,wait_cost,0.0,4.0,,,lb11,1,2022-05-13_14h22.34.969,threat_forest,2021.2.3,59.94758171456369,False,5.0,0.4444444444444444,0.3555555555555555,-1.259259259259259,-1.1935185185185184,0,0,0.0,0.1863107557569455,-0.0426399353164329,0.1975308641975308,0.1975308641975308,0.2222222222222222,0.1111111111111111,-0.6666666666666667,-0.5185185185185184,4.481481481481482,4.481481481481482,1.0,1.0,-1.0,5.0,0,1,0,0,-0.0426399353164329,0.639403900541974,0.23056655251368344,-0.169489951135535,0.7097872131404734,0.20598932520275356,-0.13953350706629486,0.6109204921953818,0.23769664441113425,-0.17416113146920492,0.6590788463418572,0.22469392064654378,-0.19085252303785566,0.6239348940932447,0.23464014202609623,-0.1621731382297783,0.36981690624968677,0.2330523621015972,-0.11147070236784085,0.4966094573428179,0.24998850422048988,-0.1074831947012933,0.43384779481311037,0.24562388574891164,-0.12043162672216973,0.5093159334346684,0.24991321338424083,-0.1208462662182882,0.5079965821748467,0.24993605467352092,-0.1279430439564908,0.5857714481505988,0.24264325868214912,-0.11770544865478744
6.0,0.0,6.0,0.0,1.0,0.0,1.0,0.0,,,,right,1.3020688001997769,222.00693550007412,lb11,222.00693550007412,,210.09694459987804,213.60848330007863,False,4.0,['p'],True,0.1975308641975308,0.2222222222222222,0.1111111111111111,1.0,1.0,0.7461067557824965,-0.0303802278310122,wait_cost,0.0,3.0,219.65890270005912,,lb11,1,2022-05-13_14h22.34.969,threat_forest,2021.2.3,59.94758171456369,False,5.0,0.4444444444444444,0.3555555555555555,-1.259259259259259,-1.1935185185185184,0,0,0.0,0.2639543843256041,-0.0303802278310122,0.1975308641975308,0.1975308641975308,0.2222222222222222,0.1111111111111111,-0.6666666666666667,-0.5185185185185184,3.481481481481482,3.481481481481482,1.0,1.0,-1.0,4.0,0,1,0,0,-0.0303802278310122,0.639403900541974,0.23056655251368344,-0.169489951135535,0.7097872131404734,0.20598932520275356,-0.13953350706629486,0.6109204921953818,0.23769664441113425,-0.17416113146920492,0.6590788463418572,0.22469392064654378,-0.19085252303785566,0.6239348940932447,0.23464014202609623,-0.1621731382297783,0.36981690624968677,0.2330523621015972,-0.11147070236784085,0.4966094573428179,0.24998850422048988,-0.1074831947012933,0.43384779481311037,0.24562388574891164,-0.12043162672216973,0.5093159334346684,0.24991321338424083,-0.1208462662182882,0.5079965821748467,0.24993605467352092,-0.1279430439564908,0.6047886075584105,0.23901934772596944,-0.12296259902882123
6.0,0.0,6.0,0.0,2.0,0.0,2.0,0.0,,,,left,1.0031254002824426,227.9578081001528,lb11,227.9578081001528,,210.09694459987804,213.60848330007863,True,3.0,['p'],True,0.1975308641975308,0.2222222222222222,0.1111111111111111,1.0,1.0,0.7461067557824965,-0.025907886353424,unsucc_cost,0.0,1.0,225.34241349995136,,lb11,1,2022-05-13_14h22.34.969,threat_forest,2021.2.3,59.94758171456369,True,5.0,0.4444444444444444,0.3555555555555555,-1.259259259259259,-1.1935185185185184,0,0,1.0,0.0031205263716207,-0.025907886353424,0.1975308641975308,0.1975308641975308,0.2222222222222222,0.1111111111111111,-0.6666666666666667,-0.5185185185185184,2.481481481481482,2.481481481481482,1.0,1.0,-1.0,3.0,0,1,0,0,-0.025907886353424,0.639403900541974,0.23056655251368344,-0.169489951135535,0.7097872131404734,0.20598932520275356,-0.13953350706629486,0.6109204921953818,0.23769664441113425,-0.17416113146920492,0.6590788463418572,0.22469392064654378,-0.19085252303785566,0.6239348940932447,0.23464014202609623,-0.1621731382297783,0.36981690624968677,0.2330523621015972,-0.11147070236784085,0.4966094573428179,0.24998850422048988,-0.1074831947012933,0.43384779481311037,0.24562388574891164,-0.12043162672216973,0.5093159334346684,0.24991321338424083,-0.1208462662182882,0.5079965821748467,0.24993605467352092,-0.1279430439564908,0.6116510945511581,0.2375340330855283,-0.12511732151289262
6.0,0.0,6.0,0.0,3.0,0.0,3.0,0.0,,,,right,1.0584157998673618,231.8233260000125,lb11,229.0019653998316,231.00907689984888,231.8233260000125,,True,1.0,['p'],False,0.4444444444444445,0.6666666666666666,0.3333333333333333,1.0,1.0,0.9656336071428248,0.0734832276772021,unsucc_cost,1.0,0.0,231.00907689984888,,lb11,1,2022-05-13_14h22.34.969,threat_forest,2021.2.3,59.94758171456369,True,5.0,0.4444444444444444,0.3555555555555555,-1.259259259259259,-1.1935185185185184,1,1,1.0,0.0567732617753664,0.0734832276772021,1.0,0.4444444444444445,0.6666666666666666,0.3333333333333333,0.0,0.0,1.0,1.0,0.0,1.0,-1.0,1.0,1,1,1,1,0.625,0.639403900541974,0.23056655251368344,-0.169489951135535,0.7097872131404734,0.20598932520275356,-0.13953350706629486,0.8837195114307325,0.10275933654735994,-0.24787625648011619,0.6312599005966667,0.23277083849535318,-0.1756115405903717,0.6874509862311328,0.21486212776097563,-0.21509538702709385,0.8795226338563433,0.10596257039074398,-0.3473521746835416,0.6540421468406011,0.22627101699673868,-0.15500883789663528,0.7895444576320586,0.16616400705455708,-0.23723403835838225,0.771427704558638,0.17632700119802872,-0.24132366678844375,0.9838532785804697,0.015886004806930497,-0.3190569889655623,0.7491881081845935,0.18790528673938334,-0.1971129598084625
7.0,0.0,7.0,0.0,0.0,0.0,0.0,0.0,236.39713450009003,239.8931963001378,,left,0.8465275997295976,240.49006000021475,lb11,240.49006000021475,,236.39713450009003,239.8931963001378,True,4.0,['p'],True,0.375,0.5,0.25,1.0,2.0,0.9850568223215076,0.0640175729863931,succ_gain,0.0,6.0,,,lb11,1,2022-05-13_14h22.34.969,threat_forest,2021.2.3,59.94758171456369,True,59.0,0.3611111111111111,0.4027777777777778,-1.1404320987654322,-1.1998456790123455,1,0,1.0,-0.1666124734164256,0.0640175729863931,0.375,0.375,0.5,0.25,0.25,0.25,4.25,4.25,1.0,2.0,-1.0,4.0,0,1,0,1,0.0640175729863931,0.639403900541974,0.23056655251368344,-0.169489951135535,0.7097872131404734,0.20598932520275356,-0.13953350706629486,0.6109204921953818,0.23769664441113425,-0.17416113146920492,0.6590788463418572,0.22469392064654378,-0.19085252303785566,0.6642963703927057,0.22300670267578288,-0.19330203536843193,0.7393460637444645,0.19271346177003074,-0.18634059611551962,0.706979955148334,0.20715929816679365,-0.19330533707434233,0.705880128343049,0.20761337275344968,-0.1763053539207362,0.771427704558638,0.17632700119802872,-0.24132366678844375,0.7178463423932335,0.2025429711058901,-0.16664194264041476,0.7375615173042975,0.19356452549607991,-0.1889031915480751
7.0,0.0,7.0,0.0,1.0,0.0,1.0,0.0,,,,right,1.015596400015056,245.5232195998542,lb11,241.36010710010305,243.3590057999827,245.5232195998542,,True,6.0,['p'],False,0.1728395061728395,0.2222222222222222,0.2222222222222222,2.0,2.0,0.8571721972794328,-0.10870870610332,succ_gain,1.0,6.0,243.3590057999827,,lb11,1,2022-05-13_14h22.34.969,threat_forest,2021.2.3,59.94758171456369,True,59.0,0.3611111111111111,0.4027777777777778,-1.1404320987654322,-1.1998456790123455,0,0,1.0,0.0154760261542897,-0.10870870610332,0.1728395061728395,0.1728395061728395,0.2222222222222222,0.2222222222222222,-0.7777777777777777,-0.5308641975308643,5.469135802469136,5.469135802469136,0.0,2.0,1.0,6.0,0,1,0,0,-0.10870870610332,0.6818199380095047,0.21694151014221993,-0.2462349521298497,0.7097872131404734,0.20598932520275356,-0.13953350706629486,0.6109204921953818,0.23769664441113425,-0.17416113146920492,0.6312599005966667,0.23277083849535318,-0.1756115405903717,0.6563919526346349,0.22554155715112617,-0.18651924123091912,0.36981690624968677,0.2330523621015972,-0.11147070236784085,0.46954642971805727,0.2490725800570828,-0.1093185444823816,0.39531989306641163,0.2390420752123725,-0.13010658918413764,0.5093159334346684,0.24991321338424083,-0.1208462662182882,0.47664680096997103,0.24945462809506386,-0.12833615360416487,0.48027573905734267,0.249610953530266,-0.10759752381340376
7.0,0.0,7.0,0.0,2.0,0.0,2.0,0.0,,,,left,0.6737625999376178,249.7416387000121,lb11,249.7416387000121,,246.55902819987384,248.5591553002596,True,6.0,['p'],True,0.375,0.5,0.25,1.0,2.0,0.9850568223215076,0.08919661698378,succ_gain,0.0,6.0,248.5591553002596,,lb11,1,2022-05-13_14h22.34.969,threat_forest,2021.2.3,59.94758171456369,True,59.0,0.3611111111111111,0.4027777777777778,-1.1404320987654322,-1.1998456790123455,1,0,1.0,-0.3948774557276838,0.08919661698378,0.375,0.375,0.5,0.25,0.25,0.25,6.25,6.25,1.0,2.0,-1.0,6.0,0,1,0,1,0.08919661698378,0.639403900541974,0.23056655251368344,-0.169489951135535,0.7097872131404734,0.20598932520275356,-0.13953350706629486,0.6109204921953818,0.23769664441113425,-0.17416113146920492,0.6590788463418572,0.22469392064654378,-0.19085252303785566,0.6642963703927057,0.22300670267578288,-0.19330203536843193,0.7393460637444645,0.19271346177003074,-0.18634059611551962,0.706979955148334,0.20715929816679365,-0.19330533707434233,0.705880128343049,0.20761337275344968,-0.1763053539207362,0.771427704558638,0.17632700119802872,-0.24132366678844375,0.7178463423932335,0.2025429711058901,-0.16664194264041476,0.7677185191324363,0.1783267945135354,-0.2110083271606673
7.0,0.0,7.0,0.0,3.0,0.0,3.0,0.0,,,,left,0.6134151997976005,253.90124989999453,lb11,253.90124989999453,,246.55902819987384,248.5591553002596,True,6.0,['p'],True,0.375,0.5,0.25,1.0,2.0,0.9850568223215076,-0.3363780396828799,succ_gain,0.0,6.0,252.45920150028545,,lb11,1,2022-05-13_14h22.34.969,threat_forest,2021.2.3,59.94758171456369,True,59.0,0.3611111111111111,0.4027777777777778,-1.1404320987654322,-1.1998456790123455,1,0,1.0,-0.4887132480237314,-0.3363780396828799,0.0,0.375,0.5,0.25,0.25,0.25,6.25,6.25,1.0,2.0,-1.0,6.0,0,0,0,1,-0.84,0.639403900541974,0.23056655251368344,-0.169489951135535,0.2799990094855455,0.20159956417265892,-0.4356261505632659,0.6109204921953818,0.23769664441113425,-0.17416113146920492,0.6590788463418572,0.22469392064654378,-0.19085252303785566,0.6642963703927057,0.22300670267578288,-0.19330203536843193,0.7393460637444645,0.19271346177003074,-0.18634059611551962,0.706979955148334,0.20715929816679365,-0.19330533707434233,0.705880128343049,0.20761337275344968,-0.1763053539207362,0.771427704558638,0.17632700119802872,-0.24132366678844375,0.2745278670563876,0.19916231726585798,-0.16940242097591127,0.1758074832473293,0.14489921208156933,-0.259501192909917
7.0,0.0,7.0,0.0,4.0,0.0,4.0,0.0,,,,right,1.0855827000923457,258.90099349990487,lb11,254.54308200022209,256.5425924002193,258.90099349990487,,True,6.0,['p'],False,0.1728395061728395,0.2222222222222222,0.2222222222222222,2.0,2.0,0.8571721972794328,-0.1315262271588003,figh_cost,1.0,3.0,256.5425924002193,,lb11,1,2022-05-13_14h22.34.969,threat_forest,2021.2.3,59.94758171456369,True,59.0,0.3611111111111111,0.4027777777777778,-1.1404320987654322,-1.1998456790123455,0,0,1.0,0.082116893608622,-0.1315262271588003,0.0,0.1728395061728395,0.2222222222222222,0.2222222222222222,-0.7777777777777777,-0.5308641975308643,5.469135802469136,5.469135802469136,0.0,2.0,-1.0,6.0,0,0,0,0,-0.84,0.639403900541974,0.23056655251368344,-0.169489951135535,0.2799990094855455,0.20159956417265892,-0.4356261505632659,0.6109204921953818,0.23769664441113425,-0.17416113146920492,0.6312599005966667,0.23277083849535318,-0.1756115405903717,0.6563919526346349,0.22554155715112617,-0.18651924123091912,0.36981690624968677,0.2330523621015972,-0.11147070236784085,0.46954642971805727,0.2490725800570828,-0.1093185444823816,0.39531989306641163,0.2390420752123725,-0.13010658918413764,0.5093159334346684,0.24991321338424083,-0.1208462662182882,0.2745278670563876,0.19916231726585798,-0.16940242097591127,0.4437709977033042,0.24683829930071816,-0.11161976950216096
7.0,0.0,7.0,0.0,5.0,0.0,5.0,0.0,,,,left,1.4182764999568462,265.6069058999419,lb11,254.54308200022209,256.5425924002193,265.6069058999419,,False,3.0,['p'],False,0.1728395061728395,0.2222222222222222,0.2222222222222222,2.0,2.0,0.8571721972794328,0.0140841716201798,wait_cost,1.0,2.0,262.0096256998368,,lb11,1,2022-05-13_14h22.34.969,threat_forest,2021.2.3,59.94758171456369,False,59.0,0.3611111111111111,0.4027777777777778,-1.1404320987654322,-1.1998456790123455,0,0,0.0,0.3494424020186688,0.0140841716201798,0.1728395061728395,0.1728395061728395,0.2222222222222222,0.2222222222222222,-0.7777777777777777,-0.5308641975308643,2.469135802469136,2.469135802469136,0.0,2.0,-1.0,3.0,0,1,0,0,0.0140841716201798,0.639403900541974,0.23056655251368344,-0.169489951135535,0.7097872131404734,0.20598932520275356,-0.13953350706629486,0.6109204921953818,0.23769664441113425,-0.17416113146920492,0.6312599005966667,0.23277083849535318,-0.1756115405903717,0.6563919526346349,0.22554155715112617,-0.18651924123091912,0.36981690624968677,0.2330523621015972,-0.11147070236784085,0.46954642971805727,0.2490725800570828,-0.1093185444823816,0.39531989306641163,0.2390420752123725,-0.13010658918413764,0.5093159334346684,0.24991321338424083,-0.1208462662182882,0.47664680096997103,0.24945462809506386,-0.12833615360416487,0.6707958299612387,0.22082878446785167,-0.14935136177510927
7.0,0.0,7.0,0.0,6.0,0.0,6.0,0.0,,,,right,0.5942235998809338,270.20656039984897,lb11,270.20656039984897,,267.05267809983343,269.05942470021546,False,2.0,['p'],True,0.375,0.5,0.25,1.0,2.0,0.9850568223215076,0.1010802469135803,wait_cost,0.0,1.0,269.05942470021546,,lb11,1,2022-05-13_14h22.34.969,threat_forest,2021.2.3,59.94758171456369,False,59.0,0.3611111111111111,0.4027777777777778,-1.1404320987654322,-1.1998456790123455,1,0,0.0,-0.5204995996757988,0.1010802469135803,0.375,0.375,0.5,0.25,0.25,0.25,2.25,2.25,1.0,2.0,-1.0,2.0,0,1,0,1,0.1010802469135803,0.639403900541974,0.23056655251368344,-0.169489951135535,0.7097872131404734,0.20598932520275356,-0.13953350706629486,0.6109204921953818,0.23769664441113425,-0.17416113146920492,0.6590788463418572,0.22469392064654378,-0.19085252303785566,0.6642963703927057,0.22300670267578288,-0.19330203536843193,0.7393460637444645,0.19271346177003074,-0.18634059611551962,0.706979955148334,0.20715929816679365,-0.19330533707434233,0.705880128343049,0.20761337275344968,-0.1763053539207362,0.771427704558638,0.17632700119802872,-0.24132366678844375,0.7178463423932335,0.2025429711058901,-0.16664194264041476,0.7810845582457475,0.17099147111579308,-0.22164956493124238
7.0,0.0,7.0,0.0,7.0,0.0,7.0,0.0,,,,left,0.8650201000273228,274.7642776998691,lb11,274.7642776998691,,267.05267809983343,269.05942470021546,True,1.0,['p'],True,0.375,0.5,0.25,1.0,2.0,0.9850568223215076,0.375,succ_gain,0.0,3.0,272.8262375001796,,lb11,1,2022-05-13_14h22.34.969,threat_forest,2021.2.3,59.94758171456369,True,59.0,0.3611111111111111,0.4027777777777778,-1.1404320987654322,-1.1998456790123455,1,0,1.0,-0.1450025352944265,0.375,1.0,0.375,0.5,0.25,0.25,0.25,1.25,1.25,1.0,2.0,-1.0,1.0,1,1,0,1,0.625,0.639403900541974,0.23056655251368344,-0.169489951135535,0.7097872131404734,0.20598932520275356,-0.13953350706629486,0.8837195114307325,0.10275933654735994,-0.24787625648011619,0.6590788463418572,0.22469392064654378,-0.19085252303785566,0.6642963703927057,0.22300670267578288,-0.19330203536843193,0.7393460637444645,0.19271346177003074,-0.18634059611551962,0.706979955148334,0.20715929816679365,-0.19330533707434233,0.705880128343049,0.20761337275344968,-0.1763053539207362,0.771427704558638,0.17632700119802872,-0.24132366678844375,0.9838532785804697,0.015886004806930497,-0.3190569889655623,0.9541700460056949,0.043729569311185025,-0.4062663954114384
8.0,0.0,8.0,0.0,0.0,0.0,0.0,0.0,279.99231779994443,283.49325780011714,,right,0.9309094999916852,285.8165406002663,lb11,279.99231779994443,283.49325780011714,285.8165406002663,,True,4.0,['r'],False,0.28125,0.375,0.25,2.0,2.0,0.9634951148421658,-0.0007636143604934,succ_gain,1.0,6.0,,,lb11,1,2022-05-13_14h22.34.969,threat_forest,2021.2.3,59.94758171456369,True,40.0,0.3541666666666666,0.3576388888888888,-0.8958333333333335,-1.018132716049383,0,0,1.0,-0.0715932137429123,-0.0007636143604934,0.28125,0.28125,0.375,0.25,-0.25,-0.125,3.875,3.875,0.0,2.0,1.0,4.0,0,1,0,0,-0.0007636143604934,0.6818199380095047,0.21694151014221993,-0.2462349521298497,0.7097872131404734,0.20598932520275356,-0.13953350706629486,0.6109204921953818,0.23769664441113425,-0.17416113146920492,0.6312599005966667,0.23277083849535318,-0.1756115405903717,0.6642963703927057,0.22300670267578288,-0.19330203536843193,0.5826262511792548,0.24317290261606264,-0.09268675469552012,0.5969922602702554,0.24059250144766703,-0.12631111989551186,0.5676773532384777,0.24541977585863425,-0.12073165898769717,0.5093159334346684,0.24991321338424083,-0.1208462662182882,0.6123996541154637,0.23736631775472414,-0.13820688287319569,0.6493479685523676,0.22769518428928096,-0.13939038402869502
8.0,0.0,8.0,0.0,1.0,0.0,1.0,0.0,,,,right,0.9791069999337196,290.7412465000525,lb11,279.99231779994443,283.49325780011714,290.7412465000525,,True,6.0,['r'],False,0.28125,0.375,0.25,2.0,2.0,0.9634951148421658,-0.1073108765070514,unsucc_cost,1.0,4.0,288.77665279991925,,lb11,1,2022-05-13_14h22.34.969,threat_forest,2021.2.3,59.94758171456369,True,40.0,0.3541666666666666,0.3576388888888888,-0.8958333333333335,-1.018132716049383,0,0,1.0,-0.0211143472924236,-0.1073108765070514,0.28125,0.28125,0.375,0.25,-0.25,-0.125,5.875,5.875,0.0,2.0,1.0,6.0,0,1,0,0,-0.1073108765070514,0.6818199380095047,0.21694151014221993,-0.2462349521298497,0.7097872131404734,0.20598932520275356,-0.13953350706629486,0.6109204921953818,0.23769664441113425,-0.17416113146920492,0.6312599005966667,0.23277083849535318,-0.1756115405903717,0.6642963703927057,0.22300670267578288,-0.19330203536843193,0.5826262511792548,0.24317290261606264,-0.09268675469552012,0.5969922602702554,0.24059250144766703,-0.12631111989551186,0.5676773532384777,0.24541977585863425,-0.12073165898769717,0.5093159334346684,0.24991321338424083,-0.1208462662182882,0.6123996541154637,0.23736631775472414,-0.13820688287319569,0.4825229517091736,0.24969455278304017,-0.10747624769809488
8.0,0.0,8.0,0.0,2.0,0.0,2.0,0.0,,,,left,0.6204105000942945,295.7239871998317,lb11,295.7239871998317,,291.755745800212,293.75971220014617,True,4.0,['r'],True,0.3333333333333333,0.3333333333333333,0.0,0.0,2.0,0.5793801642856949,0.050074399989328,unsucc_cost,0.0,2.0,293.75971220014617,,lb11,1,2022-05-13_14h22.34.969,threat_forest,2021.2.3,59.94758171456369,True,40.0,0.3541666666666666,0.3576388888888888,-0.8958333333333335,-1.018132716049383,1,0,1.0,-0.4773739231061878,0.050074399989328,0.3333333333333333,0.3333333333333333,0.3333333333333333,0.0,0.3333333333333331,0.3333333333333331,4.333333333333333,4.333333333333333,1.0,2.0,-1.0,4.0,0,1,0,1,0.050074399989328,0.639403900541974,0.23056655251368344,-0.169489951135535,0.7097872131404734,0.20598932520275356,-0.13953350706629486,0.6109204921953818,0.23769664441113425,-0.17416113146920492,0.6590788463418572,0.22469392064654378,-0.19085252303785566,0.5903254665787641,0.2418413100873286,-0.1429041659932727,0.5242877633821847,0.249410104549891,-0.08111036956280193,0.7235347512144696,0.20003221499948512,-0.20758674928456305,0.6473529141306369,0.22828711869720913,-0.14591588663909244,0.771427704558638,0.17632700119802872,-0.24132366678844375,0.6730634147215293,0.2200490544849239,-0.15234732207471982,0.7198153233026774,0.2016812236413394,-0.17712842577533833
8.0,0.0,8.0,0.0,3.0,0.0,3.0,0.0,,,,left,0.980565500445664,299.6336961002089,lb11,299.6336961002089,,291.755745800212,293.75971220014617,True,2.0,['r'],True,0.3333333333333333,0.3333333333333333,0.0,0.0,2.0,0.5793801642856949,0.0278132403338395,unsucc_cost,0.0,0.0,298.3932957001962,,lb11,1,2022-05-13_14h22.34.969,threat_forest,2021.2.3,59.94758171456369,True,40.0,0.3541666666666666,0.3576388888888888,-0.8958333333333335,-1.018132716049383,1,0,1.0,-0.0196258324707285,0.0278132403338395,0.3333333333333333,0.3333333333333333,0.3333333333333333,0.0,0.3333333333333331,0.3333333333333331,2.333333333333333,2.333333333333333,1.0,2.0,-1.0,2.0,0,1,0,1,0.0278132403338395,0.639403900541974,0.23056655251368344,-0.169489951135535,0.7097872131404734,0.20598932520275356,-0.13953350706629486,0.6109204921953818,0.23769664441113425,-0.17416113146920492,0.6590788463418572,0.22469392064654378,-0.19085252303785566,0.5903254665787641,0.2418413100873286,-0.1429041659932727,0.5242877633821847,0.249410104549891,-0.08111036956280193,0.7235347512144696,0.20003221499948512,-0.20758674928456305,0.6473529141306369,0.22828711869720913,-0.14591588663909244,0.771427704558638,0.17632700119802872,-0.24132366678844375,0.6730634147215293,0.2200490544849239,-0.15234732207471982,0.6900161940792301,0.21389384598764433,-0.15941176747104768
9.0,0.0,9.0,0.0,0.0,0.0,0.0,0.0,304.3976751998998,307.9101734999567,,right,1.239704899955541,311.56494509987533,lb11,311.56494509987533,,304.3976751998998,307.9101734999567,False,5.0,['p'],True,0.2448979591836734,0.2857142857142857,0.1428571428571428,1.0,1.0,0.8400769154957735,-0.0213375421468753,wait_cost,0.0,4.0,,,lb11,1,2022-05-13_14h22.34.969,threat_forest,2021.2.3,59.94758171456369,False,13.0,0.4761904761904761,0.4151785714285714,-1.2040816326530612,-1.0499574829931977,0,0,0.0,0.21487336738746,-0.0213375421468753,0.2448979591836734,0.2448979591836734,0.2857142857142857,0.1428571428571428,-0.5714285714285712,-0.4081632653061224,4.591836734693878,4.591836734693878,1.0,1.0,-1.0,5.0,0,1,0,0,-0.0213375421468753,0.639403900541974,0.23056655251368344,-0.169489951135535,0.7097872131404734,0.20598932520275356,-0.13953350706629486,0.6109204921953818,0.23769664441113425,-0.17416113146920492,0.6590788463418572,0.22469392064654378,-0.19085252303785566,0.6333375051459685,0.23222110972144877,-0.16864601400786217,0.45688956420458354,0.24814149032552926,-0.0834649457015677,0.5198281877402758,0.24960684297093638,-0.10824797623976934,0.5096325239546239,0.24990721448226363,-0.11413532808558824,0.5093159334346684,0.24991321338424083,-0.1208462662182882,0.5677522816140697,0.24540962833608776,-0.13163910466928666,0.6186184968580699,0.23592965220313206,-0.12744477151317457
9.0,0.0,9.0,0.0,1.0,0.0,1.0,0.0,,,,right,0.939299300312996,317.9055869001895,lb11,317.9055869001895,,304.3976751998998,307.9101734999567,False,4.0,['p'],True,0.2448979591836734,0.2857142857142857,0.1428571428571428,1.0,1.0,0.8400769154957735,-0.0095054482418793,wait_cost,0.0,3.0,314.8436320000328,,lb11,1,2022-05-13_14h22.34.969,threat_forest,2021.2.3,59.94758171456369,False,13.0,0.4761904761904761,0.4151785714285714,-1.2040816326530612,-1.0499574829931977,0,0,0.0,-0.062621106884536,-0.0095054482418793,0.2448979591836734,0.2448979591836734,0.2857142857142857,0.1428571428571428,-0.5714285714285712,-0.4081632653061224,3.591836734693877,3.591836734693877,1.0,1.0,-1.0,4.0,0,1,0,0,-0.0095054482418793,0.639403900541974,0.23056655251368344,-0.169489951135535,0.7097872131404734,0.20598932520275356,-0.13953350706629486,0.6109204921953818,0.23769664441113425,-0.17416113146920492,0.6590788463418572,0.22469392064654378,-0.19085252303785566,0.6333375051459685,0.23222110972144877,-0.16864601400786217,0.45688956420458354,0.24814149032552926,-0.0834649457015677,0.5198281877402758,0.24960684297093638,-0.10824797623976934,0.5096325239546239,0.24990721448226363,-0.11413532808558824,0.5093159334346684,0.24991321338424083,-0.1208462662182882,0.5677522816140697,0.24540962833608776,-0.13163910466928666,0.6364250819086299,0.23138819702622357,-0.13403298879296982
9.0,0.0,9.0,0.0,2.0,0.0,2.0,0.0,,,,left,0.9250310999341308,322.9878692999482,lb11,322.9878692999482,,304.3976751998998,307.9101734999567,True,3.0,['p'],True,0.2448979591836734,0.2857142857142857,0.1428571428571428,1.0,1.0,0.8400769154957735,-0.0093268589937369,unsucc_cost,0.0,1.0,320.89359610015526,,lb11,1,2022-05-13_14h22.34.969,threat_forest,2021.2.3,59.94758171456369,True,13.0,0.4761904761904761,0.4151785714285714,-1.2040816326530612,-1.0499574829931977,0,0,1.0,-0.0779279204844918,-0.0093268589937369,0.2448979591836734,0.2448979591836734,0.2857142857142857,0.1428571428571428,-0.5714285714285712,-0.4081632653061224,2.591836734693877,2.591836734693877,1.0,1.0,-1.0,3.0,0,1,0,0,-0.0093268589937369,0.639403900541974,0.23056655251368344,-0.169489951135535,0.7097872131404734,0.20598932520275356,-0.13953350706629486,0.6109204921953818,0.23769664441113425,-0.17416113146920492,0.6590788463418572,0.22469392064654378,-0.19085252303785566,0.6333375051459685,0.23222110972144877,-0.16864601400786217,0.45688956420458354,0.24814149032552926,-0.0834649457015677,0.5198281877402758,0.24960684297093638,-0.10824797623976934,0.5096325239546239,0.24990721448226363,-0.11413532808558824,0.5093159334346684,0.24991321338424083,-0.1208462662182882,0.5677522816140697,0.24540962833608776,-0.13163910466928666,0.6366911424380026,0.2313155315789937,-0.13413840340930644
9.0,0.0,9.0,0.0,3.0,0.0,3.0,0.0,,,,right,0.7661505001597106,329.22224220028147,lb11,323.95106110023335,325.96031410014257,329.22224220028147,,True,1.0,['p'],False,0.4444444444444445,0.6666666666666666,0.3333333333333333,1.0,1.0,0.9656336071428248,0.0784655024537925,unsucc_cost,1.0,0.0,325.96031410014257,,lb11,1,2022-05-13_14h22.34.969,threat_forest,2021.2.3,59.94758171456369,True,13.0,0.4761904761904761,0.4151785714285714,-1.2040816326530612,-1.0499574829931977,1,1,1.0,-0.2663766531359882,0.0784655024537925,1.0,0.4444444444444445,0.6666666666666666,0.3333333333333333,0.0,0.0,1.0,1.0,0.0,1.0,-1.0,1.0,1,1,1,1,0.625,0.639403900541974,0.23056655251368344,-0.169489951135535,0.7097872131404734,0.20598932520275356,-0.13953350706629486,0.8837195114307325,0.10275933654735994,-0.24787625648011619,0.6312599005966667,0.23277083849535318,-0.1756115405903717,0.6874509862311328,0.21486212776097563,-0.21509538702709385,0.8795226338563433,0.10596257039074398,-0.3473521746835416,0.6540421468406011,0.22627101699673868,-0.15500883789663528,0.7895444576320586,0.16616400705455708,-0.23723403835838225,0.771427704558638,0.17632700119802872,-0.24132366678844375,0.9838532785804697,0.015886004806930497,-0.3190569889655623,0.7551684161796541,0.1848890793843668,-0.2014885241687151
10.0,0.0,10.0,0.0,0.0,0.0,0.0,0.0,333.4485487998463,336.9532844000496,,right,0.888542499858886,338.96138500003144,lb11,333.4485487998463,336.9532844000496,338.96138500003144,,True,4.0,['r'],False,0.5714285714285714,0.5714285714285714,0.0,0.0,2.0,0.6216097450797566,0.0806960090466623,succ_gain,1.0,6.0,,,lb11,1,2022-05-13_14h22.34.969,threat_forest,2021.2.3,59.94758171456369,True,19.0,0.5982142857142857,0.5372023809523809,-0.0446428571428572,-0.6243622448979592,1,1,1.0,-0.1181727992631036,0.0806960090466623,0.5714285714285714,0.5714285714285714,0.5714285714285714,0.0,1.2857142857142856,1.2857142857142856,5.285714285714286,5.285714285714286,0.0,2.0,-1.0,4.0,0,1,1,1,0.0806960090466623,0.639403900541974,0.23056655251368344,-0.169489951135535,0.7097872131404734,0.20598932520275356,-0.13953350706629486,0.6109204921953818,0.23769664441113425,-0.17416113146920492,0.6312599005966667,0.23277083849535318,-0.1756115405903717,0.5903254665787641,0.2418413100873286,-0.1429041659932727,0.8096473386157174,0.15411852568820333,-0.2579736535338863,0.8688958131610274,0.11391587903226431,-0.38014863233133794,0.8946408995982187,0.09425856036430877,-0.34293177816372666,0.771427704558638,0.17632700119802872,-0.24132366678844375,0.8734663515747372,0.11052288424145483,-0.2417810927100855,0.7578142992109878,0.18353178712234727,-0.20345752661089195
10.0,0.0,10.0,0.0,1.0,0.0,1.0,0.0,,,,left,0.9552020002156496,344.65206630015746,lb11,344.65206630015746,,339.8819090998732,341.8937336001545,True,6.0,['r'],True,0.46875,0.625,0.25,2.0,2.0,0.9634951148421658,-0.055384245573103,succ_gain,0.0,6.0,341.8937336001545,,lb11,1,2022-05-13_14h22.34.969,threat_forest,2021.2.3,59.94758171456369,True,19.0,0.5982142857142857,0.5372023809523809,-0.0446428571428572,-0.6243622448979592,1,0,1.0,-0.045832442317883,-0.055384245573103,0.46875,0.46875,0.625,0.25,0.75,0.625,6.625,6.625,1.0,2.0,1.0,6.0,0,1,0,1,-0.055384245573103,0.6818199380095047,0.21694151014221993,-0.2462349521298497,0.7097872131404734,0.20598932520275356,-0.13953350706629486,0.6109204921953818,0.23769664441113425,-0.17416113146920492,0.6590788463418572,0.22469392064654378,-0.19085252303785566,0.6642963703927057,0.22300670267578288,-0.19330203536843193,0.8521521225629664,0.12598888257439744,-0.31018289507939045,0.7971496975612097,0.1617020572392816,-0.28439359581712265,0.8143511997624042,0.15118332320793704,-0.2592549630060962,0.771427704558638,0.17632700119802872,-0.24132366678844375,0.8037970350954314,0.15770736146722525,-0.2032525318704371,0.5657286147114369,0.24567974920811544,-0.11330045981886899
10.0,0.0,10.0,0.0,2.0,0.0,2.0,0.0,,,,right,0.8747225999832153,350.4630535002798,lb11,345.6276559000835,347.62747000018135,350.4630535002798,,True,6.0,['r'],False,0.5714285714285714,0.5714285714285714,0.0,0.0,2.0,0.6216097450797566,0.0585643106180149,succ_gain,1.0,6.0,347.62747000018135,,lb11,1,2022-05-13_14h22.34.969,threat_forest,2021.2.3,59.94758171456369,True,19.0,0.5982142857142857,0.5372023809523809,-0.0446428571428572,-0.6243622448979592,1,1,1.0,-0.133848471479321,0.0585643106180149,0.5714285714285714,0.5714285714285714,0.5714285714285714,0.0,1.2857142857142856,1.2857142857142856,7.285714285714286,7.0,0.0,2.0,-1.0,6.0,0,1,1,1,0.0585643106180149,0.639403900541974,0.23056655251368344,-0.169489951135535,0.7097872131404734,0.20598932520275356,-0.13953350706629486,0.6109204921953818,0.23769664441113425,-0.17416113146920492,0.6312599005966667,0.23277083849535318,-0.1756115405903717,0.5903254665787641,0.2418413100873286,-0.1429041659932727,0.8096473386157174,0.15411852568820333,-0.2579736535338863,0.8688958131610274,0.11391587903226431,-0.38014863233133794,0.8946408995982187,0.09425856036430877,-0.34293177816372666,0.771427704558638,0.17632700119802872,-0.24132366678844375,0.8734663515747372,0.11052288424145483,-0.2417810927100855,0.7307077795939912,0.19677392043481037,-0.18424737301208222
10.0,0.0,10.0,0.0,3.0,0.0,3.0,0.0,,,,left,1.0021409997716546,355.04946510028094,lb11,355.04946510028094,,351.3616720000282,353.3607272002846,True,6.0,['r'],True,0.46875,0.625,0.25,2.0,2.0,0.9634951148421658,-0.1360449499013472,succ_gain,0.0,6.0,353.3607272002846,,lb11,1,2022-05-13_14h22.34.969,threat_forest,2021.2.3,59.94758171456369,True,19.0,0.5982142857142857,0.5372023809523809,-0.0446428571428572,-0.6243622448979592,1,0,1.0,0.0021387110977615,-0.1360449499013472,0.0,0.46875,0.625,0.25,0.75,0.625,6.625,6.625,1.0,2.0,-1.0,6.0,0,0,0,1,-0.84,0.639403900541974,0.23056655251368344,-0.169489951135535,0.2799990094855455,0.20159956417265892,-0.4356261505632659,0.6109204921953818,0.23769664441113425,-0.17416113146920492,0.6590788463418572,0.22469392064654378,-0.19085252303785566,0.6642963703927057,0.22300670267578288,-0.19330203536843193,0.8521521225629664,0.12598888257439744,-0.31018289507939045,0.7971496975612097,0.1617020572392816,-0.28439359581712265,0.8143511997624042,0.15118332320793704,-0.2592549630060962,0.771427704558638,0.17632700119802872,-0.24132366678844375,0.2745278670563876,0.19916231726585798,-0.16940242097591127,0.43660065736596515,0.2459805233535722,-0.11286413151764751
10.0,0.0,10.0,0.0,4.0,0.0,4.0,0.0,,,,left,0.8336664997041225,359.49281449988484,lb11,359.49281449988484,,351.3616720000282,353.3607272002846,True,6.0,['r'],True,0.46875,0.625,0.25,2.0,2.0,0.9634951148421658,-0.0738313636001275,succ_gain,0.0,6.0,358.0777365998365,,lb11,1,2022-05-13_14h22.34.969,threat_forest,2021.2.3,59.94758171456369,True,19.0,0.5982142857142857,0.5372023809523809,-0.0446428571428572,-0.6243622448979592,1,0,1.0,-0.1819218370475907,-0.0738313636001275,0.0,0.46875,0.625,0.25,0.75,0.625,6.625,6.625,1.0,2.0,-1.0,6.0,0,0,0,1,-0.84,0.639403900541974,0.23056655251368344,-0.169489951135535,0.2799990094855455,0.20159956417265892,-0.4356261505632659,0.6109204921953818,0.23769664441113425,-0.17416113146920492,0.6590788463418572,0.22469392064654378,-0.19085252303785566,0.6642963703927057,0.22300670267578288,-0.19330203536843193,0.8521521225629664,0.12598888257439744,-0.31018289507939045,0.7971496975612097,0.1617020572392816,-0.28439359581712265,0.8143511997624042,0.15118332320793704,-0.2592549630060962,0.771427704558638,0.17632700119802872,-0.24132366678844375,0.2745278670563876,0.19916231726585798,-0.16940242097591127,0.5363494152943151,0.2486787200077614,-0.10894990025719153
10.0,0.0,10.0,0.0,5.0,0.0,5.0,0.0,,,,left,0.7568756002001464,363.7445514001884,lb11,363.7445514001884,,351.3616720000282,353.3607272002846,True,6.0,['r'],True,0.46875,0.625,0.25,2.0,2.0,0.9634951148421658,0.0,figh_cost,0.0,3.0,362.36080999998376,,lb11,1,2022-05-13_14h22.34.969,threat_forest,2021.2.3,59.94758171456369,True,19.0,0.5982142857142857,0.5372023809523809,-0.0446428571428572,-0.6243622448979592,1,0,1.0,-0.2785563716773785,0.0,0.0,0.46875,0.625,0.25,0.75,0.625,6.625,6.625,1.0,2.0,-1.0,6.0,0,0,0,1,-0.84,0.639403900541974,0.23056655251368344,-0.169489951135535,0.2799990094855455,0.20159956417265892,-0.4356261505632659,0.6109204921953818,0.23769664441113425,-0.17416113146920492,0.6590788463418572,0.22469392064654378,-0.19085252303785566,0.6642963703927057,0.22300670267578288,-0.19330203536843193,0.8521521225629664,0.12598888257439744,-0.31018289507939045,0.7971496975612097,0.1617020572392816,-0.28439359581712265,0.8143511997624042,0.15118332320793704,-0.2592549630060962,0.771427704558638,0.17632700119802872,-0.24132366678844375,0.2745278670563876,0.19916231726585798,-0.16940242097591127,0.6504667888955196,0.2273597454394712,-0.13987699986889263
10.0,0.0,10.0,0.0,6.0,0.0,6.0,0.0,,,,right,1.9804150997661047,368.6163571001962,lb11,364.5280683999881,366.5274342000485,368.6163571001962,,True,3.0,['r'],False,0.5714285714285714,0.5714285714285714,0.0,0.0,2.0,0.6216097450797566,-0.2056760204081633,unsucc_cost,1.0,1.0,366.5274342000485,,lb11,1,2022-05-13_14h22.34.969,threat_forest,2021.2.3,59.94758171456369,True,19.0,0.5982142857142857,0.5372023809523809,-0.0446428571428572,-0.6243622448979592,1,1,1.0,0.6833064690802373,-0.2056760204081633,0.0,0.5714285714285714,0.5714285714285714,0.0,1.2857142857142856,1.2857142857142856,4.285714285714286,4.285714285714286,0.0,2.0,-1.0,3.0,0,0,1,1,-0.84,0.639403900541974,0.23056655251368344,-0.169489951135535,0.2799990094855455,0.20159956417265892,-0.4356261505632659,0.6109204921953818,0.23769664441113425,-0.17416113146920492,0.6312599005966667,0.23277083849535318,-0.1756115405903717,0.5903254665787641,0.2418413100873286,-0.1429041659932727,0.8096473386157174,0.15411852568820333,-0.2579736535338863,0.8688958131610274,0.11391587903226431,-0.38014863233133794,0.8946408995982187,0.09425856036430877,-0.34293177816372666,0.771427704558638,0.17632700119802872,-0.24132366678844375,0.2745278670563876,0.19916231726585798,-0.16940242097591127,0.3310679179569467,0.22146195165659913,-0.14843283613709013
10.0,0.0,10.0,0.0,7.0,0.0,7.0,0.0,,,,left,0.8112980998121202,374.9332795999944,lb11,374.9332795999944,,370.6333293002099,372.6443266998977,True,1.0,['r'],True,0.46875,0.625,0.25,2.0,2.0,0.9634951148421658,0.46875,figh_cost,0.0,0.0,372.6443266998977,,lb11,1,2022-05-13_14h22.34.969,threat_forest,2021.2.3,59.94758171456369,True,19.0,0.5982142857142857,0.5372023809523809,-0.0446428571428572,-0.6243622448979592,1,0,1.0,-0.2091197217358139,0.46875,1.0,0.46875,0.625,0.25,0.75,0.625,1.625,1.625,1.0,2.0,-1.0,1.0,1,1,0,1,0.625,0.639403900541974,0.23056655251368344,-0.169489951135535,0.7097872131404734,0.20598932520275356,-0.13953350706629486,0.8837195114307325,0.10275933654735994,-0.24787625648011619,0.6590788463418572,0.22469392064654378,-0.19085252303785566,0.6642963703927057,0.22300670267578288,-0.19330203536843193,0.8521521225629664,0.12598888257439744,-0.31018289507939045,0.7971496975612097,0.1617020572392816,-0.28439359581712265,0.8143511997624042,0.15118332320793704,-0.2592549630060962,0.771427704558638,0.17632700119802872,-0.24132366678844375,0.9838532785804697,0.015886004806930497,-0.3190569889655623,0.9744094160924728,0.024935705922798927,-0.43353035612584606
11.0,0.0,11.0,0.0,0.0,0.0,0.0,0.0,379.464476400055,382.9640823001973,,right,1.1146145998500288,385.6784383999184,lb11,385.6784383999184,,379.464476400055,382.9640823001973,False,4.0,['p'],True,0.32,0.4,0.2,1.0,1.0,0.9455672104350704,0.0193852844836012,wait_cost,0.0,3.0,,,lb11,1,2022-05-13_14h22.34.969,threat_forest,2021.2.3,59.94758171456369,False,61.0,0.325,0.4616071428571429,-1.354375,-0.6995089285714287,0,0,0.0,0.1085086948025092,0.0193852844836012,0.32,0.32,0.4,0.2,-0.3999999999999999,-0.24,3.76,3.76,1.0,1.0,-1.0,4.0,0,1,0,0,0.0193852844836012,0.639403900541974,0.23056655251368344,-0.169489951135535,0.7097872131404734,0.20598932520275356,-0.13953350706629486,0.6109204921953818,0.23769664441113425,-0.17416113146920492,0.6590788463418572,0.22469392064654378,-0.19085252303785566,0.6500051713744731,0.227498448560915,-0.1812829676257972,0.6166529185788409,0.23639209658703833,-0.1052720810862694,0.5613405789362274,0.2462373333757685,-0.11499987660984162,0.627534178845141,0.2337350332262956,-0.13790769979258433,0.5093159334346684,0.24991321338424083,-0.1208462662182882,0.6579832134693658,0.22504130426189284,-0.14827089248245515,0.6782897348996199,0.21821277042942325,-0.15314637201319192
11.0,0.0,11.0,0.0,1.0,0.0,1.0,0.0,,,,left,1.3254232998006046,391.4332767999731,lb11,386.8196898000315,388.82812680024654,391.4332767999731,,False,3.0,['p'],False,0.21875,0.25,0.125,1.0,1.0,0.7908280489481783,0.0119374428081254,wait_cost,1.0,2.0,388.82812680024654,,lb11,1,2022-05-13_14h22.34.969,threat_forest,2021.2.3,59.94758171456369,False,61.0,0.325,0.4616071428571429,-1.354375,-0.6995089285714287,0,0,0.0,0.2817318799656428,0.0119374428081254,0.21875,0.21875,0.25,0.125,-0.625,-0.46875,2.53125,2.53125,0.0,1.0,-1.0,3.0,0,1,0,0,0.0119374428081254,0.639403900541974,0.23056655251368344,-0.169489951135535,0.7097872131404734,0.20598932520275356,-0.13953350706629486,0.6109204921953818,0.23769664441113425,-0.17416113146920492,0.6312599005966667,0.23277083849535318,-0.1756115405903717,0.6280605103796285,0.23360050568130905,-0.1649550096836072,0.4072260042761183,0.24139298571742518,-0.09599031993863116,0.5067717602954961,0.24995414326250034,-0.1075520479745703,0.4676277769446238,0.24895203917445297,-0.11553939239226546,0.5093159334346684,0.24991321338424083,-0.1208462662182882,0.5348968520525625,0.24878220971682155,-0.1288852179134258,0.6677359480856331,0.22186465171981387,-0.14784864551719018
11.0,0.0,11.0,0.0,2.0,0.0,2.0,0.0,,,,left,1.2889690999872985,398.5727869002149,lb11,386.8196898000315,388.82812680024654,398.5727869002149,,False,2.0,['p'],False,0.21875,0.25,0.125,1.0,1.0,0.7908280489481783,0.0057226981557463,wait_cost,1.0,1.0,394.7947173002176,,lb11,1,2022-05-13_14h22.34.969,threat_forest,2021.2.3,59.94758171456369,False,61.0,0.325,0.4616071428571429,-1.354375,-0.6995089285714287,0,0,0.0,0.2538427515884884,0.0057226981557463,0.21875,0.21875,0.25,0.125,-0.625,-0.46875,1.53125,1.53125,0.0,1.0,-1.0,2.0,0,1,0,0,0.0057226981557463,0.639403900541974,0.23056655251368344,-0.169489951135535,0.7097872131404734,0.20598932520275356,-0.13953350706629486,0.6109204921953818,0.23769664441113425,-0.17416113146920492,0.6312599005966667,0.23277083849535318,-0.1756115405903717,0.6280605103796285,0.23360050568130905,-0.1649550096836072,0.4072260042761183,0.24139298571742518,-0.09599031993863116,0.5067717602954961,0.24995414326250034,-0.1075520479745703,0.4676277769446238,0.24895203917445297,-0.11553939239226546,0.5093159334346684,0.24991321338424083,-0.1208462662182882,0.5348968520525625,0.24878220971682155,-0.1288852179134258,0.6587981545046323,0.22478314612592298,-0.1436148317882605
11.0,0.0,11.0,0.0,3.0,0.0,3.0,0.0,,,,right,0.4542231000959873,404.8246245998889,lb11,404.8246245998889,,399.8874560999684,401.8945932001807,False,1.0,['p'],True,0.32,0.4,0.2,1.0,1.0,0.9455672104350704,0.0364120585156251,wait_cost,0.0,0.0,401.8945932001807,,lb11,1,2022-05-13_14h22.34.969,threat_forest,2021.2.3,59.94758171456369,False,61.0,0.325,0.4616071428571429,-1.354375,-0.6995089285714287,0,0,0.0,-0.7891667917400385,0.0364120585156251,1.0,0.32,0.4,0.2,-0.3999999999999999,-0.24,0.76,1.0,1.0,1.0,-1.0,1.0,1,1,0,0,0.625,0.639403900541974,0.23056655251368344,-0.169489951135535,0.7097872131404734,0.20598932520275356,-0.13953350706629486,0.8837195114307325,0.10275933654735994,-0.24787625648011619,0.6590788463418572,0.22469392064654378,-0.19085252303785566,0.6500051713744731,0.227498448560915,-0.1812829676257972,0.6166529185788409,0.23639209658703833,-0.1052720810862694,0.5613405789362274,0.2462373333757685,-0.11499987660984162,0.627534178845141,0.2337350332262956,-0.13790769979258433,0.5093159334346684,0.24991321338424083,-0.1208462662182882,0.9838532785804697,0.015886004806930497,-0.3190569889655623,0.7017336623866137,0.20930352946008376,-0.16607086714032832
12.0,0.0,12.0,0.0,0.0,0.0,0.0,0.0,409.8664386002347,413.3664289000444,,right,0.5800787000916898,417.0245273001492,lb11,409.8664386002347,413.3664289000444,417.0245273001492,,True,4.0,['p'],False,0.25,0.5,0.5,1.0,2.0,0.9463946303571862,0.0192737415335937,succ_gain,1.0,6.0,,,lb11,1,2022-05-13_14h22.34.969,threat_forest,2021.2.3,59.94758171456369,True,8.0,0.35,0.3375,-1.5300000000000002,-1.4421875000000002,0,0,1.0,-0.5445914948334437,0.0192737415335937,0.25,0.25,0.5,0.5,-0.5,-0.5,3.5,3.5,0.0,2.0,-1.0,4.0,0,1,0,0,0.0192737415335937,0.639403900541974,0.23056655251368344,-0.169489951135535,0.7097872131404734,0.20598932520275356,-0.13953350706629486,0.6109204921953818,0.23769664441113425,-0.17416113146920492,0.6312599005966667,0.23277083849535318,-0.1756115405903717,0.7309973001461287,0.19664024732519933,-0.26385371418017667,0.7393460637444645,0.19271346177003074,-0.18634059611551962,0.5371916604885909,0.2486167803901014,-0.11023188627686226,0.517831279749118,0.2496820454625087,-0.11446631631468313,0.5093159334346684,0.24991321338424083,-0.1208462662182882,0.5741033020904482,0.24450870061929178,-0.1323747586468143,0.6781329767924695,0.21826864257905348,-0.15306531916838462
12.0,0.0,12.0,0.0,1.0,0.0,1.0,0.0,,,,left,0.8215152998454869,420.8536879001185,lb11,420.8536879001185,,417.62972269998863,419.645175000187,True,6.0,['p'],True,0.16,0.2,0.2,2.0,2.0,0.8198746470064713,-0.0746401575431251,unsucc_cost,0.0,4.0,419.645175000187,,lb11,1,2022-05-13_14h22.34.969,threat_forest,2021.2.3,59.94758171456369,True,8.0,0.35,0.3375,-1.5300000000000002,-1.4421875000000002,0,0,1.0,-0.196604717398893,-0.0746401575431251,0.16,0.16,0.2,0.2,-0.8000000000000003,-0.5600000000000003,5.44,5.44,1.0,2.0,1.0,6.0,0,1,0,0,-0.0746401575431251,0.6818199380095047,0.21694151014221993,-0.2462349521298497,0.7097872131404734,0.20598932520275356,-0.13953350706629486,0.6109204921953818,0.23769664441113425,-0.17416113146920492,0.6590788463418572,0.22469392064654378,-0.19085252303785566,0.6500051713744731,0.227498448560915,-0.1812829676257972,0.34095341775400967,0.22470418467586944,-0.1269651048357709,0.4641501675027245,0.24871478950991735,-0.11003549336161289,0.37575665629662264,0.23456359154540443,-0.13668975670679867,0.5093159334346684,0.24991321338424083,-0.1208462662182882,0.4604018147474543,0.24843198372470512,-0.12917119551110734,0.53505399744101,0.24877121726340568,-0.10881571594968859
12.0,0.0,12.0,0.0,2.0,0.0,2.0,0.0,,,,right,0.8380616996437311,424.8322275001556,lb11,424.8322275001556,,417.62972269998863,419.645175000187,False,4.0,['p'],True,0.16,0.2,0.2,2.0,2.0,0.8198746470064713,-0.0245241806250002,wait_cost,0.0,3.0,423.7000842001289,,lb11,1,2022-05-13_14h22.34.969,threat_forest,2021.2.3,59.94758171456369,False,8.0,0.35,0.3375,-1.5300000000000002,-1.4421875000000002,0,0,0.0,-0.1766635539505853,-0.0245241806250002,0.16,0.16,0.2,0.2,-0.8000000000000003,-0.5600000000000003,3.4399999999999995,3.4399999999999995,1.0,2.0,-1.0,4.0,0,1,0,0,-0.0245241806250002,0.639403900541974,0.23056655251368344,-0.169489951135535,0.7097872131404734,0.20598932520275356,-0.13953350706629486,0.6109204921953818,0.23769664441113425,-0.17416113146920492,0.6590788463418572,0.22469392064654378,-0.19085252303785566,0.6500051713744731,0.227498448560915,-0.1812829676257972,0.34095341775400967,0.22470418467586944,-0.1269651048357709,0.4641501675027245,0.24871478950991735,-0.11003549336161289,0.37575665629662264,0.23456359154540443,-0.13668975670679867,0.5093159334346684,0.24991321338424083,-0.1208462662182882,0.4604018147474543,0.24843198372470512,-0.12917119551110734,0.6137654937548845,0.23705741243070738,-0.1258087475672473
12.0,0.0,12.0,0.0,3.0,0.0,3.0,0.0,,,,right,0.6815244001336396,429.39409970026463,lb11,429.39409970026463,,417.62972269998863,419.645175000187,False,3.0,['p'],True,0.16,0.2,0.2,2.0,2.0,0.8198746470064713,-0.0286352800000001,wait_cost,0.0,2.0,427.6952042002231,,lb11,1,2022-05-13_14h22.34.969,threat_forest,2021.2.3,59.94758171456369,False,8.0,0.35,0.3375,-1.5300000000000002,-1.4421875000000002,0,0,0.0,-0.3834232249154778,-0.0286352800000001,0.16,0.16,0.2,0.2,-0.8000000000000003,-0.5600000000000003,2.4399999999999995,2.4399999999999995,1.0,2.0,-1.0,3.0,0,1,0,0,-0.0286352800000001,0.639403900541974,0.23056655251368344,-0.169489951135535,0.7097872131404734,0.20598932520275356,-0.13953350706629486,0.6109204921953818,0.23769664441113425,-0.17416113146920492,0.6590788463418572,0.22469392064654378,-0.19085252303785566,0.6500051713744731,0.227498448560915,-0.1812829676257972,0.34095341775400967,0.22470418467586944,-0.1269651048357709,0.4641501675027245,0.24871478950991735,-0.11003549336161289,0.37575665629662264,0.23456359154540443,-0.13668975670679867,0.5093159334346684,0.24991321338424083,-0.1208462662182882,0.4604018147474543,0.24843198372470512,-0.12917119551110734,0.6074711833030166,0.2384499447594494,-0.12378862291699438
12.0,0.0,12.0,0.0,4.0,0.0,4.0,0.0,,,,right,1.1753787999041378,433.00955360010266,lb11,430.0957289002836,432.0952197001316,433.00955360010266,,True,2.0,['p'],False,0.25,0.5,0.5,1.0,2.0,0.9463946303571862,0.045,figh_cost,1.0,0.0,432.0952197001316,,lb11,1,2022-05-13_14h22.34.969,threat_forest,2021.2.3,59.94758171456369,True,8.0,0.35,0.3375,-1.5300000000000002,-1.4421875000000002,0,0,1.0,0.1615904785390605,0.045,0.25,0.25,0.5,0.5,-0.5,-0.5,1.5,1.5,0.0,2.0,-1.0,2.0,0,1,0,0,0.045,0.639403900541974,0.23056655251368344,-0.169489951135535,0.7097872131404734,0.20598932520275356,-0.13953350706629486,0.6109204921953818,0.23769664441113425,-0.17416113146920492,0.6312599005966667,0.23277083849535318,-0.1756115405903717,0.7309973001461287,0.19664024732519933,-0.26385371418017667,0.7393460637444645,0.19271346177003074,-0.18634059611551962,0.5371916604885909,0.2486167803901014,-0.11023188627686226,0.517831279749118,0.2496820454625087,-0.11446631631468313,0.5093159334346684,0.24991321338424083,-0.1208462662182882,0.5741033020904482,0.24450870061929178,-0.1323747586468143,0.7131779830884742,0.20455514752633022,-0.17295926979727538
13.0,0.0,13.0,0.0,0.0,0.0,0.0,0.0,439.004059900064,442.5090554999188,,left,1.0708026997745037,443.1799612999894,lb11,443.1799612999894,,439.004059900064,442.5090554999188,True,4.0,['p'],True,0.32,0.4,0.2,1.0,2.0,0.9455672104350704,0.0381787567431899,unsucc_cost,0.0,2.0,,,lb11,1,2022-05-13_14h22.34.969,threat_forest,2021.2.3,59.94758171456369,True,12.0,0.3111111111111111,0.3305555555555555,-1.1204938271604938,-1.325246913580247,1,0,1.0,0.068408553929563,0.0381787567431899,0.32,0.32,0.4,0.2,0.0,0.0799999999999999,4.08,4.08,1.0,2.0,-1.0,4.0,0,1,0,1,0.0381787567431899,0.639403900541974,0.23056655251368344,-0.169489951135535,0.7097872131404734,0.20598932520275356,-0.13953350706629486,0.6109204921953818,0.23769664441113425,-0.17416113146920492,0.6590788463418572,0.22469392064654378,-0.19085252303785566,0.6500051713744731,0.227498448560915,-0.1812829676257972,0.6166529185788409,0.23639209658703833,-0.1052720810862694,0.6540421468406011,0.22627101699673868,-0.15500883789663528,0.627534178845141,0.2337350332262956,-0.13790769979258433,0.771427704558638,0.17632700119802872,-0.24132366678844375,0.6579832134693658,0.22504130426189284,-0.14827089248245515,0.7041093579381144,0.20833937000209066,-0.1674695580343673
13.0,0.0,13.0,0.0,1.0,0.0,1.0,0.0,,,,right,0.8360338001511991,447.1657378999517,lb11,444.2934050001204,446.2955188001506,447.1657378999517,,True,2.0,['p'],False,0.1975308641975308,0.2222222222222222,0.1111111111111111,1.0,2.0,0.7461067557824965,-0.0130550838348044,figh_cost,1.0,0.0,446.2955188001506,,lb11,1,2022-05-13_14h22.34.969,threat_forest,2021.2.3,59.94758171456369,True,12.0,0.3111111111111111,0.3305555555555555,-1.1204938271604938,-1.325246913580247,1,0,1.0,-0.1790862359118685,-0.0130550838348044,0.1975308641975308,0.1975308641975308,0.2222222222222222,0.1111111111111111,-0.4444444444444444,-0.3209876543209877,1.6790123456790125,1.6790123456790125,0.0,2.0,-1.0,2.0,0,1,0,1,-0.0130550838348044,0.639403900541974,0.23056655251368344,-0.169489951135535,0.7097872131404734,0.20598932520275356,-0.13953350706629486,0.6109204921953818,0.23769664441113425,-0.17416113146920492,0.6312599005966667,0.23277083849535318,-0.1756115405903717,0.6239348940932447,0.23464014202609623,-0.1621731382297783,0.36981690624968677,0.2330523621015972,-0.11147070236784085,0.5506366523187467,0.24743592944195034,-0.11259810240672735,0.43384779481311037,0.24562388574891164,-0.12043162672216973,0.771427704558638,0.17632700119802872,-0.24132366678844375,0.5079965821748467,0.24993605467352092,-0.1279430439564908,0.6311197258118308,0.23280761750303036,-0.1319738579310949
14.0,0.0,14.0,0.0,0.0,0.0,0.0,0.0,452.34848689986393,455.8624304002151,,left,0.7503379001282156,458.44956640014425,lb11,458.44956640014425,,452.34848689986393,455.8624304002151,True,4.0,['r'],True,0.3333333333333333,0.5,0.3333333333333333,2.0,2.0,1.0,0.0039043511659807,figh_cost,0.0,1.0,,,lb11,1,2022-05-13_14h22.34.969,threat_forest,2021.2.3,59.94758171456369,True,2.0,0.45,0.3805555555555555,-0.7,-0.9102469135802468,0,0,1.0,-0.2872316404072399,0.0039043511659807,0.3333333333333333,0.3333333333333333,0.5,0.3333333333333333,0.0,0.0,4.0,4.0,1.0,2.0,-1.0,4.0,0,1,0,0,0.0039043511659807,0.639403900541974,0.23056655251368344,-0.169489951135535,0.7097872131404734,0.20598932520275356,-0.13953350706629486,0.6109204921953818,0.23769664441113425,-0.17416113146920492,0.6590788463418572,0.22469392064654378,-0.19085252303785566,0.6874509862311328,0.21486212776097563,-0.21509538702709385,0.7393460637444645,0.19271346177003074,-0.18634059611551962,0.6540421468406011,0.22627101699673868,-0.15500883789663528,0.6473529141306369,0.22828711869720913,-0.14591588663909244,0.5093159334346684,0.24991321338424083,-0.1208462662182882,0.6730634147215293,0.2200490544849239,-0.15234732207471982,0.6561612406770616,0.2256136669102008,-0.1424100084069731
14.0,0.0,14.0,0.0,1.0,0.0,1.0,0.0,,,,left,0.7608005995862186,463.0230016000569,lb11,463.0230016000569,,452.34848689986393,455.8624304002151,True,1.0,['r'],True,0.3333333333333333,0.5,0.3333333333333333,2.0,2.0,1.0,0.1139699588477365,figh_cost,0.0,0.0,461.229022399988,,lb11,1,2022-05-13_14h22.34.969,threat_forest,2021.2.3,59.94758171456369,True,2.0,0.45,0.3805555555555555,-0.7,-0.9102469135802468,0,0,1.0,-0.2733839796516106,0.1139699588477365,1.0,0.3333333333333333,0.5,0.3333333333333333,0.0,0.0,1.0,1.0,1.0,2.0,-1.0,1.0,1,1,0,0,0.625,0.639403900541974,0.23056655251368344,-0.169489951135535,0.7097872131404734,0.20598932520275356,-0.13953350706629486,0.8837195114307325,0.10275933654735994,-0.24787625648011619,0.6590788463418572,0.22469392064654378,-0.19085252303785566,0.6874509862311328,0.21486212776097563,-0.21509538702709385,0.7393460637444645,0.19271346177003074,-0.18634059611551962,0.6540421468406011,0.22627101699673868,-0.15500883789663528,0.6473529141306369,0.22828711869720913,-0.14591588663909244,0.5093159334346684,0.24991321338424083,-0.1208462662182882,0.9838532785804697,0.015886004806930497,-0.3190569889655623,0.7949460545433803,0.1630068249092933,-0.23323276504256063
15.0,0.0,15.0,0.0,0.0,0.0,0.0,0.0,466.58620799984783,470.0960209998302,,right,0.8282161001116037,473.3005152000114,lb11,466.58620799984783,470.0960209998302,473.3005152000114,,True,4.0,['r'],False,0.36,0.6,0.4,2.0,2.0,0.9801625908629508,-0.0020350304999999,unsucc_cost,1.0,2.0,,,lb11,1,2022-05-13_14h22.34.969,threat_forest,2021.2.3,59.94758171456369,True,67.0,0.55,0.5,-0.4800000000000001,-0.5900000000000001,0,0,1.0,-0.1884811681760147,-0.0020350304999999,0.36,0.36,0.6,0.4,0.1999999999999997,0.0399999999999998,4.04,4.04,0.0,2.0,-1.0,4.0,0,1,0,0,-0.0020350304999999,0.639403900541974,0.23056655251368344,-0.169489951135535,0.7097872131404734,0.20598932520275356,-0.13953350706629486,0.6109204921953818,0.23769664441113425,-0.17416113146920492,0.6312599005966667,0.23277083849535318,-0.1756115405903717,0.7053306625467521,0.20783931901811176,-0.23388710325116635,0.8333807611807081,0.13885726807457166,-0.28629888616533783,0.696773428230644,0.21128021794235963,-0.18504774380391997,0.6854571569118096,0.21560564295018836,-0.1645570798386915,0.5093159334346684,0.24991321338424083,-0.1208462662182882,0.7021549635267835,0.2091333707214848,-0.16126054122460431,0.6474814916632038,0.22824920961679634,-0.13858666823849192
15.0,0.0,15.0,0.0,1.0,0.0,1.0,0.0,,,,left,0.8433948997408152,479.4903226001188,lb11,479.4903226001188,,474.1462400001474,476.1458024000749,True,2.0,['r'],True,0.5,0.5,0.0,0.0,2.0,0.6309297535714574,0.0640913125000001,succ_gain,0.0,4.0,476.1458024000749,,lb11,1,2022-05-13_14h22.34.969,threat_forest,2021.2.3,59.94758171456369,True,67.0,0.55,0.5,-0.4800000000000001,-0.5900000000000001,1,0,1.0,-0.1703199849480818,0.0640913125000001,0.5,0.5,0.5,0.0,1.0,1.0,3.0,3.0,1.0,2.0,-1.0,2.0,0,1,0,1,0.0640913125000001,0.639403900541974,0.23056655251368344,-0.169489951135535,0.7097872131404734,0.20598932520275356,-0.13953350706629486,0.6109204921953818,0.23769664441113425,-0.17416113146920492,0.6590788463418572,0.22469392064654378,-0.19085252303785566,0.5903254665787641,0.2418413100873286,-0.1429041659932727,0.7393460637444645,0.19271346177003074,-0.18634059611551962,0.8337555090742133,0.13860726016261274,-0.33067147825803467,0.8428463471337047,0.13245638225707523,-0.28678271539599526,0.771427704558638,0.17632700119802872,-0.24132366678844375,0.8276402812542099,0.14265184609966228,-0.21554613718126586,0.737653420192438,0.1935208518708365,-0.18896654818626524
15.0,0.0,15.0,0.0,2.0,0.0,2.0,0.0,,,,left,0.6679398003034294,484.2846752000041,lb11,484.2846752000041,,474.1462400001474,476.1458024000749,True,4.0,['r'],True,0.5,0.5,0.0,0.0,2.0,0.6309297535714574,0.10350625,unsucc_cost,0.0,2.0,482.3792317998596,,lb11,1,2022-05-13_14h22.34.969,threat_forest,2021.2.3,59.94758171456369,True,67.0,0.55,0.5,-0.4800000000000001,-0.5900000000000001,1,0,1.0,-0.4035572288127234,0.10350625,0.5,0.5,0.5,0.0,1.0,1.0,5.0,5.0,1.0,2.0,1.0,4.0,0,1,0,1,0.10350625,0.6818199380095047,0.21694151014221993,-0.2462349521298497,0.7097872131404734,0.20598932520275356,-0.13953350706629486,0.6109204921953818,0.23769664441113425,-0.17416113146920492,0.6590788463418572,0.22469392064654378,-0.19085252303785566,0.5903254665787641,0.2418413100873286,-0.1429041659932727,0.7393460637444645,0.19271346177003074,-0.18634059611551962,0.8337555090742133,0.13860726016261274,-0.33067147825803467,0.8428463471337047,0.13245638225707523,-0.28678271539599526,0.771427704558638,0.17632700119802872,-0.24132366678844375,0.8276402812542099,0.14265184609966228,-0.21554613718126586,0.7837440964715578,0.16948928771753932,-0.223828758655782
15.0,0.0,15.0,0.0,3.0,0.0,3.0,0.0,,,,right,0.8170730001293123,487.5972207002342,lb11,484.9794939002022,486.97936460003257,487.5972207002342,,True,2.0,['r'],False,0.36,0.6,0.4,2.0,2.0,0.9801625908629508,-0.0060019999999999,succ_gain,1.0,4.0,486.97936460003257,,lb11,1,2022-05-13_14h22.34.969,threat_forest,2021.2.3,59.94758171456369,True,67.0,0.55,0.5,-0.4800000000000001,-0.5900000000000001,0,0,1.0,-0.2020268366702699,-0.0060019999999999,0.36,0.36,0.6,0.4,0.1999999999999997,0.0399999999999998,2.04,2.04,0.0,2.0,-1.0,2.0,0,1,0,0,-0.0060019999999999,0.639403900541974,0.23056655251368344,-0.169489951135535,0.7097872131404734,0.20598932520275356,-0.13953350706629486,0.6109204921953818,0.23769664441113425,-0.17416113146920492,0.6312599005966667,0.23277083849535318,-0.1756115405903717,0.7053306625467521,0.20783931901811176,-0.23388710325116635,0.8333807611807081,0.13885726807457166,-0.28629888616533783,0.696773428230644,0.21128021794235963,-0.18504774380391997,0.6854571569118096,0.21560564295018836,-0.1645570798386915,0.5093159334346684,0.24991321338424083,-0.1208462662182882,0.7021549635267835,0.2091333707214848,-0.16126054122460431,0.6416290669628235,0.22994120739124008,-0.13613211379707746
15.0,0.0,15.0,0.0,4.0,0.0,4.0,0.0,,,,left,0.8916388000361621,491.4583393000066,lb11,491.4583393000066,,488.4464934999123,490.446160200052,True,4.0,['r'],True,0.5,0.5,0.0,0.0,2.0,0.6309297535714574,0.1425,succ_gain,0.0,6.0,490.446160200052,,lb11,1,2022-05-13_14h22.34.969,threat_forest,2021.2.3,59.94758171456369,True,67.0,0.55,0.5,-0.4800000000000001,-0.5900000000000001,1,0,1.0,-0.1146941611043959,0.1425,0.5,0.5,0.5,0.0,1.0,1.0,5.0,5.0,1.0,2.0,1.0,4.0,0,1,0,1,0.1425,0.6818199380095047,0.21694151014221993,-0.2462349521298497,0.7097872131404734,0.20598932520275356,-0.13953350706629486,0.6109204921953818,0.23769664441113425,-0.17416113146920492,0.6590788463418572,0.22469392064654378,-0.19085252303785566,0.5903254665787641,0.2418413100873286,-0.1429041659932727,0.7393460637444645,0.19271346177003074,-0.18634059611551962,0.8337555090742133,0.13860726016261274,-0.33067147825803467,0.8428463471337047,0.13245638225707523,-0.28678271539599526,0.771427704558638,0.17632700119802872,-0.24132366678844375,0.8276402812542099,0.14265184609966228,-0.21554613718126586,0.8232786250002515,0.1454909306179468,-0.2586427961770903
15.0,0.0,15.0,0.0,5.0,0.0,5.0,0.0,,,,right,0.5935047999955714,497.20427539991215,lb11,497.20427539991215,,488.4464934999123,490.446160200052,False,6.0,['r'],True,0.5,0.5,0.0,0.0,2.0,0.6309297535714574,0.0,wait_cost,0.0,5.0,494.39628100022674,,lb11,1,2022-05-13_14h22.34.969,threat_forest,2021.2.3,59.94758171456369,False,67.0,0.55,0.5,-0.4800000000000001,-0.5900000000000001,1,0,0.0,-0.5217099773567425,0.0,0.0,0.5,0.5,0.0,1.0,1.0,7.0,7.0,1.0,2.0,1.0,6.0,0,0,0,1,-0.84,0.6818199380095047,0.21694151014221993,-0.2462349521298497,0.2799990094855455,0.20159956417265892,-0.4356261505632659,0.6109204921953818,0.23769664441113425,-0.17416113146920492,0.6590788463418572,0.22469392064654378,-0.19085252303785566,0.5903254665787641,0.2418413100873286,-0.1429041659932727,0.7393460637444645,0.19271346177003074,-0.18634059611551962,0.8337555090742133,0.13860726016261274,-0.33067147825803467,0.8428463471337047,0.13245638225707523,-0.28678271539599526,0.771427704558638,0.17632700119802872,-0.24132366678844375,0.2745278670563876,0.19916231726585798,-0.16940242097591127,0.6504667888955196,0.2273597454394712,-0.13987699986889263
15.0,0.0,15.0,0.0,6.0,0.0,6.0,0.0,,,,right,0.5098117999732494,503.2536144000478,lb11,503.2536144000478,,488.4464934999123,490.446160200052,False,5.0,['r'],True,0.5,0.5,0.0,0.0,2.0,0.6309297535714574,0.0,wait_cost,0.0,4.0,499.8459910000674,,lb11,1,2022-05-13_14h22.34.969,threat_forest,2021.2.3,59.94758171456369,False,67.0,0.55,0.5,-0.4800000000000001,-0.5900000000000001,1,0,0.0,-0.6737136410285708,0.0,0.0,0.5,0.5,0.0,1.0,1.0,6.0,6.0,1.0,2.0,-1.0,5.0,0,0,0,1,-0.84,0.639403900541974,0.23056655251368344,-0.169489951135535,0.2799990094855455,0.20159956417265892,-0.4356261505632659,0.6109204921953818,0.23769664441113425,-0.17416113146920492,0.6590788463418572,0.22469392064654378,-0.19085252303785566,0.5903254665787641,0.2418413100873286,-0.1429041659932727,0.7393460637444645,0.19271346177003074,-0.18634059611551962,0.8337555090742133,0.13860726016261274,-0.33067147825803467,0.8428463471337047,0.13245638225707523,-0.28678271539599526,0.771427704558638,0.17632700119802872,-0.24132366678844375,0.2745278670563876,0.19916231726585798,-0.16940242097591127,0.6504667888955196,0.2273597454394712,-0.13987699986889263
15.0,0.0,15.0,0.0,7.0,0.0,7.0,0.0,,,,left,0.7911029001697898,506.4477468999103,lb11,503.7797678001225,505.7801103000529,506.4477468999103,,False,4.0,['r'],False,0.36,0.6,0.4,2.0,2.0,0.9801625908629508,0.0,wait_cost,1.0,3.0,505.7801103000529,,lb11,1,2022-05-13_14h22.34.969,threat_forest,2021.2.3,59.94758171456369,False,67.0,0.55,0.5,-0.4800000000000001,-0.5900000000000001,0,0,0.0,-0.2343272309650584,0.0,0.0,0.36,0.6,0.4,0.1999999999999997,0.0399999999999998,4.04,4.04,0.0,2.0,-1.0,4.0,0,0,0,0,-0.84,0.639403900541974,0.23056655251368344,-0.169489951135535,0.2799990094855455,0.20159956417265892,-0.4356261505632659,0.6109204921953818,0.23769664441113425,-0.17416113146920492,0.6312599005966667,0.23277083849535318,-0.1756115405903717,0.7053306625467521,0.20783931901811176,-0.23388710325116635,0.8333807611807081,0.13885726807457166,-0.28629888616533783,0.696773428230644,0.21128021794235963,-0.18504774380391997,0.6854571569118096,0.21560564295018836,-0.1645570798386915,0.5093159334346684,0.24991321338424083,-0.1208462662182882,0.2745278670563876,0.19916231726585798,-0.16940242097591127,0.6504667888955196,0.2273597454394712,-0.13987699986889263
16.0,0.0,16.0,0.0,0.0,0.0,0.0,0.0,511.2194690001197,514.7146471999586,,right,0.9770352998748422,516.0282141999342,lb11,511.2194690001197,514.7146471999586,516.0282141999342,,True,5.0,['p'],False,0.4444444444444445,0.6666666666666666,0.3333333333333333,1.0,2.0,0.9656336071428248,0.0210978181405199,figh_cost,1.0,2.0,,,lb11,1,2022-05-13_14h22.34.969,threat_forest,2021.2.3,59.94758171456369,True,53.0,0.5,0.525,-0.8703703703703706,-0.6751851851851853,1,0,1.0,-0.0232324967068572,0.0210978181405199,0.4444444444444445,0.4444444444444445,0.6666666666666666,0.3333333333333333,0.6666666666666665,0.4444444444444444,5.444444444444445,5.444444444444445,0.0,2.0,-1.0,5.0,0,1,0,1,0.0210978181405199,0.639403900541974,0.23056655251368344,-0.169489951135535,0.7097872131404734,0.20598932520275356,-0.13953350706629486,0.6109204921953818,0.23769664441113425,-0.17416113146920492,0.6312599005966667,0.23277083849535318,-0.1756115405903717,0.6874509862311328,0.21486212776097563,-0.21509538702709385,0.8795226338563433,0.10596257039074398,-0.3473521746835416,0.7836850982481429,0.16952276503194152,-0.26872228272301146,0.7895444576320586,0.16616400705455708,-0.23723403835838225,0.771427704558638,0.17632700119802872,-0.24132366678844375,0.7835860261012064,0.16957896580012594,-0.19355875424064944,0.6806914083342973,0.21735061495416824,-0.15439708734091906
16.0,0.0,16.0,0.0,1.0,0.0,1.0,0.0,,,,left,0.9862259002402424,520.8523201001808,lb11,520.8523201001808,,517.0299713001586,519.0297811999917,True,2.0,['p'],True,0.2592592592592592,0.3333333333333333,0.2222222222222222,2.0,2.0,0.9327883776363324,-0.0266009982502498,unsucc_cost,0.0,0.0,519.0297811999917,,lb11,1,2022-05-13_14h22.34.969,threat_forest,2021.2.3,59.94758171456369,True,53.0,0.5,0.525,-0.8703703703703706,-0.6751851851851853,0,0,1.0,-0.0138698428719494,-0.0266009982502498,0.2592592592592592,0.2592592592592592,0.3333333333333333,0.2222222222222222,-0.3333333333333335,-0.1851851851851855,1.8148148148148144,1.8148148148148144,1.0,2.0,-1.0,2.0,0,1,0,0,-0.0266009982502498,0.639403900541974,0.23056655251368344,-0.169489951135535,0.7097872131404734,0.20598932520275356,-0.13953350706629486,0.6109204921953818,0.23769664441113425,-0.17416113146920492,0.6590788463418572,0.22469392064654378,-0.19085252303785566,0.6563919526346349,0.22554155715112617,-0.18651924123091912,0.5242877633821847,0.249410104549891,-0.08111036956280193,0.5772870362110828,0.2440267140337067,-0.11942956619290762,0.5326829666574567,0.2489318236904676,-0.11556910823528815,0.5093159334346684,0.24991321338424083,-0.1208462662182882,0.5855656502261556,0.24267851950137526,-0.13386919598500546,0.6105903835549523,0.23776976706516847,-0.12477534595272483
17.0,0.0,17.0,0.0,0.0,0.0,0.0,0.0,526.1760256001726,529.6803864999674,,left,0.6970911999233067,532.3192750001326,lb11,532.3192750001326,,526.1760256001726,529.6803864999674,True,5.0,['p'],True,0.2040816326530612,0.2857142857142857,0.2857142857142857,2.0,2.0,0.9335459102197724,-0.0417655517413427,figh_cost,0.0,2.0,,,lb11,1,2022-05-13_14h22.34.969,threat_forest,2021.2.3,59.94758171456369,True,21.0,0.4761904761904761,0.4880952380952381,-1.012471655328798,-0.9414210128495843,0,0,1.0,-0.3608390304063514,-0.0417655517413427,0.2040816326530612,0.2040816326530612,0.2857142857142857,0.2857142857142857,-0.7142857142857144,-0.4693877551020406,4.530612244897959,4.530612244897959,1.0,2.0,-1.0,5.0,0,1,0,0,-0.0417655517413427,0.639403900541974,0.23056655251368344,-0.169489951135535,0.7097872131404734,0.20598932520275356,-0.13953350706629486,0.6109204921953818,0.23769664441113425,-0.17416113146920492,0.6590788463418572,0.22469392064654378,-0.19085252303785566,0.6743250227984908,0.21961078642630566,-0.20238886897268427,0.45688956420458354,0.24814149032552926,-0.0834649457015677,0.48499931526621914,0.24977497945751764,-0.10791106050354515,0.4442257605793579,0.24688923421704895,-0.11857162196169019,0.5093159334346684,0.24991321338424083,-0.1208462662182882,0.5163134527568578,0.24973387125914975,-0.12810813714898492,0.5871370104070518,0.24240714141732134,-0.11804798024072183
