miniblock.thisRepN,miniblock.thisTrialN,miniblock.thisN,miniblock.thisIndex,day.thisRepN,day.thisTrialN,day.thisN,day.thisIndex,forest.started,fixation_forest.started,fixation_forest.stopped,key_resp.keys,key_resp.rt,key_resp.started,Subject_ID,weather_left.started,weather_left.stopped,weather_right.started,weather_right.stopped,foraging T/F,in_LP,p/r heuristic,good_weather.T/F,p_succ_correct,p_succ_uncorrected,r_threat,n_oponents,gain_if_succ,weather_entropy,OP_value_difference,action_outcome,forest_side_L=0_R=1,out_LP,fixation_day.started,fixation_day.stopped,participant,session,date,expName,psychopyVersion,frameRate,foraging T/F NaNs,fora_NR,forest_mean_p,mvt_cutoff_p,forest_mean_ev,mvt_cutoff_ev,mvt_policy_eg,mvt_policy_p,fora_response,logRT,optimal policy,$\mathit{p}$ success cor + cap,$\mathit{p}$ success cor,$\mathit{p}$ success,risk threat encounter,expected gain naive,expected gain correct,expected state no bounds,expected state with bounds,weather type,gain magnitude,win stay lose shift,continuous energy state,binary energy state,$\mathit{p}$ success based MVT,expected gain based MVT,weather type fit,weather type_uncertain,weather type_uncertain_fit,risk threat encounter fit,risk threat encounter_uncertain,risk threat encounter_uncertain_fit,win stay lose shift fit,win stay lose shift_uncertain,win stay lose shift_uncertain_fit,$\mathit{p}$ success fit,$\mathit{p}$ success_uncertain,$\mathit{p}$ success_uncertain_fit,expected gain naive fit,expected gain naive_uncertain,expected gain naive_uncertain_fit,expected gain based MVT fit,expected gain based MVT_uncertain,expected gain based MVT_uncertain_fit,$\mathit{p}$ success cor fit,$\mathit{p}$ success cor_uncertain,$\mathit{p}$ success cor_uncertain_fit,binary energy state fit,binary energy state_uncertain,binary energy state_uncertain_fit,$\mathit{p}$ success cor + cap fit,$\mathit{p}$ success cor + cap_uncertain,$\mathit{p}$ success cor + cap_uncertain_fit,optimal policy fit,optimal policy_uncertain,optimal policy_uncertain_fit
0.0,0.0,0.0,0.0,0.0,0.0,0.0,0.0,13.983258962631226,17.495529890060425,None,left,0.9139389991760254,20.317471981048584,os8,13.983258962631226,17.495529890060425,20.317471981048584,None,False,4.0,['p'],False,0.1875,0.25,0.25,2.0,1.0,0.895754137500101,-0.0017291066874999,wait_cost,1.0,3.0,,,os8,1,2023-02-28_10h20.45.819,threat_forest,2021.2.3,59.989072882728,False,57.0,0.4583333333333333,0.4583333333333333,-1.34375,-1.34375,0,0,0,-0.0899914502628646,-0.0017291066874999,0.1875,0.1875,0.25,0.75,-2.0,-1.6875,2.3125,2.3125,0.0,1.0,,4.0,0,0,0,0.47894238576855397,0.2495565768828796,0.2741671111572952,0.46086443126589044,0.2484684072598578,0.25655870564893596,,,,0.3980262679904981,0.23960135798005425,0.32003362972668725,0.31263646903312786,0.21489490726362598,0.20080435331180957,0.333330978688639,0.2222214373351131,0.3498435122962551,0.30116263410366423,0.21046370192340672,0.21117993721901596,0.40729017746586055,0.2414048888056884,0.32921391892230245,0.20819213749210744,0.16484817137857485,0.29297500630277085,0.35506019651848425,0.2289924533667396,0.3971683906487545
0.0,0.0,0.0,0.0,1.0,0.0,1.0,0.0,,,,left,2.522274971008301,25.20548796653748,os8,13.983258962631226,17.495529890060425,25.20548796653748,None,False,3.0,['p'],False,0.1875,0.25,0.25,2.0,1.0,0.895754137500101,0.0033269309357997,wait_cost,1.0,2.0,23.25098705291748,None,os8,1,2023-02-28_10h20.45.819,threat_forest,2021.2.3,59.989072882728,False,57.0,0.4583333333333333,0.4583333333333333,-1.34375,-1.34375,0,0,0,0.9251612605480768,0.0033269309357997,0.1875,0.1875,0.25,0.75,-2.0,-1.6875,1.3125,1.3125,0.0,1.0,-1.0,3.0,0,0,0,0.47894238576855397,0.2495565768828796,0.2741671111572952,0.46086443126589044,0.2484684072598578,0.25655870564893596,0.5300347155666775,0.2490979158608288,0.24848045920972528,0.3980262679904981,0.23960135798005425,0.32003362972668725,0.31263646903312786,0.21489490726362598,0.20080435331180957,0.333330978688639,0.2222214373351131,0.3498435122962551,0.30116263410366423,0.21046370192340672,0.21117993721901596,0.40729017746586055,0.2414048888056884,0.32921391892230245,0.20819213749210744,0.16484817137857485,0.29297500630277085,0.3807742049876538,0.235785209803674,0.4098032888180376
0.0,0.0,0.0,0.0,2.0,0.0,2.0,0.0,,,,left,0.8375232219696045,33.36758804321289,os8,33.36758804321289,None,27.760000944137573,29.77489399909973,True,2.0,['p'],True,0.4444444444444445,0.6666666666666666,0.3333333333333333,1.0,1.0,0.9656336071428248,0.0419213577407721,figh_cost,0.0,0.0,29.77489399909973,None,os8,1,2023-02-28_10h20.45.819,threat_forest,2021.2.3,59.989072882728,True,57.0,0.4583333333333333,0.4583333333333333,-1.34375,-1.34375,1,0,1,-0.1773062879424209,0.0419213577407721,0.4444444444444445,0.4444444444444445,0.6666666666666666,0.6666666666666667,-1.0,-1.0,1.0,1.0,1.0,1.0,-1.0,2.0,0,0,1,0.4936760004078691,0.24996000702915877,0.2565119613718174,0.41600730385655516,0.24294522699455492,0.2646565435384458,0.5300347155666775,0.2490979158608288,0.24848045920972528,0.5853804777590438,0.24271017401763736,0.28759874222819715,0.4881762690774995,0.24986019938707224,0.30050588194805283,0.6379277951202289,0.23097592333327213,0.18245902228213762,0.6171464705513385,0.2362767044373644,0.286697218183524,0.40729017746586055,0.2414048888056884,0.32921391892230245,0.6926767307417867,0.21287567743065702,0.4283246639252355,0.5885636847506717,0.24215647374338367,0.4216541879096275
1.0,0.0,1.0,0.0,0.0,0.0,0.0,0.0,39.780051946640015,43.28937005996704,None,right,2.104271173477173,46.707956075668335,os8,46.707956075668335,None,39.780051946640015,43.28937005996704,False,5.0,['r'],True,0.24,0.3,0.2,2.0,2.0,0.9003120349047065,-0.0006443703968158,wait_cost,0.0,4.0,,,os8,1,2023-02-28_10h20.45.819,threat_forest,2021.2.3,59.989072882728,False,55.0,0.2928571428571428,0.3755952380952381,-1.0485714285714285,-1.1961607142857142,0,0,0,0.7439691713030365,-0.0006443703968158,0.24,0.24,0.3,0.8,-1.4,-1.24,3.76,3.76,1.0,2.0,-1.0,5.0,0,0,0,0.4936760004078691,0.24996000702915877,0.2565119613718174,0.48813482322055546,0.24985921757999258,0.2545195622629666,0.5300347155666775,0.2490979158608288,0.24848045920972528,0.4200265943006938,0.24360425438085417,0.2782706264294599,0.4149568322609254,0.24276765962090363,0.28028191087114085,0.333330978688639,0.2222214373351131,0.3498435122962551,0.36072505878389216,0.2306024907492497,0.27009701101636807,0.40729017746586055,0.2414048888056884,0.32921391892230245,0.28969571115072595,0.20577210609160113,0.40830559511089126,0.36051263079521495,0.23054327383232798,0.40005300146079653
1.0,0.0,1.0,0.0,1.0,0.0,1.0,0.0,,,,left,1.9381048679351809,51.8827428817749,os8,51.8827428817749,None,39.780051946640015,43.28937005996704,True,4.0,['r'],True,0.24,0.3,0.2,2.0,2.0,0.9003120349047065,0.006419000614582,unsucc_cost,0.0,2.0,50.83864903450012,None,os8,1,2023-02-28_10h20.45.819,threat_forest,2021.2.3,59.989072882728,True,55.0,0.2928571428571428,0.3755952380952381,-1.0485714285714285,-1.1961607142857142,0,0,1,0.6617106234262663,0.006419000614582,0.24,0.24,0.3,0.8,-1.4,-1.24,2.76,2.76,1.0,2.0,-1.0,4.0,0,0,0,0.4936760004078691,0.24996000702915877,0.2565119613718174,0.48813482322055546,0.24985921757999258,0.2545195622629666,0.5300347155666775,0.2490979158608288,0.24848045920972528,0.4200265943006938,0.24360425438085417,0.2782706264294599,0.4149568322609254,0.24276765962090363,0.28028191087114085,0.333330978688639,0.2222214373351131,0.3498435122962551,0.36072505878389216,0.2306024907492497,0.27009701101636807,0.40729017746586055,0.2414048888056884,0.32921391892230245,0.28969571115072595,0.20577210609160113,0.40830559511089126,0.3968467578549831,0.2393594086349715,0.41645149395971864
1.0,0.0,1.0,0.0,2.0,0.0,2.0,0.0,,,,right,2.0289831161499023,58.29197502136231,os8,53.85144090652466,55.85404396057129,58.29197502136231,None,True,2.0,['r'],False,0.2857142857142857,0.2857142857142857,0.0,0.0,2.0,0.5445684476282007,0.0171645014577258,unsucc_cost,1.0,0.0,55.85404396057129,None,os8,1,2023-02-28_10h20.45.819,threat_forest,2021.2.3,59.989072882728,True,55.0,0.2928571428571428,0.3755952380952381,-1.0485714285714285,-1.1961607142857142,1,0,1,0.7075347395423738,0.0171645014577258,0.2857142857142857,0.2857142857142857,0.2857142857142857,1.0,-0.8571428571428572,-0.8571428571428572,1.1428571428571428,1.1428571428571428,0.0,2.0,-1.0,2.0,0,0,1,0.47894238576855397,0.2495565768828796,0.2741671111572952,0.5963078409931736,0.24072479976323363,0.2679120338358836,0.5300347155666775,0.2490979158608288,0.24848045920972528,0.41370419248798146,0.24255303360584865,0.2892382189666778,0.5146169872399902,0.24978634368402594,0.3002952866392471,0.6379277951202289,0.23097592333327213,0.18245902228213762,0.41641464902095593,0.24301348910171006,0.3064060319884927,0.40729017746586055,0.2414048888056884,0.32921391892230245,0.3741138817087158,0.23415268522155278,0.4882868805059859,0.45424045678599917,0.24790606420484593,0.43234874035974336
2.0,0.0,2.0,0.0,0.0,0.0,0.0,0.0,65.19639301300049,68.70090389251709,None,left,1.1169559955596924,69.25829195976257,os8,69.25829195976257,None,65.19639301300049,68.70090389251709,True,4.0,['r'],True,0.5,0.5,0.0,0.0,2.0,0.6309297535714574,0.096737473125,unsucc_cost,0.0,2.0,,,os8,1,2023-02-28_10h20.45.819,threat_forest,2021.2.3,59.989072882728,True,67.0,0.55,0.4214285714285714,-0.4800000000000001,-0.7642857142857142,1,1,1,0.1106071241093445,0.096737473125,0.5,0.5,0.5,1.0,0.0,0.0,4.0,4.0,1.0,2.0,-1.0,4.0,0,1,1,0.4936760004078691,0.24996000702915877,0.2565119613718174,0.5963078409931736,0.24072479976323363,0.2679120338358836,0.5300347155666775,0.2490979158608288,0.24848045920972528,0.5103640455257783,0.24989258656033964,0.2126632233766519,0.6666816818721797,0.2222172169282615,0.22168350009927662,0.6379277951202289,0.23097592333327213,0.18245902228213762,0.6819376905826349,0.21689867674545743,0.23000579063818227,0.40729017746586055,0.2414048888056884,0.32921391892230245,0.7819741787371228,0.1704905625255251,0.3088762215164772,0.825950048696256,0.14375656575490836,0.23862498189524128
2.0,0.0,2.0,0.0,1.0,0.0,1.0,0.0,,,,left,1.2222239971160889,74.966726064682,os8,74.966726064682,None,65.19639301300049,68.70090389251709,True,2.0,['r'],True,0.5,0.5,0.0,0.0,2.0,0.6309297535714574,0.0640913125000001,succ_gain,0.0,4.0,72.40500402450562,None,os8,1,2023-02-28_10h20.45.819,threat_forest,2021.2.3,59.989072882728,True,67.0,0.55,0.4214285714285714,-0.4800000000000001,-0.7642857142857142,1,1,1,0.2006721476469876,0.0640913125000001,0.5,0.5,0.5,1.0,0.0,0.0,2.0,2.0,1.0,2.0,-1.0,2.0,0,1,1,0.4936760004078691,0.24996000702915877,0.2565119613718174,0.5963078409931736,0.24072479976323363,0.2679120338358836,0.5300347155666775,0.2490979158608288,0.24848045920972528,0.5103640455257783,0.24989258656033964,0.2126632233766519,0.6666816818721797,0.2222172169282615,0.22168350009927662,0.6379277951202289,0.23097592333327213,0.18245902228213762,0.6819376905826349,0.21689867674545743,0.23000579063818227,0.40729017746586055,0.2414048888056884,0.32921391892230245,0.7819741787371228,0.1704905625255251,0.3088762215164772,0.6991013716817467,0.210358643794447,0.36250848658218326
2.0,0.0,2.0,0.0,2.0,0.0,2.0,0.0,,,,left,2.1952569484710693,80.6475579738617,os8,80.6475579738617,None,65.19639301300049,68.70090389251709,True,4.0,['r'],True,0.5,0.5,0.0,0.0,2.0,0.6309297535714574,0.10350625,succ_gain,0.0,6.0,78.2119529247284,None,os8,1,2023-02-28_10h20.45.819,threat_forest,2021.2.3,59.989072882728,True,67.0,0.55,0.4214285714285714,-0.4800000000000001,-0.7642857142857142,1,1,1,0.7862991004829184,0.10350625,0.5,0.5,0.5,1.0,0.0,0.0,4.0,4.0,1.0,2.0,1.0,4.0,0,1,1,0.4936760004078691,0.24996000702915877,0.2565119613718174,0.5963078409931736,0.24072479976323363,0.2679120338358836,0.2968749064081806,0.2087401963533146,0.349854101727346,0.5103640455257783,0.24989258656033964,0.2126632233766519,0.6666816818721797,0.2222172169282615,0.22168350009927662,0.6379277951202289,0.23097592333327213,0.18245902228213762,0.6819376905826349,0.21689867674545743,0.23000579063818227,0.40729017746586055,0.2414048888056884,0.32921391892230245,0.7819741787371228,0.1704905625255251,0.3088762215164772,0.8462212783909546,0.1301308263893331,0.2132803620838864
2.0,0.0,2.0,0.0,3.0,0.0,3.0,0.0,,,,left,1.5418980121612549,87.74113607406616,os8,82.87323999404907,84.88586807250977,87.74113607406616,None,False,6.0,['r'],False,0.36,0.6,0.4,2.0,2.0,0.9801625908629508,-0.238868,wait_cost,1.0,5.0,84.88586807250977,None,os8,1,2023-02-28_10h20.45.819,threat_forest,2021.2.3,59.989072882728,False,67.0,0.55,0.4214285714285714,-0.4800000000000001,-0.7642857142857142,0,0,0,0.4330141329805474,-0.238868,0.0,0.36,0.6,0.6,-0.8000000000000003,-0.9600000000000002,5.04,5.04,0.0,2.0,1.0,6.0,0,0,0,0.47894238576855397,0.2495565768828796,0.2741671111572952,0.38106184339780697,0.23585371490407217,0.2750537988409721,0.2968749064081806,0.2087401963533146,0.349854101727346,0.5556498105047064,0.24690309859079032,0.2438531377357549,0.5251786733367307,0.2493660344090022,0.29909679880531426,0.333330978688639,0.2222214373351131,0.3498435122962551,0.5109716214655943,0.24987962352241577,0.32649326523104716,0.40729017746586055,0.2414048888056884,0.32921391892230245,0.051971122851219305,0.049270125240802785,-0.03274352999717228,0.003065311023307459,0.003055914891637849,-0.023085917430273398
2.0,0.0,2.0,0.0,4.0,0.0,4.0,0.0,,,,left,1.284964084625244,91.97681784629822,os8,82.87323999404907,84.88586807250977,91.97681784629822,None,False,5.0,['r'],False,0.36,0.6,0.4,2.0,2.0,0.9801625908629508,-0.3124,wait_cost,1.0,4.0,91.3262369632721,None,os8,1,2023-02-28_10h20.45.819,threat_forest,2021.2.3,59.989072882728,False,67.0,0.55,0.4214285714285714,-0.4800000000000001,-0.7642857142857142,0,0,0,0.2507307682486013,-0.3124,0.0,0.36,0.6,0.6,-0.8000000000000003,-0.9600000000000002,4.04,4.04,0.0,2.0,-1.0,5.0,0,0,0,0.47894238576855397,0.2495565768828796,0.2741671111572952,0.38106184339780697,0.23585371490407217,0.2750537988409721,0.5300347155666775,0.2490979158608288,0.24848045920972528,0.5556498105047064,0.24690309859079032,0.2438531377357549,0.5251786733367307,0.2493660344090022,0.29909679880531426,0.333330978688639,0.2222214373351131,0.3498435122962551,0.5109716214655943,0.24987962352241577,0.32649326523104716,0.40729017746586055,0.2414048888056884,0.32921391892230245,0.051971122851219305,0.049270125240802785,-0.03274352999717228,0.0006150896438542948,0.0006147113085843182,-0.027626689496626278
2.0,0.0,2.0,0.0,5.0,0.0,5.0,0.0,,,,left,1.0273361206054688,97.69972705841064,os8,82.87323999404907,84.88586807250977,97.69972705841064,None,False,4.0,['r'],False,0.36,0.6,0.4,2.0,2.0,0.9801625908629508,-0.3564,wait_cost,1.0,3.0,95.28038191795348,None,os8,1,2023-02-28_10h20.45.819,threat_forest,2021.2.3,59.989072882728,False,67.0,0.55,0.4214285714285714,-0.4800000000000001,-0.7642857142857142,0,0,0,0.0269691613398282,-0.3564,0.0,0.36,0.6,0.6,-0.8000000000000003,-0.9600000000000002,3.04,3.04,0.0,2.0,-1.0,4.0,0,0,0,0.47894238576855397,0.2495565768828796,0.2741671111572952,0.38106184339780697,0.23585371490407217,0.2750537988409721,0.5300347155666775,0.2490979158608288,0.24848045920972528,0.5556498105047064,0.24690309859079032,0.2438531377357549,0.5251786733367307,0.2493660344090022,0.29909679880531426,0.333330978688639,0.2222214373351131,0.3498435122962551,0.5109716214655943,0.24987962352241577,0.32649326523104716,0.40729017746586055,0.2414048888056884,0.32921391892230245,0.051971122851219305,0.049270125240802785,-0.03274352999717228,0.00023500370285759814,0.00023494847611724146,-0.028333069117513366
2.0,0.0,2.0,0.0,6.0,0.0,6.0,0.0,,,,right,2.099591016769409,102.59176588058472,os8,102.59176588058472,None,98.7564389705658,100.76972389221191,False,3.0,['r'],True,0.5,0.5,0.0,0.0,2.0,0.6309297535714574,-0.285,wait_cost,0.0,2.0,100.76972389221191,None,os8,1,2023-02-28_10h20.45.819,threat_forest,2021.2.3,59.989072882728,False,67.0,0.55,0.4214285714285714,-0.4800000000000001,-0.7642857142857142,1,1,0,0.7417425718430412,-0.285,0.0,0.5,0.5,1.0,0.0,0.0,3.0,3.0,1.0,2.0,-1.0,3.0,0,1,1,0.4936760004078691,0.24996000702915877,0.2565119613718174,0.5963078409931736,0.24072479976323363,0.2679120338358836,0.5300347155666775,0.2490979158608288,0.24848045920972528,0.5103640455257783,0.24989258656033964,0.2126632233766519,0.6666816818721797,0.2222172169282615,0.22168350009927662,0.6379277951202289,0.23097592333327213,0.18245902228213762,0.6819376905826349,0.21689867674545743,0.23000579063818227,0.40729017746586055,0.2414048888056884,0.32921391892230245,0.051971122851219305,0.049270125240802785,-0.03274352999717228,0.0011195335491804344,0.0011182801938126943,-0.0266900238521046
2.0,0.0,2.0,0.0,7.0,0.0,7.0,0.0,,,,left,1.831852912902832,108.01114797592165,os8,104.71732497215272,106.72664093971252,108.01114797592165,None,False,2.0,['r'],False,0.36,0.6,0.4,2.0,2.0,0.9801625908629508,-0.64,wait_cost,1.0,1.0,106.72664093971252,None,os8,1,2023-02-28_10h20.45.819,threat_forest,2021.2.3,59.989072882728,False,67.0,0.55,0.4214285714285714,-0.4800000000000001,-0.7642857142857142,0,0,0,0.6053279753119125,-0.64,0.0,0.36,0.6,0.6,-0.8000000000000003,-0.9600000000000002,1.0399999999999998,1.0399999999999998,0.0,2.0,-1.0,2.0,0,0,0,0.47894238576855397,0.2495565768828796,0.2741671111572952,0.38106184339780697,0.23585371490407217,0.2750537988409721,0.5300347155666775,0.2490979158608288,0.24848045920972528,0.5556498105047064,0.24690309859079032,0.2438531377357549,0.5251786733367307,0.2493660344090022,0.29909679880531426,0.333330978688639,0.2222214373351131,0.3498435122962551,0.5109716214655943,0.24987962352241577,0.32649326523104716,0.40729017746586055,0.2414048888056884,0.32921391892230245,0.051971122851219305,0.049270125240802785,-0.03274352999717228,4.751061220016467e-07,4.751058962758199e-07,-0.028769202399142928
3.0,0.0,3.0,0.0,0.0,0.0,0.0,0.0,114.31746101379396,117.82164907455444,None,right,1.4738140106201172,121.47596502304076,os8,114.31746101379396,117.82164907455444,121.47596502304076,None,True,4.0,['r'],False,0.2222222222222222,0.6666666666666666,0.6666666666666666,2.0,1.0,0.77250688571426,-0.0026222925028365,succ_gain,1.0,5.0,,,os8,1,2023-02-28_10h20.45.819,threat_forest,2021.2.3,59.989072882728,True,66.0,0.5,0.525,-1.5,-0.99,0,0,1,0.3878536057651477,-0.0026222925028365,0.2222222222222222,0.2222222222222222,0.6666666666666666,0.3333333333333333,-2.0,-2.0,2.0,2.0,0.0,1.0,-1.0,4.0,0,0,0,0.47894238576855397,0.2495565768828796,0.2741671111572952,0.255693060910524,0.19031411951273108,0.34182190042722893,0.5300347155666775,0.2490979158608288,0.24848045920972528,0.5853804777590438,0.24271017401763736,0.28759874222819715,0.31263646903312786,0.21489490726362598,0.20080435331180957,0.333330978688639,0.2222214373351131,0.3498435122962551,0.3399550717573498,0.22438562094380493,0.25190923516333885,0.40729017746586055,0.2414048888056884,0.32921391892230245,0.2600869363644635,0.19244172189701103,0.37073831158887993,0.3505986001621065,0.2276792217264779,0.39472570803508555
3.0,0.0,3.0,0.0,1.0,0.0,1.0,0.0,,,,left,2.868546962738037,125.81411504745483,os8,125.81411504745483,None,122.9830858707428,124.99667406082153,True,5.0,['r'],True,0.3333333333333333,0.3333333333333333,0.0,0.0,1.0,0.5793801642856949,0.0643615366051922,succ_gain,0.0,6.0,124.99667406082152,None,os8,1,2023-02-28_10h20.45.819,threat_forest,2021.2.3,59.989072882728,True,66.0,0.5,0.525,-1.5,-0.99,0,0,1,1.0538056168058605,0.0643615366051922,0.3333333333333333,0.3333333333333333,0.3333333333333333,1.0,-1.0000000000000002,-1.0000000000000002,4.0,4.0,1.0,1.0,1.0,5.0,0,0,0,0.4936760004078691,0.24996000702915877,0.2565119613718174,0.5963078409931736,0.24072479976323363,0.2679120338358836,0.2968749064081806,0.2087401963533146,0.349854101727346,0.4348779035477547,0.24575911255366442,0.25578856844810716,0.4881762690774995,0.2498601993870723,0.30050588194805294,0.333330978688639,0.2222214373351131,0.3498435122962551,0.47676168665217145,0.24945998079274811,0.3252655786066845,0.40729017746586055,0.2414048888056884,0.32921391892230245,0.47092614345019185,0.2491547108653212,0.530565133145745,0.7003434288894231,0.20986251050082863,0.36158565154438116
3.0,0.0,3.0,0.0,2.0,0.0,2.0,0.0,,,,left,1.2433369159698486,132.48958206176758,os8,128.7086079120636,130.71979689598083,132.48958206176758,None,False,6.0,['r'],False,0.2222222222222222,0.6666666666666666,0.6666666666666666,2.0,1.0,0.77250688571426,-0.145666628562719,wait_cost,1.0,5.0,130.71979689598083,None,os8,1,2023-02-28_10h20.45.819,threat_forest,2021.2.3,59.989072882728,False,66.0,0.5,0.525,-1.5,-0.99,0,0,0,0.2177988264605531,-0.145666628562719,0.2222222222222222,0.2222222222222222,0.6666666666666666,0.3333333333333333,-2.0,-2.0,4.0,4.0,0.0,1.0,1.0,6.0,0,0,0,0.47894238576855397,0.2495565768828796,0.2741671111572952,0.255693060910524,0.19031411951273108,0.34182190042722893,0.2968749064081806,0.2087401963533146,0.349854101727346,0.5853804777590438,0.24271017401763736,0.28759874222819715,0.31263646903312786,0.21489490726362598,0.20080435331180957,0.333330978688639,0.2222214373351131,0.3498435122962551,0.3399550717573498,0.22438562094380493,0.25190923516333885,0.40729017746586055,0.2414048888056884,0.32921391892230245,0.2600869363644635,0.19244172189701103,0.37073831158887993,0.023075077346597462,0.02254261815204601,0.013160415503373095
3.0,0.0,3.0,0.0,3.0,0.0,3.0,0.0,,,,left,1.7677180767059326,138.05759406089783,os8,128.7086079120636,130.71979689598083,138.05759406089783,None,False,5.0,['r'],False,0.2222222222222222,0.6666666666666666,0.6666666666666666,2.0,1.0,0.77250688571426,-0.1373742569730223,wait_cost,1.0,4.0,135.75864005088806,None,os8,1,2023-02-28_10h20.45.819,threat_forest,2021.2.3,59.989072882728,False,66.0,0.5,0.525,-1.5,-0.99,0,0,0,0.5696894926237984,-0.1373742569730223,0.2222222222222222,0.2222222222222222,0.6666666666666666,0.3333333333333333,-2.0,-2.0,3.0,3.0,0.0,1.0,-1.0,5.0,0,0,0,0.47894238576855397,0.2495565768828796,0.2741671111572952,0.255693060910524,0.19031411951273108,0.34182190042722893,0.5300347155666775,0.2490979158608288,0.24848045920972528,0.5853804777590438,0.24271017401763736,0.28759874222819715,0.31263646903312786,0.21489490726362598,0.20080435331180957,0.333330978688639,0.2222214373351131,0.3498435122962551,0.3399550717573498,0.22438562094380493,0.25190923516333885,0.40729017746586055,0.2414048888056884,0.32921391892230245,0.2600869363644635,0.19244172189701103,0.37073831158887993,0.027538319878706162,0.02677996081696422,0.021042104413709246
3.0,0.0,3.0,0.0,4.0,0.0,4.0,0.0,,,,left,2.2399940490722656,143.2166929244995,os8,128.7086079120636,130.71979689598083,143.2166929244995,None,False,4.0,['r'],False,0.2222222222222222,0.6666666666666666,0.6666666666666666,2.0,1.0,0.77250688571426,-0.0992798353909464,wait_cost,1.0,3.0,141.84857201576233,None,os8,1,2023-02-28_10h20.45.819,threat_forest,2021.2.3,59.989072882728,False,66.0,0.5,0.525,-1.5,-0.99,0,0,0,0.8064732091992524,-0.0992798353909464,0.2222222222222222,0.2222222222222222,0.6666666666666666,0.3333333333333333,-2.0,-2.0,2.0,2.0,0.0,1.0,-1.0,4.0,0,0,0,0.47894238576855397,0.2495565768828796,0.2741671111572952,0.255693060910524,0.19031411951273108,0.34182190042722893,0.5300347155666775,0.2490979158608288,0.24848045920972528,0.5853804777590438,0.24271017401763736,0.28759874222819715,0.31263646903312786,0.21489490726362598,0.20080435331180957,0.333330978688639,0.2222214373351131,0.3498435122962551,0.3399550717573498,0.22438562094380493,0.25190923516333885,0.40729017746586055,0.2414048888056884,0.32921391892230245,0.2600869363644635,0.19244172189701103,0.37073831158887993,0.061174681725491,0.057432340041275884,0.07805720479911521
3.0,0.0,3.0,0.0,5.0,0.0,5.0,0.0,,,,left,2.1635310649871826,149.4399778842926,os8,149.4399778842926,None,145.48582291603088,147.48816895484924,True,3.0,['r'],True,0.3333333333333333,0.3333333333333333,0.0,0.0,1.0,0.5793801642856949,0.2129629629629629,succ_gain,0.0,4.0,147.48816895484924,None,os8,1,2023-02-28_10h20.45.819,threat_forest,2021.2.3,59.989072882728,True,66.0,0.5,0.525,-1.5,-0.99,0,0,1,0.7717416392518612,0.2129629629629629,0.3333333333333333,0.3333333333333333,0.3333333333333333,1.0,-1.0000000000000002,-1.0000000000000002,2.0,2.0,1.0,1.0,-1.0,3.0,0,0,0,0.4936760004078691,0.24996000702915877,0.2565119613718174,0.5963078409931736,0.24072479976323363,0.2679120338358836,0.5300347155666775,0.2490979158608288,0.24848045920972528,0.4348779035477547,0.24575911255366442,0.25578856844810716,0.4881762690774995,0.2498601993870723,0.30050588194805294,0.333330978688639,0.2222214373351131,0.3498435122962551,0.47676168665217145,0.24945998079274811,0.3252655786066845,0.40729017746586055,0.2414048888056884,0.32921391892230245,0.47092614345019185,0.2491547108653212,0.530565133145745,0.9836934700088,0.01604062707084598,0.0010663567849031295
3.0,0.0,3.0,0.0,6.0,0.0,6.0,0.0,,,,left,0.7741820812225342,157.28329706192017,os8,151.63652396202087,153.6446568965912,157.28329706192017,None,False,4.0,['r'],False,0.2222222222222222,0.6666666666666666,0.6666666666666666,2.0,1.0,0.77250688571426,-0.4814814814814815,wait_cost,1.0,3.0,153.6446568965912,None,os8,1,2023-02-28_10h20.45.819,threat_forest,2021.2.3,59.989072882728,False,66.0,0.5,0.525,-1.5,-0.99,0,0,0,-0.2559481860011224,-0.4814814814814815,0.0,0.2222222222222222,0.6666666666666666,0.3333333333333333,-2.0,-2.0,2.0,2.0,0.0,1.0,1.0,4.0,0,0,0,0.47894238576855397,0.2495565768828796,0.2741671111572952,0.255693060910524,0.19031411951273108,0.34182190042722893,0.2968749064081806,0.2087401963533146,0.349854101727346,0.5853804777590438,0.24271017401763736,0.28759874222819715,0.31263646903312786,0.21489490726362598,0.20080435331180957,0.333330978688639,0.2222214373351131,0.3498435122962551,0.3399550717573498,0.22438562094380493,0.25190923516333885,0.40729017746586055,0.2414048888056884,0.32921391892230245,0.051971122851219305,0.049270125240802785,-0.03274352999717228,1.5234004411466074e-05,1.5233772336575672e-05,-0.028741750473062714
3.0,0.0,3.0,0.0,7.0,0.0,7.0,0.0,,,,right,0.9183139801025392,163.48893284797668,os8,163.48893284797668,None,158.08683705329895,160.10205698013306,False,3.0,['r'],True,0.3333333333333333,0.3333333333333333,0.0,0.0,1.0,0.5793801642856949,0.0,wait_cost,0.0,2.0,160.10205698013306,None,os8,1,2023-02-28_10h20.45.819,threat_forest,2021.2.3,59.989072882728,False,66.0,0.5,0.525,-1.5,-0.99,0,0,0,-0.0852159205838034,0.0,0.0,0.3333333333333333,0.3333333333333333,1.0,-1.0000000000000002,-1.0000000000000002,2.0,2.0,1.0,1.0,-1.0,3.0,0,0,0,0.4936760004078691,0.24996000702915877,0.2565119613718174,0.5963078409931736,0.24072479976323363,0.2679120338358836,0.5300347155666775,0.2490979158608288,0.24848045920972528,0.4348779035477547,0.24575911255366442,0.25578856844810716,0.4881762690774995,0.2498601993870723,0.30050588194805294,0.333330978688639,0.2222214373351131,0.3498435122962551,0.47676168665217145,0.24945998079274811,0.3252655786066845,0.40729017746586055,0.2414048888056884,0.32921391892230245,0.051971122851219305,0.049270125240802785,-0.03274352999717228,0.3637687843062729,0.23144105587060923,0.4017229251121463
4.0,0.0,4.0,0.0,0.0,0.0,0.0,0.0,169.1429078578949,172.64897203445437,None,left,2.342580795288086,173.7001268863678,os8,169.1429078578949,172.64897203445435,173.7001268863678,None,False,4.0,['r'],False,0.2222222222222222,0.6666666666666666,0.6666666666666666,2.0,1.0,0.77250688571426,-0.0341076534259416,wait_cost,1.0,3.0,,,os8,1,2023-02-28_10h20.45.819,threat_forest,2021.2.3,59.989072882728,False,30.0,0.5833333333333333,0.5416666666666666,-1.25,-1.375,0,0,0,0.851253225587115,-0.0341076534259416,0.2222222222222222,0.2222222222222222,0.6666666666666666,0.3333333333333333,-2.0,-2.0,2.0,2.0,0.0,1.0,-1.0,4.0,0,0,0,0.47894238576855397,0.2495565768828796,0.2741671111572952,0.255693060910524,0.19031411951273108,0.34182190042722893,0.5300347155666775,0.2490979158608288,0.24848045920972528,0.5853804777590438,0.24271017401763736,0.28759874222819715,0.31263646903312786,0.21489490726362598,0.20080435331180957,0.333330978688639,0.2222214373351131,0.3498435122962551,0.3399550717573498,0.22438562094380493,0.25190923516333885,0.40729017746586055,0.2414048888056884,0.32921391892230245,0.2600869363644635,0.19244172189701103,0.37073831158887993,0.21329369415922164,0.16779949419113405,0.28334614263513236
4.0,0.0,4.0,0.0,1.0,0.0,1.0,0.0,,,,left,1.099241018295288,180.3271999359131,os8,180.3271999359131,None,176.06941390037537,178.07222700119019,True,3.0,['r'],True,0.5,0.5,0.0,0.0,1.0,0.6309297535714574,0.1098696443115568,unsucc_cost,0.0,1.0,178.0722270011902,None,os8,1,2023-02-28_10h20.45.819,threat_forest,2021.2.3,59.989072882728,True,30.0,0.5833333333333333,0.5416666666666666,-1.25,-1.375,1,0,1,0.0946199582883291,0.1098696443115568,0.5,0.5,0.5,1.0,-0.5,-0.5,2.5,2.5,1.0,1.0,-1.0,3.0,0,0,1,0.4936760004078691,0.24996000702915877,0.2565119613718174,0.5963078409931736,0.24072479976323363,0.2679120338358836,0.5300347155666775,0.2490979158608288,0.24848045920972528,0.5103640455257783,0.24989258656033964,0.2126632233766519,0.5800443616855121,0.2435929001623589,0.2826350370279368,0.6379277951202289,0.23097592333327213,0.18245902228213762,0.6819376905826349,0.21689867674545743,0.23000579063818227,0.40729017746586055,0.2414048888056884,0.32921391892230245,0.7819741787371228,0.1704905625255251,0.3088762215164772,0.8634767726916834,0.11788463571363837,0.19050177822244924
4.0,0.0,4.0,0.0,2.0,0.0,2.0,0.0,,,,right,1.3041341304779053,184.82898998260492,os8,181.45855402946472,183.46101093292236,184.82898998260492,None,True,1.0,['r'],False,0.2222222222222222,0.6666666666666666,0.6666666666666666,2.0,1.0,0.77250688571426,0.0452835648148148,figh_cost,1.0,0.0,183.4610109329224,None,os8,1,2023-02-28_10h20.45.819,threat_forest,2021.2.3,59.989072882728,True,30.0,0.5833333333333333,0.5416666666666666,-1.25,-1.375,0,0,1,0.2655393190105919,0.0452835648148148,1.0,0.2222222222222222,0.6666666666666666,0.3333333333333333,-2.0,-2.0,-1.0,0.0,0.0,1.0,-1.0,1.0,1,0,0,0.47894238576855397,0.2495565768828796,0.2741671111572952,0.255693060910524,0.19031411951273108,0.34182190042722893,0.5300347155666775,0.2490979158608288,0.24848045920972528,0.5853804777590438,0.24271017401763736,0.28759874222819715,0.31263646903312786,0.21489490726362598,0.20080435331180957,0.333330978688639,0.2222214373351131,0.3498435122962551,0.3399550717573498,0.22438562094380493,0.25190923516333885,0.9999998874471432,1.1255284403461468e-07,-0.1478687499542583,0.9957564949974924,0.004225497667801253,-0.15968693016302096,0.6062515538485838,0.23871060730476146,0.4152446880311671
5.0,0.0,5.0,0.0,2.0,0.0,2.0,0.0,,,,left,1.3220791816711426,213.61130905151367,os8,189.74426102638245,193.25523805618286,213.61130905151367,None,False,3.0,['p'],False,0.24,0.3,0.2,2.0,1.0,0.9003120349047065,0.0003182842476561,wait_cost,1.0,2.0,209.85669803619385,None,os8,1,2023-02-28_10h20.45.819,threat_forest,2021.2.3,59.989072882728,False,9.0,0.4,0.4916666666666666,-1.3025,-1.27625,0,0,0,0.2792056349997893,0.0003182842476561,0.24,0.24,0.3,0.8,-1.7,-1.48,1.52,1.52,0.0,1.0,-1.0,3.0,0,0,0,0.47894238576855397,0.2495565768828796,0.2741671111572952,0.48813482322055546,0.24985921757999258,0.2545195622629666,0.5300347155666775,0.2490979158608288,0.24848045920972528,0.4200265943006938,0.24360425438085417,0.2782706264294599,0.3622373142427783,0.23102144241295697,0.246788245004116,0.333330978688639,0.2222214373351131,0.3498435122962551,0.36072505878389216,0.2306024907492497,0.27009701101636807,0.40729017746586055,0.2414048888056884,0.32921391892230245,0.28969571115072595,0.20577210609160113,0.40830559511089126,0.36538178741323285,0.23187793683994395,0.4025355475888817
5.0,0.0,5.0,0.0,3.0,0.0,3.0,0.0,,,,left,0.9235720634460448,219.9203629493713,os8,219.9203629493713,None,214.95828795433044,216.96436095237732,True,2.0,['p'],True,0.375,0.5,0.25,1.0,1.0,0.9850568223215076,0.0367406982421875,figh_cost,0.0,0.0,216.9643609523773,None,os8,1,2023-02-28_10h20.45.819,threat_forest,2021.2.3,59.989072882728,True,9.0,0.4,0.4916666666666666,-1.3025,-1.27625,1,0,1,-0.0795064494191512,0.0367406982421875,0.375,0.375,0.5,0.75,-1.25,-1.125,0.875,0.875,1.0,1.0,-1.0,2.0,0,0,1,0.4936760004078691,0.24996000702915877,0.2565119613718174,0.46086443126589044,0.2484684072598578,0.25655870564893596,0.5300347155666775,0.2490979158608288,0.24848045920972528,0.5103640455257783,0.24989258656033964,0.2126632233766519,0.442151862851468,0.24665359302844464,0.29136242750296637,0.6379277951202289,0.23097592333327213,0.18245902228213762,0.5301901169403551,0.24908855683912765,0.3241789585187137,0.40729017746586055,0.2414048888056884,0.32921391892230245,0.5577367988326956,0.24666646206055282,0.5235528260015911,0.5608711767348697,0.24629469984291227,0.4293515145920207
6.0,0.0,6.0,0.0,0.0,0.0,0.0,0.0,226.2438099384308,229.7453680038452,None,right,1.852895975112915,231.19690203666687,os8,226.2438099384308,229.74536800384521,231.19690203666687,None,True,4.0,['r'],False,0.25,0.25,0.0,0.0,1.0,0.5118595071429148,0.013244588621374,succ_gain,1.0,5.0,,,os8,1,2023-02-28_10h20.45.819,threat_forest,2021.2.3,59.989072882728,True,20.0,0.4583333333333333,0.4291666666666667,-1.625,-1.46375,1,0,1,0.6167498070943174,0.013244588621374,0.25,0.25,0.25,1.0,-1.25,-1.25,2.75,2.75,0.0,1.0,-1.0,4.0,0,0,1,0.47894238576855397,0.2495565768828796,0.2741671111572952,0.5963078409931736,0.24072479976323363,0.2679120338358836,0.5300347155666775,0.2490979158608288,0.24848045920972528,0.3980262679904981,0.23960135798005425,0.32003362972668725,0.442151862851468,0.24665359302844464,0.29136242750296637,0.6379277951202289,0.23097592333327213,0.18245902228213762,0.3726474426444548,0.23378132613500255,0.27939685921636004,0.40729017746586055,0.2414048888056884,0.32921391892230245,0.3071995958525541,0.2128280041605815,0.4281903125646742,0.4330779543992016,0.24552143981260469,0.4279132086801246
6.0,0.0,6.0,0.0,1.0,0.0,1.0,0.0,,,,right,2.606854200363159,238.7179839611053,os8,226.2438099384308,229.74536800384521,238.7179839611053,None,True,5.0,['r'],False,0.25,0.25,0.0,0.0,1.0,0.5118595071429148,0.0342150382295962,unsucc_cost,1.0,3.0,235.08459091186523,None,os8,1,2023-02-28_10h20.45.819,threat_forest,2021.2.3,59.989072882728,True,20.0,0.4583333333333333,0.4291666666666667,-1.625,-1.46375,1,0,1,0.9581442071746084,0.0342150382295962,0.25,0.25,0.25,1.0,-1.25,-1.25,3.75,3.75,0.0,1.0,1.0,5.0,0,0,1,0.47894238576855397,0.2495565768828796,0.2741671111572952,0.5963078409931736,0.24072479976323363,0.2679120338358836,0.2968749064081806,0.2087401963533146,0.349854101727346,0.3980262679904981,0.23960135798005425,0.32003362972668725,0.442151862851468,0.24665359302844464,0.29136242750296637,0.6379277951202289,0.23097592333327213,0.18245902228213762,0.3726474426444548,0.23378132613500255,0.27939685921636004,0.40729017746586055,0.2414048888056884,0.32921391892230245,0.3071995958525541,0.2128280041605815,0.4281903125646742,0.5472205850085866,0.2477702163514468,0.43209605592888684
6.0,0.0,6.0,0.0,2.0,0.0,2.0,0.0,,,,right,1.1754610538482666,245.09317588806152,os8,226.2438099384308,229.74536800384521,245.09317588806152,None,True,3.0,['r'],False,0.25,0.25,0.0,0.0,1.0,0.5118595071429148,0.0232278910774843,succ_gain,1.0,4.0,243.3608169555664,None,os8,1,2023-02-28_10h20.45.819,threat_forest,2021.2.3,59.989072882728,True,20.0,0.4583333333333333,0.4291666666666667,-1.625,-1.46375,1,0,1,0.1616604568866123,0.0232278910774843,0.25,0.25,0.25,1.0,-1.25,-1.25,1.75,1.75,0.0,1.0,-1.0,3.0,0,0,1,0.47894238576855397,0.2495565768828796,0.2741671111572952,0.5963078409931736,0.24072479976323363,0.2679120338358836,0.5300347155666775,0.2490979158608288,0.24848045920972528,0.3980262679904981,0.23960135798005425,0.32003362972668725,0.442151862851468,0.24665359302844464,0.29136242750296637,0.6379277951202289,0.23097592333327213,0.18245902228213762,0.3726474426444548,0.23378132613500255,0.27939685921636004,0.40729017746586055,0.2414048888056884,0.32921391892230245,0.3071995958525541,0.2128280041605815,0.4281903125646742,0.48727558324086345,0.2498380892181398,0.4359424124617999
6.0,0.0,6.0,0.0,3.0,0.0,3.0,0.0,,,,right,1.973194122314453,252.0230078697205,os8,252.0230078697205,None,246.29702186584475,248.3140778541565,False,4.0,['r'],True,0.2222222222222222,0.6666666666666666,0.6666666666666666,2.0,1.0,0.77250688571426,0.0012938969383476,wait_cost,0.0,3.0,248.3140778541565,None,os8,1,2023-02-28_10h20.45.819,threat_forest,2021.2.3,59.989072882728,False,20.0,0.4583333333333333,0.4291666666666667,-1.625,-1.46375,0,0,0,0.6796536116148771,0.0012938969383476,0.2222222222222222,0.2222222222222222,0.6666666666666666,0.3333333333333333,-2.0,-2.0,2.0,2.0,1.0,1.0,1.0,4.0,0,0,0,0.4936760004078691,0.24996000702915877,0.2565119613718174,0.255693060910524,0.19031411951273108,0.34182190042722893,0.2968749064081806,0.2087401963533146,0.349854101727346,0.5853804777590438,0.24271017401763736,0.28759874222819715,0.31263646903312786,0.21489490726362598,0.20080435331180957,0.333330978688639,0.2222214373351131,0.3498435122962551,0.3399550717573498,0.22438562094380493,0.25190923516333885,0.40729017746586055,0.2414048888056884,0.32921391892230245,0.2600869363644635,0.19244172189701103,0.37073831158887993,0.3703447290671709,0.2331895107193347,0.4049751466767407
6.0,0.0,6.0,0.0,4.0,0.0,4.0,0.0,,,,right,1.9033949375152588,258.97747588157654,os8,254.0205760002136,256.02466106414795,258.97747588157654,None,True,3.0,['r'],False,0.25,0.25,0.0,0.0,1.0,0.5118595071429148,0.0499855324074074,succ_gain,1.0,4.0,256.02466106414795,None,os8,1,2023-02-28_10h20.45.819,threat_forest,2021.2.3,59.989072882728,True,20.0,0.4583333333333333,0.4291666666666667,-1.625,-1.46375,1,0,1,0.6436391009463899,0.0499855324074074,0.25,0.25,0.25,1.0,-1.25,-1.25,1.75,1.75,0.0,1.0,-1.0,3.0,0,0,1,0.47894238576855397,0.2495565768828796,0.2741671111572952,0.5963078409931736,0.24072479976323363,0.2679120338358836,0.5300347155666775,0.2490979158608288,0.24848045920972528,0.3980262679904981,0.23960135798005425,0.32003362972668725,0.442151862851468,0.24665359302844464,0.29136242750296637,0.6379277951202289,0.23097592333327213,0.18245902228213762,0.3726474426444548,0.23378132613500255,0.27939685921636004,0.40729017746586055,0.2414048888056884,0.32921391892230245,0.3071995958525541,0.2128280041605815,0.4281903125646742,0.6305188493077662,0.2329648299753766,0.4045572282150874
6.0,0.0,6.0,0.0,5.0,0.0,5.0,0.0,,,,right,1.0115017890930176,265.20833802223206,os8,265.20833802223206,None,260.92036485672,262.9326410293579,False,4.0,['r'],True,0.2222222222222222,0.6666666666666666,0.6666666666666666,2.0,1.0,0.77250688571426,-0.5933641975308642,wait_cost,0.0,3.0,262.9326410293579,None,os8,1,2023-02-28_10h20.45.819,threat_forest,2021.2.3,59.989072882728,False,20.0,0.4583333333333333,0.4291666666666667,-1.625,-1.46375,0,0,0,0.0114361463764642,-0.5933641975308642,0.0,0.2222222222222222,0.6666666666666666,0.3333333333333333,-2.0,-2.0,2.0,2.0,1.0,1.0,1.0,4.0,0,0,0,0.4936760004078691,0.24996000702915877,0.2565119613718174,0.255693060910524,0.19031411951273108,0.34182190042722893,0.2968749064081806,0.2087401963533146,0.349854101727346,0.5853804777590438,0.24271017401763736,0.28759874222819715,0.31263646903312786,0.21489490726362598,0.20080435331180957,0.333330978688639,0.2222214373351131,0.3498435122962551,0.3399550717573498,0.22438562094380493,0.25190923516333885,0.40729017746586055,0.2414048888056884,0.32921391892230245,0.051971122851219305,0.049270125240802785,-0.03274352999717228,1.3178347682046118e-06,1.3178330315161365e-06,-0.02876763488061976
6.0,0.0,6.0,0.0,6.0,0.0,6.0,0.0,,,,left,1.867366075515747,271.79433393478394,os8,266.2523319721222,268.254891872406,271.79433393478394,None,False,3.0,['r'],False,0.25,0.25,0.0,0.0,1.0,0.5118595071429148,-0.5729166666666667,wait_cost,1.0,2.0,268.254891872406,None,os8,1,2023-02-28_10h20.45.819,threat_forest,2021.2.3,59.989072882728,False,20.0,0.4583333333333333,0.4291666666666667,-1.625,-1.46375,1,0,0,0.6245289222087378,-0.5729166666666667,0.0,0.25,0.25,1.0,-1.25,-1.25,1.75,1.75,0.0,1.0,-1.0,3.0,0,0,1,0.47894238576855397,0.2495565768828796,0.2741671111572952,0.5963078409931736,0.24072479976323363,0.2679120338358836,0.5300347155666775,0.2490979158608288,0.24848045920972528,0.3980262679904981,0.23960135798005425,0.32003362972668725,0.442151862851468,0.24665359302844464,0.29136242750296637,0.6379277951202289,0.23097592333327213,0.18245902228213762,0.3726474426444548,0.23378132613500255,0.27939685921636004,0.40729017746586055,0.2414048888056884,0.32921391892230245,0.051971122851219305,0.049270125240802785,-0.03274352999717228,2.061225887602209e-06,2.06122163895005e-06,-0.02876625213718676
6.0,0.0,6.0,0.0,7.0,0.0,7.0,0.0,,,,right,1.4822371006011963,278.60078406333923,os8,278.60078406333923,None,273.70059299468994,275.7130229473114,False,2.0,['r'],True,0.2222222222222222,0.6666666666666666,0.6666666666666666,2.0,1.0,0.77250688571426,-0.7777777777777778,wait_cost,0.0,1.0,275.7130229473114,None,os8,1,2023-02-28_10h20.45.819,threat_forest,2021.2.3,59.989072882728,False,20.0,0.4583333333333333,0.4291666666666667,-1.625,-1.46375,0,0,0,0.3935525009877431,-0.7777777777777778,0.0,0.2222222222222222,0.6666666666666666,0.3333333333333333,-2.0,-2.0,0.0,0.0,1.0,1.0,-1.0,2.0,0,0,0,0.4936760004078691,0.24996000702915877,0.2565119613718174,0.255693060910524,0.19031411951273108,0.34182190042722893,0.5300347155666775,0.2490979158608288,0.24848045920972528,0.5853804777590438,0.24271017401763736,0.28759874222819715,0.31263646903312786,0.21489490726362598,0.20080435331180957,0.333330978688639,0.2222214373351131,0.3498435122962551,0.3399550717573498,0.22438562094380493,0.25190923516333885,0.40729017746586055,0.2414048888056884,0.32921391892230245,0.051971122851219305,0.049270125240802785,-0.03274352999717228,2.3324460032165522e-08,2.3324459488135107e-08,-0.028770042737303374
7.0,0.0,7.0,0.0,0.0,0.0,0.0,0.0,285.26180696487427,288.7601180076599,None,left,0.8969471454620361,289.369521856308,os8,289.369521856308,None,285.26180696487427,288.7601180076599,True,4.0,['r'],True,0.6,0.6,0.0,0.0,2.0,0.6126016192893442,0.0913331728581944,unsucc_cost,0.0,2.0,,,os8,1,2023-02-28_10h20.45.819,threat_forest,2021.2.3,59.989072882728,True,62.0,0.6125,0.5354166666666667,0.0124999999999999,-0.80625,1,1,1,-0.1087583423360687,0.0913331728581944,0.6,0.6,0.6,1.0,0.3999999999999999,0.3999999999999999,4.4,4.4,1.0,2.0,-1.0,4.0,0,1,1,0.4936760004078691,0.24996000702915877,0.2565119613718174,0.5963078409931736,0.24072479976323363,0.2679120338358836,0.5300347155666775,0.2490979158608288,0.24848045920972528,0.5556498105047064,0.24690309859079032,0.2438531377357549,0.7289737703806488,0.19757101247766995,0.15140625916761508,0.6379277951202289,0.23097592333327213,0.18245902228213762,0.7817882050269841,0.17059540750767038,0.09454316901117532,0.40729017746586055,0.2414048888056884,0.32921391892230245,0.8921977439732234,0.0961809296223139,0.09945907292263248,0.8082946535324464,0.1549544066033089,0.2594535777898457
7.0,0.0,7.0,0.0,1.0,0.0,1.0,0.0,,,,left,2.4370341300964355,293.8880548477173,os8,290.29559803009033,292.2972559928894,293.8880548477173,None,False,2.0,['r'],False,0.46875,0.625,0.25,2.0,2.0,0.9634951148421658,-0.0137064703989028,wait_cost,1.0,1.0,292.2972559928894,None,os8,1,2023-02-28_10h20.45.819,threat_forest,2021.2.3,59.989072882728,False,62.0,0.6125,0.5354166666666667,0.0124999999999999,-0.80625,1,0,0,0.890781779508659,-0.0137064703989028,0.46875,0.46875,0.625,0.75,-0.25,-0.375,1.625,1.625,0.0,2.0,-1.0,2.0,0,0,1,0.47894238576855397,0.2495565768828796,0.2741671111572952,0.46086443126589044,0.2484684072598578,0.25655870564893596,0.5300347155666775,0.2490979158608288,0.24848045920972528,0.566857477534359,0.24553007769774265,0.25817813402395595,0.6243574762965681,0.2345352180891485,0.25680757517199493,0.6379277951202289,0.23097592333327213,0.18245902228213762,0.6461697874199046,0.2286343932456199,0.26433923944110116,0.40729017746586055,0.2414048888056884,0.32921391892230245,0.7341735240035321,0.19516276065576718,0.3784066603050452,0.29757188010955726,0.20902285627762054,0.3600238488055168
7.0,0.0,7.0,0.0,2.0,0.0,2.0,0.0,,,,right,1.2776539325714111,300.7404479980469,os8,290.29559803009033,292.2972559928894,300.7404479980469,None,True,1.0,['r'],False,0.46875,0.625,0.25,2.0,2.0,0.9634951148421658,0.3116130710095167,succ_gain,1.0,3.0,298.3544008731842,None,os8,1,2023-02-28_10h20.45.819,threat_forest,2021.2.3,59.989072882728,True,62.0,0.6125,0.5354166666666667,0.0124999999999999,-0.80625,1,0,1,0.2450255310002945,0.3116130710095167,1.0,0.46875,0.625,0.75,-0.25,-0.375,0.625,0.625,0.0,2.0,-1.0,1.0,1,0,1,0.47894238576855397,0.2495565768828796,0.2741671111572952,0.46086443126589044,0.2484684072598578,0.25655870564893596,0.5300347155666775,0.2490979158608288,0.24848045920972528,0.566857477534359,0.24553007769774265,0.25817813402395595,0.6243574762965681,0.2345352180891485,0.25680757517199493,0.6379277951202289,0.23097592333327213,0.18245902228213762,0.6461697874199046,0.2286343932456199,0.26433923944110116,0.9999998874471432,1.1255284403461468e-07,-0.1478687499542583,0.9957564949974924,0.004225497667801253,-0.15968693016302096,0.9980882548252248,0.0019080904051619182,-0.025220933699070778
7.0,0.0,7.0,0.0,3.0,0.0,3.0,0.0,,,,left,2.4698989391326904,304.5764939785004,os8,290.29559803009033,292.2972559928894,304.5764939785004,None,False,3.0,['r'],False,0.46875,0.625,0.25,2.0,2.0,0.9634951148421658,0.0092318544387817,wait_cost,1.0,2.0,304.0439138412476,None,os8,1,2023-02-28_10h20.45.819,threat_forest,2021.2.3,59.989072882728,False,62.0,0.6125,0.5354166666666667,0.0124999999999999,-0.80625,1,0,0,0.9041772344719364,0.0092318544387817,0.46875,0.46875,0.625,0.75,-0.25,-0.375,2.625,2.625,0.0,2.0,1.0,3.0,0,0,1,0.47894238576855397,0.2495565768828796,0.2741671111572952,0.46086443126589044,0.2484684072598578,0.25655870564893596,0.2968749064081806,0.2087401963533146,0.349854101727346,0.566857477534359,0.24553007769774265,0.25817813402395595,0.6243574762965681,0.2345352180891485,0.25680757517199493,0.6379277951202289,0.23097592333327213,0.18245902228213762,0.6461697874199046,0.2286343932456199,0.26433923944110116,0.40729017746586055,0.2414048888056884,0.32921391892230245,0.7341735240035321,0.19516276065576718,0.3784066603050452,0.411664925406082,0.24219691459648696,0.4217294101063282
7.0,0.0,7.0,0.0,5.0,0.0,5.0,0.0,,,,left,0.9365198612213136,318.9436950683594,os8,318.9436950683594,None,315.0751249790192,317.0752019882202,True,1.0,['r'],True,0.6,0.6,0.0,0.0,2.0,0.6126016192893442,0.6,succ_gain,0.0,3.0,317.0752019882202,None,os8,1,2023-02-28_10h20.45.819,threat_forest,2021.2.3,59.989072882728,True,62.0,0.6125,0.5354166666666667,0.0124999999999999,-0.80625,1,1,1,-0.065584549398358,0.6,1.0,0.6,0.6,1.0,0.3999999999999999,0.3999999999999999,1.4,1.4,1.0,2.0,-1.0,1.0,1,1,1,0.4936760004078691,0.24996000702915877,0.2565119613718174,0.5963078409931736,0.24072479976323363,0.2679120338358836,0.5300347155666775,0.2490979158608288,0.24848045920972528,0.5556498105047064,0.24690309859079032,0.2438531377357549,0.7289737703806488,0.19757101247766995,0.15140625916761508,0.6379277951202289,0.23097592333327213,0.18245902228213762,0.7817882050269841,0.17059540750767038,0.09454316901117532,0.9999998874471432,1.1255284403461468e-07,-0.1478687499542583,0.9957564949974924,0.004225497667801253,-0.15968693016302096,0.999996513460143,3.4865277012357115e-06,-0.028763600990023716
7.0,0.0,7.0,0.0,6.0,0.0,6.0,0.0,,,,right,0.7896051406860352,323.0983319282532,os8,323.0983319282532,None,315.0751249790192,317.0752019882202,False,3.0,['r'],True,0.6,0.6,0.0,0.0,2.0,0.6126016192893442,-0.18625,wait_cost,0.0,2.0,321.9138550758362,None,os8,1,2023-02-28_10h20.45.819,threat_forest,2021.2.3,59.989072882728,False,62.0,0.6125,0.5354166666666667,0.0124999999999999,-0.80625,1,1,0,-0.2362222803900929,-0.18625,0.0,0.6,0.6,1.0,0.3999999999999999,0.3999999999999999,3.4,3.4,1.0,2.0,1.0,3.0,0,1,1,0.4936760004078691,0.24996000702915877,0.2565119613718174,0.5963078409931736,0.24072479976323363,0.2679120338358836,0.2968749064081806,0.2087401963533146,0.349854101727346,0.5556498105047064,0.24690309859079032,0.2438531377357549,0.7289737703806488,0.19757101247766995,0.15140625916761508,0.6379277951202289,0.23097592333327213,0.18245902228213762,0.7817882050269841,0.17059540750767038,0.09454316901117532,0.40729017746586055,0.2414048888056884,0.32921391892230245,0.051971122851219305,0.049270125240802785,-0.03274352999717228,0.009627464522524803,0.00953477644939233,-0.011034880889346788
7.0,0.0,7.0,0.0,7.0,0.0,7.0,0.0,,,,right,0.5472869873046875,327.9818229675293,os8,327.9818229675293,None,315.0751249790192,317.0752019882202,False,2.0,['r'],True,0.6,0.6,0.0,0.0,2.0,0.6126016192893442,-0.4,wait_cost,0.0,1.0,325.9239778518677,None,os8,1,2023-02-28_10h20.45.819,threat_forest,2021.2.3,59.989072882728,False,62.0,0.6125,0.5354166666666667,0.0124999999999999,-0.80625,1,1,0,-0.6027819572803021,-0.4,0.0,0.6,0.6,1.0,0.3999999999999999,0.3999999999999999,2.4,2.4,1.0,2.0,-1.0,2.0,0,1,1,0.4936760004078691,0.24996000702915877,0.2565119613718174,0.5963078409931736,0.24072479976323363,0.2679120338358836,0.5300347155666775,0.2490979158608288,0.24848045920972528,0.5556498105047064,0.24690309859079032,0.2438531377357549,0.7289737703806488,0.19757101247766995,0.15140625916761508,0.6379277951202289,0.23097592333327213,0.18245902228213762,0.7817882050269841,0.17059540750767038,0.09454316901117532,0.40729017746586055,0.2414048888056884,0.32921391892230245,0.051971122851219305,0.049270125240802785,-0.03274352999717228,9.055425508782158e-05,9.054605501470711e-05,-0.028601665511770638
8.0,0.0,8.0,0.0,0.0,0.0,0.0,0.0,332.2474510669708,335.762099981308,None,left,2.3655991554260254,338.80147194862366,os8,332.2474510669708,335.762099981308,338.80147194862366,None,False,4.0,['r'],False,0.2,0.2,0.0,0.0,2.0,0.4554859150035951,0.0111872651087291,wait_cost,1.0,3.0,,,os8,1,2023-02-28_10h20.45.819,threat_forest,2021.2.3,59.989072882728,False,26.0,0.2111111111111111,0.4118055555555556,-1.3654320987654325,-0.6764660493827162,0,0,0,0.8610313325329121,0.0111872651087291,0.2,0.2,0.2,1.0,-1.2000000000000002,-1.2000000000000002,2.8,2.8,0.0,2.0,-1.0,4.0,0,0,0,0.47894238576855397,0.2495565768828796,0.2741671111572952,0.5963078409931736,0.24072479976323363,0.2679120338358836,0.5300347155666775,0.2490979158608288,0.24848045920972528,0.3764303589074108,0.2347305438002487,0.3708517894499197,0.4513029953952788,0.24762860174252777,0.29414260902939393,0.333330978688639,0.2222214373351131,0.3498435122962551,0.31483968539626667,0.2157156578958465,0.22654480748428263,0.40729017746586055,0.2414048888056884,0.32921391892230245,0.22594789871590895,0.1748954457817743,0.3212899296102042,0.42206301498423254,0.24392582636665203,0.42494528047685026
8.0,0.0,8.0,0.0,2.0,0.0,2.0,0.0,,,,right,2.2535319328308105,354.3823800086975,os8,349.7320020198822,351.7468068599701,354.3823800086975,None,True,2.0,['r'],False,0.2,0.2,0.0,0.0,2.0,0.4554859150035951,0.0080294181291996,succ_gain,1.0,4.0,351.7468068599701,None,os8,1,2023-02-28_10h20.45.819,threat_forest,2021.2.3,59.989072882728,True,26.0,0.2111111111111111,0.4118055555555556,-1.3654320987654325,-0.6764660493827162,0,0,1,0.8124987333746868,0.0080294181291996,0.2,0.2,0.2,1.0,-1.2000000000000002,-1.2000000000000002,0.7999999999999998,0.7999999999999998,0.0,2.0,-1.0,2.0,0,0,0,0.47894238576855397,0.2495565768828796,0.2741671111572952,0.5963078409931736,0.24072479976323363,0.2679120338358836,0.5300347155666775,0.2490979158608288,0.24848045920972528,0.3764303589074108,0.2347305438002487,0.3708517894499197,0.4513029953952788,0.24762860174252777,0.29414260902939393,0.333330978688639,0.2222214373351131,0.3498435122962551,0.31483968539626667,0.2157156578958465,0.22654480748428263,0.40729017746586055,0.2414048888056884,0.32921391892230245,0.22594789871590895,0.1748954457817743,0.3212899296102042,0.4053091724410401,0.24103364717619932,0.4195656691367473
8.0,0.0,8.0,0.0,4.0,0.0,4.0,0.0,,,,left,1.1752870082855225,369.4329650402069,os8,369.4329650402069,None,364.4171688556671,366.42949891090393,True,3.0,['r'],True,0.1728395061728395,0.2222222222222222,0.2222222222222222,2.0,2.0,0.8571721972794328,0.0924020728547477,unsucc_cost,0.0,1.0,366.42949891090393,None,os8,1,2023-02-28_10h20.45.819,threat_forest,2021.2.3,59.989072882728,True,26.0,0.2111111111111111,0.4118055555555556,-1.3654320987654325,-0.6764660493827162,0,0,1,0.1615123801395838,0.0924020728547477,0.1728395061728395,0.1728395061728395,0.2222222222222222,0.7777777777777778,-1.7777777777777777,-1.5308641975308643,1.4691358024691357,1.4691358024691357,1.0,2.0,-1.0,3.0,0,0,0,0.4936760004078691,0.24996000702915877,0.2565119613718174,0.47599622650638096,0.249423818858067,0.2551579242388743,0.5300347155666775,0.2490979158608288,0.24848045920972528,0.385973609672448,0.2369979823088687,0.347195158743006,0.3490397950191155,0.22721101651212933,0.23592303370468282,0.333330978688639,0.2222214373351131,0.3498435122962551,0.2855617015160609,0.20401621614331306,0.19231748234160573,0.40729017746586055,0.2414048888056884,0.32921391892230245,0.18870517632218703,0.1530955327513993,0.2598540773787549,0.8118919070720648,0.15272343830295054,0.25530385483781126
8.0,0.0,8.0,0.0,5.0,0.0,5.0,0.0,,,,right,1.3802180290222168,373.5205910205841,os8,370.6381900310517,372.6421630382538,373.5205910205841,None,True,1.0,['r'],False,0.2,0.2,0.0,0.0,2.0,0.4554859150035951,0.1999999999999999,unsucc_cost,1.0,0.0,372.6421630382538,None,os8,1,2023-02-28_10h20.45.819,threat_forest,2021.2.3,59.989072882728,True,26.0,0.2111111111111111,0.4118055555555556,-1.3654320987654325,-0.6764660493827162,0,0,1,0.3222414787347692,0.1999999999999999,1.0,0.2,0.2,1.0,-1.2000000000000002,-1.2000000000000002,-0.2000000000000001,0.0,0.0,2.0,-1.0,1.0,1,0,0,0.47894238576855397,0.2495565768828796,0.2741671111572952,0.5963078409931736,0.24072479976323363,0.2679120338358836,0.5300347155666775,0.2490979158608288,0.24848045920972528,0.3764303589074108,0.2347305438002487,0.3708517894499197,0.4513029953952788,0.24762860174252777,0.29414260902939393,0.333330978688639,0.2222214373351131,0.3498435122962551,0.31483968539626667,0.2157156578958465,0.22654480748428263,0.9999998874471432,1.1255284403461468e-07,-0.1478687499542583,0.9957564949974924,0.004225497667801253,-0.15968693016302096,0.9784621453902559,0.02107397542855367,0.010428659782309904
9.0,0.0,9.0,0.0,0.0,0.0,0.0,0.0,380.1823689937592,383.681872844696,None,left,1.9567070007324217,386.9864649772644,os8,380.1823689937592,383.68187284469604,386.9864649772644,None,False,5.0,['r'],False,0.5,0.5,0.0,0.0,2.0,0.6309297535714574,0.0630973775,wait_cost,1.0,4.0,,,os8,1,2023-02-28_10h20.45.819,threat_forest,2021.2.3,59.989072882728,False,18.0,0.55,0.3805555555555556,-0.4800000000000001,-0.9227160493827162,1,1,0,0.6712629586216625,0.0630973775,0.5,0.5,0.5,1.0,0.0,0.0,5.0,5.0,0.0,2.0,-1.0,5.0,0,1,1,0.47894238576855397,0.2495565768828796,0.2741671111572952,0.5963078409931736,0.24072479976323363,0.2679120338358836,0.5300347155666775,0.2490979158608288,0.24848045920972528,0.5103640455257783,0.24989258656033964,0.2126632233766519,0.6666816818721797,0.2222172169282615,0.22168350009927662,0.6379277951202289,0.23097592333327213,0.18245902228213762,0.6819376905826349,0.21689867674545743,0.23000579063818227,0.40729017746586055,0.2414048888056884,0.32921391892230245,0.7819741787371228,0.1704905625255251,0.3088762215164772,0.6945077562829083,0.2121667327457888,0.3658716308364059
9.0,0.0,9.0,0.0,1.0,0.0,1.0,0.0,,,,left,1.8121209144592283,391.941015958786,os8,391.941015958786,None,388.97822284698486,390.9902138710022,True,4.0,['r'],True,0.36,0.6,0.4,2.0,2.0,0.9801625908629508,0.03428035,figh_cost,0.0,1.0,390.9902138710022,None,os8,1,2023-02-28_10h20.45.819,threat_forest,2021.2.3,59.989072882728,True,18.0,0.55,0.3805555555555556,-0.4800000000000001,-0.9227160493827162,0,0,1,0.5944979352284625,0.03428035,0.36,0.36,0.6,0.6,-0.8000000000000003,-0.9600000000000002,3.04,3.04,1.0,2.0,-1.0,4.0,0,0,0,0.4936760004078691,0.24996000702915877,0.2565119613718174,0.38106184339780697,0.23585371490407217,0.2750537988409721,0.5300347155666775,0.2490979158608288,0.24848045920972528,0.5556498105047064,0.24690309859079032,0.2438531377357549,0.5251786733367307,0.2493660344090022,0.29909679880531426,0.333330978688639,0.2222214373351131,0.3498435122962551,0.5109716214655943,0.24987962352241577,0.32649326523104716,0.40729017746586055,0.2414048888056884,0.32921391892230245,0.5266135324284676,0.24929171989167892,0.5309512478190448,0.5475745664142383,0.2477366606304972,0.4320336404542366
9.0,0.0,9.0,0.0,2.0,0.0,2.0,0.0,,,,right,0.745913028717041,399.3656098842621,os8,393.7813799381256,395.79558205604553,399.3656098842621,None,True,1.0,['r'],False,0.5,0.5,0.0,0.0,2.0,0.6309297535714574,0.2729625,unsucc_cost,1.0,0.0,395.79558205604553,None,os8,1,2023-02-28_10h20.45.819,threat_forest,2021.2.3,59.989072882728,True,18.0,0.55,0.3805555555555556,-0.4800000000000001,-0.9227160493827162,1,1,1,-0.2931462690639805,0.2729625,1.0,0.5,0.5,1.0,0.0,0.0,1.0,1.0,0.0,2.0,-1.0,1.0,1,1,1,0.47894238576855397,0.2495565768828796,0.2741671111572952,0.5963078409931736,0.24072479976323363,0.2679120338358836,0.5300347155666775,0.2490979158608288,0.24848045920972528,0.5103640455257783,0.24989258656033964,0.2126632233766519,0.6666816818721797,0.2222172169282615,0.22168350009927662,0.6379277951202289,0.23097592333327213,0.18245902228213762,0.6819376905826349,0.21689867674545743,0.23000579063818227,0.9999998874471432,1.1255284403461468e-07,-0.1478687499542583,0.9957564949974924,0.004225497667801253,-0.15968693016302096,0.9955584598623337,0.004421812858871755,-0.02054527257043505
10.0,0.0,10.0,0.0,0.0,0.0,0.0,0.0,405.8263568878174,409.326721906662,None,right,1.6183748245239258,412.29700684547424,os8,405.8263568878174,409.326721906662,412.29700684547424,None,True,5.0,['p'],False,0.4444444444444445,0.6666666666666666,0.3333333333333333,1.0,2.0,0.9656336071428248,0.014840682614443,unsucc_cost,1.0,3.0,,,os8,1,2023-02-28_10h20.45.819,threat_forest,2021.2.3,59.989072882728,True,1.0,0.4833333333333333,0.5166666666666666,-0.7877777777777778,-0.633888888888889,1,0,1,0.4814224509693421,0.014840682614443,0.4444444444444445,0.4444444444444445,0.6666666666666666,0.6666666666666667,-0.3333333333333335,-0.5555555555555556,4.444444444444445,4.444444444444445,0.0,2.0,-1.0,5.0,0,0,1,0.47894238576855397,0.2495565768828796,0.2741671111572952,0.41600730385655516,0.24294522699455492,0.2646565435384458,0.5300347155666775,0.2490979158608288,0.24848045920972528,0.5853804777590438,0.24271017401763736,0.28759874222819715,0.6097770728999372,0.23794899426552182,0.2665417624913733,0.6379277951202289,0.23097592333327213,0.18245902228213762,0.6171464705513385,0.2362767044373644,0.286697218183524,0.40729017746586055,0.2414048888056884,0.32921391892230245,0.6926767307417867,0.21287567743065702,0.4283246639252355,0.4416698485648371,0.24659759343355092,0.4299149132225147
10.0,0.0,10.0,0.0,2.0,0.0,2.0,0.0,,,,left,1.2399208545684814,426.42399287223816,os8,405.8263568878174,409.326721906662,426.42399287223816,None,False,2.0,['p'],False,0.4444444444444445,0.6666666666666666,0.3333333333333333,1.0,2.0,0.9656336071428248,0.0702178235965045,wait_cost,1.0,1.0,424.343633890152,None,os8,1,2023-02-28_10h20.45.819,threat_forest,2021.2.3,59.989072882728,False,1.0,0.4833333333333333,0.5166666666666666,-0.7877777777777778,-0.633888888888889,1,0,0,0.2150475506190163,0.0702178235965045,0.4444444444444445,0.4444444444444445,0.6666666666666666,0.6666666666666667,-0.3333333333333335,-0.5555555555555556,1.4444444444444444,1.4444444444444444,0.0,2.0,-1.0,2.0,0,0,1,0.47894238576855397,0.2495565768828796,0.2741671111572952,0.41600730385655516,0.24294522699455492,0.2646565435384458,0.5300347155666775,0.2490979158608288,0.24848045920972528,0.5853804777590438,0.24271017401763736,0.28759874222819715,0.6097770728999372,0.23794899426552182,0.2665417624913733,0.6379277951202289,0.23097592333327213,0.18245902228213762,0.6171464705513385,0.2362767044373644,0.286697218183524,0.40729017746586055,0.2414048888056884,0.32921391892230245,0.6926767307417867,0.21287567743065702,0.4283246639252355,0.726521745608203,0.1986878987666125,0.34080026307153655
10.0,0.0,10.0,0.0,3.0,0.0,3.0,0.0,,,,right,1.2752339839935305,430.68357491493225,os8,405.8263568878174,409.326721906662,430.68357491493225,None,True,1.0,['p'],False,0.4444444444444445,0.6666666666666666,0.3333333333333333,1.0,2.0,0.9656336071428248,0.226417146776406,succ_gain,1.0,3.0,429.6998610496521,None,os8,1,2023-02-28_10h20.45.819,threat_forest,2021.2.3,59.989072882728,True,1.0,0.4833333333333333,0.5166666666666666,-0.7877777777777778,-0.633888888888889,1,0,1,0.2431296786309018,0.226417146776406,1.0,0.4444444444444445,0.6666666666666666,0.6666666666666667,-0.3333333333333335,-0.5555555555555556,0.4444444444444444,0.4444444444444444,0.0,2.0,-1.0,1.0,1,0,1,0.47894238576855397,0.2495565768828796,0.2741671111572952,0.41600730385655516,0.24294522699455492,0.2646565435384458,0.5300347155666775,0.2490979158608288,0.24848045920972528,0.5853804777590438,0.24271017401763736,0.28759874222819715,0.6097770728999372,0.23794899426552182,0.2665417624913733,0.6379277951202289,0.23097592333327213,0.18245902228213762,0.6171464705513385,0.2362767044373644,0.286697218183524,0.9999998874471432,1.1255284403461468e-07,-0.1478687499542583,0.9957564949974924,0.004225497667801253,-0.15968693016302096,0.9878003499448067,0.012050818593724156,-0.006354905009392477
10.0,0.0,10.0,0.0,4.0,0.0,4.0,0.0,,,,right,1.844709873199463,436.30037903785706,os8,405.8263568878174,409.326721906662,436.30037903785706,None,True,3.0,['p'],False,0.4444444444444445,0.6666666666666666,0.3333333333333333,1.0,2.0,0.9656336071428248,0.1229938271604937,figh_cost,1.0,0.0,433.9874498844147,None,os8,1,2023-02-28_10h20.45.819,threat_forest,2021.2.3,59.989072882728,True,1.0,0.4833333333333333,0.5166666666666666,-0.7877777777777778,-0.633888888888889,1,0,1,0.612322014828972,0.1229938271604937,0.4444444444444445,0.4444444444444445,0.6666666666666666,0.6666666666666667,-0.3333333333333335,-0.5555555555555556,2.4444444444444446,2.4444444444444446,0.0,2.0,1.0,3.0,0,0,1,0.47894238576855397,0.2495565768828796,0.2741671111572952,0.41600730385655516,0.24294522699455492,0.2646565435384458,0.2968749064081806,0.2087401963533146,0.349854101727346,0.5853804777590438,0.24271017401763736,0.28759874222819715,0.6097770728999372,0.23794899426552182,0.2665417624913733,0.6379277951202289,0.23097592333327213,0.18245902228213762,0.6171464705513385,0.2362767044373644,0.286697218183524,0.40729017746586055,0.2414048888056884,0.32921391892230245,0.6926767307417867,0.21287567743065702,0.4283246639252355,0.8939346966351637,0.09481545478696164,0.1475918410616707
11.0,0.0,11.0,0.0,0.0,0.0,0.0,0.0,442.03350496292114,445.5331039428711,None,right,1.1297287940979004,449.3190779685974,os8,449.3190779685974,None,442.03350496292114,445.5331039428711,False,5.0,['p'],True,0.2962962962962963,0.3333333333333333,0.1111111111111111,1.0,1.0,0.8325252476189534,-0.0072014784086608,wait_cost,0.0,4.0,,,os8,1,2023-02-28_10h20.45.819,threat_forest,2021.2.3,59.989072882728,False,4.0,0.4666666666666667,0.475,-0.9911111111111112,-0.8894444444444445,0,0,0,0.1219775986952895,-0.0072014784086608,0.2962962962962963,0.2962962962962963,0.3333333333333333,0.8888888888888888,-1.3333333333333337,-1.2222222222222223,3.7777777777777777,3.7777777777777777,1.0,1.0,-1.0,5.0,0,0,0,0.4936760004078691,0.24996000702915877,0.2565119613718174,0.5366858899208041,0.24865414548071865,0.2562863846436148,0.5300347155666775,0.2490979158608288,0.24848045920972528,0.4348779035477547,0.24575911255366442,0.25578856844810716,0.42698983728372536,0.24466951614014307,0.2857049458495281,0.333330978688639,0.2222214373351131,0.3498435122962551,0.42967474005093514,0.24505435781309648,0.3123766995156858,0.40729017746586055,0.2414048888056884,0.32921391892230245,0.3950524004503377,0.2389860013487637,0.5019079850932139,0.3281457366633522,0.22046611217301812,0.38130893009847255
11.0,0.0,11.0,0.0,1.0,0.0,1.0,0.0,,,,right,2.078122854232788,456.0270550251007,os8,456.0270550251007,None,442.03350496292114,445.5331039428711,False,4.0,['p'],True,0.2962962962962963,0.3333333333333333,0.1111111111111111,1.0,1.0,0.8325252476189534,0.0058509134989481,wait_cost,0.0,3.0,452.4913330078125,None,os8,1,2023-02-28_10h20.45.819,threat_forest,2021.2.3,59.989072882728,False,4.0,0.4666666666666667,0.475,-0.9911111111111112,-0.8894444444444445,0,0,0,0.731465012311913,0.0058509134989481,0.2962962962962963,0.2962962962962963,0.3333333333333333,0.8888888888888888,-1.3333333333333337,-1.2222222222222223,2.7777777777777777,2.7777777777777777,1.0,1.0,-1.0,4.0,0,0,0,0.4936760004078691,0.24996000702915877,0.2565119613718174,0.5366858899208041,0.24865414548071865,0.2562863846436148,0.5300347155666775,0.2490979158608288,0.24848045920972528,0.4348779035477547,0.24575911255366442,0.25578856844810716,0.42698983728372536,0.24466951614014307,0.2857049458495281,0.333330978688639,0.2222214373351131,0.3498435122962551,0.42967474005093514,0.24505435781309648,0.3123766995156858,0.40729017746586055,0.2414048888056884,0.32921391892230245,0.3950524004503377,0.2389860013487637,0.5019079850932139,0.39387596244069417,0.23873768865211106,0.41529506081712314
11.0,0.0,11.0,0.0,2.0,0.0,2.0,0.0,,,,right,1.0377981662750244,460.73725986480713,os8,458.13610887527466,460.1497309207916,460.73725986480713,None,True,3.0,['p'],False,0.48,0.6,0.2,1.0,1.0,0.9455672104350704,0.0832472147447441,succ_gain,1.0,4.0,460.1497309207916,None,os8,1,2023-02-28_10h20.45.819,threat_forest,2021.2.3,59.989072882728,True,4.0,0.4666666666666667,0.475,-0.9911111111111112,-0.8894444444444445,1,1,1,0.0371013210151024,0.0832472147447441,0.48,0.48,0.6,0.8,-0.8000000000000002,-0.7600000000000002,2.24,2.24,0.0,1.0,-1.0,3.0,0,1,1,0.47894238576855397,0.2495565768828796,0.2741671111572952,0.48813482322055546,0.24985921757999258,0.2545195622629666,0.5300347155666775,0.2490979158608288,0.24848045920972528,0.5556498105047064,0.24690309859079032,0.2438531377357549,0.5251786733367307,0.24936603440900224,0.29909679880531437,0.6379277951202289,0.23097592333327213,0.18245902228213762,0.6592616543130183,0.22463572546548072,0.2526409289453262,0.40729017746586055,0.2414048888056884,0.32921391892230245,0.7521238951909112,0.18643354147376245,0.35380624015592177,0.7793836427140629,0.17194478018382095,0.2910566011045945
11.0,0.0,11.0,0.0,3.0,0.0,3.0,0.0,,,,right,1.209378004074097,465.8224458694458,os8,458.13610887527466,460.1497309207916,465.8224458694458,None,True,4.0,['p'],False,0.48,0.6,0.2,1.0,1.0,0.9455672104350704,0.1000718415363511,figh_cost,1.0,1.0,463.8034279346466,None,os8,1,2023-02-28_10h20.45.819,threat_forest,2021.2.3,59.989072882728,True,4.0,0.4666666666666667,0.475,-0.9911111111111112,-0.8894444444444445,1,1,1,0.1901061812218418,0.1000718415363511,0.48,0.48,0.6,0.8,-0.8000000000000002,-0.7600000000000002,3.24,3.24,0.0,1.0,1.0,4.0,0,1,1,0.47894238576855397,0.2495565768828796,0.2741671111572952,0.48813482322055546,0.24985921757999258,0.2545195622629666,0.2968749064081806,0.2087401963533146,0.349854101727346,0.5556498105047064,0.24690309859079032,0.2438531377357549,0.5251786733367307,0.24936603440900224,0.29909679880531437,0.6379277951202289,0.23097592333327213,0.18245902228213762,0.6592616543130183,0.22463572546548072,0.2526409289453262,0.40729017746586055,0.2414048888056884,0.32921391892230245,0.7521238951909112,0.18643354147376245,0.35380624015592177,0.8361881088333899,0.13697755547902873,0.22601565233669196
11.0,0.0,11.0,0.0,4.0,0.0,4.0,0.0,,,,right,0.4728660583496094,471.5100739002228,os8,458.13610887527466,460.1497309207916,471.5100739002228,None,True,1.0,['p'],False,0.48,0.6,0.2,1.0,1.0,0.9455672104350704,0.2083555555555555,unsucc_cost,1.0,0.0,469.0595998764038,None,os8,1,2023-02-28_10h20.45.819,threat_forest,2021.2.3,59.989072882728,True,4.0,0.4666666666666667,0.475,-0.9911111111111112,-0.8894444444444445,1,1,1,-0.7489431053282957,0.2083555555555555,1.0,0.48,0.6,0.8,-0.8000000000000002,-0.7600000000000002,0.2399999999999997,0.2399999999999997,0.0,1.0,-1.0,1.0,1,1,1,0.47894238576855397,0.2495565768828796,0.2741671111572952,0.48813482322055546,0.24985921757999258,0.2545195622629666,0.5300347155666775,0.2490979158608288,0.24848045920972528,0.5556498105047064,0.24690309859079032,0.2438531377357549,0.5251786733367307,0.24936603440900224,0.29909679880531437,0.6379277951202289,0.23097592333327213,0.18245902228213762,0.6592616543130183,0.22463572546548072,0.2526409289453262,0.9999998874471432,1.1255284403461468e-07,-0.1478687499542583,0.9957564949974924,0.004225497667801253,-0.15968693016302096,0.981995353895388,0.017680478823259793,0.004116570655639196
12.0,0.0,12.0,0.0,0.0,0.0,0.0,0.0,474.8070249557495,478.3195340633392,None,left,1.7956199645996094,479.4708070755005,os8,479.4708070755005,None,474.8070249557495,478.31953406333923,True,5.0,['p'],True,0.4444444444444445,0.6666666666666666,0.3333333333333333,1.0,1.0,0.9656336071428248,0.0498748920388152,figh_cost,0.0,2.0,,,os8,1,2023-02-28_10h20.45.819,threat_forest,2021.2.3,59.989072882728,True,56.0,0.4444444444444444,0.4555555555555555,-1.1666666666666667,-1.078888888888889,1,0,1,0.5853503464869124,0.0498748920388152,0.4444444444444445,0.4444444444444445,0.6666666666666666,0.6666666666666667,-1.0,-1.0,4.0,4.0,1.0,1.0,-1.0,5.0,0,0,1,0.4936760004078691,0.24996000702915877,0.2565119613718174,0.41600730385655516,0.24294522699455492,0.2646565435384458,0.5300347155666775,0.2490979158608288,0.24848045920972528,0.5853804777590438,0.24271017401763736,0.28759874222819715,0.4881762690774995,0.24986019938707224,0.30050588194805283,0.6379277951202289,0.23097592333327213,0.18245902228213762,0.6171464705513385,0.2362767044373644,0.286697218183524,0.40729017746586055,0.2414048888056884,0.32921391892230245,0.6926767307417867,0.21287567743065702,0.4283246639252355,0.62995480886142,0.23311174765379175,0.40483050312539476
12.0,0.0,12.0,0.0,1.0,0.0,1.0,0.0,,,,left,1.168834924697876,484.7266290187836,os8,484.7266290187836,None,474.8070249557495,478.31953406333923,True,2.0,['p'],True,0.4444444444444445,0.6666666666666666,0.3333333333333333,1.0,1.0,0.9656336071428248,0.0323502514860539,unsucc_cost,0.0,0.0,483.2918908596039,None,os8,1,2023-02-28_10h20.45.819,threat_forest,2021.2.3,59.989072882728,True,56.0,0.4444444444444444,0.4555555555555555,-1.1666666666666667,-1.078888888888889,1,0,1,0.1560074618240456,0.0323502514860539,0.4444444444444445,0.4444444444444445,0.6666666666666666,0.6666666666666667,-1.0,-1.0,1.0,1.0,1.0,1.0,-1.0,2.0,0,0,1,0.4936760004078691,0.24996000702915877,0.2565119613718174,0.41600730385655516,0.24294522699455492,0.2646565435384458,0.5300347155666775,0.2490979158608288,0.24848045920972528,0.5853804777590438,0.24271017401763736,0.28759874222819715,0.4881762690774995,0.24986019938707224,0.30050588194805283,0.6379277951202289,0.23097592333327213,0.18245902228213762,0.6171464705513385,0.2362767044373644,0.286697218183524,0.40729017746586055,0.2414048888056884,0.32921391892230245,0.6926767307417867,0.21287567743065702,0.4283246639252355,0.5370948956237872,0.24862396871866035,0.4336840819860078
13.0,0.0,13.0,0.0,0.0,0.0,0.0,0.0,488.8653709888458,492.3683960437775,None,left,2.256488084793091,495.9076268672943,os8,488.8653709888458,492.36839604377747,495.9076268672943,None,False,4.0,['r'],False,0.4081632653061224,0.5714285714285714,0.2857142857142857,2.0,2.0,0.9885754083994552,0.0102904310319958,wait_cost,1.0,3.0,,,os8,1,2023-02-28_10h20.45.819,threat_forest,2021.2.3,59.989072882728,False,58.0,0.5357142857142857,0.490079365079365,-0.326530612244898,-0.7465986394557824,1,0,0,0.8138096598779311,0.0102904310319958,0.4081632653061224,0.4081632653061224,0.5714285714285714,0.7142857142857143,-0.5714285714285715,-0.653061224489796,3.346938775510204,3.346938775510204,0.0,2.0,-1.0,4.0,0,0,1,0.47894238576855397,0.2495565768828796,0.2741671111572952,0.44151855251091576,0.24657992029958148,0.25932752008666865,0.5300347155666775,0.2490979158608288,0.24848045920972528,0.5427720181716995,0.2481705544615198,0.23062952203143938,0.5671079602555997,0.24549652167033287,0.28806310477065034,0.6379277951202289,0.23097592333327213,0.18245902228213762,0.5722841647727647,0.24477499952310378,0.3115594223134798,0.40729017746586055,0.2414048888056884,0.32921391892230245,0.6246392927238985,0.23446504670928633,0.48916716815559513,0.4172848439799834,0.24315820296458426,0.4235174590014991
13.0,0.0,13.0,0.0,1.0,0.0,1.0,0.0,,,,left,1.7021958827972412,501.0611870288849,os8,501.0611870288849,None,498.1952679157257,500.2104048728943,True,3.0,['r'],True,0.5,0.5,0.0,0.0,2.0,0.6309297535714574,0.1812561435782258,succ_gain,0.0,5.0,500.2104048728943,None,os8,1,2023-02-28_10h20.45.819,threat_forest,2021.2.3,59.989072882728,True,58.0,0.5357142857142857,0.490079365079365,-0.326530612244898,-0.7465986394557824,1,1,1,0.5319191133039747,0.1812561435782258,0.5,0.5,0.5,1.0,0.0,0.0,3.0,3.0,1.0,2.0,-1.0,3.0,0,1,1,0.4936760004078691,0.24996000702915877,0.2565119613718174,0.5963078409931736,0.24072479976323363,0.2679120338358836,0.5300347155666775,0.2490979158608288,0.24848045920972528,0.5103640455257783,0.24989258656033964,0.2126632233766519,0.6666816818721797,0.2222172169282615,0.22168350009927662,0.6379277951202289,0.23097592333327213,0.18245902228213762,0.6819376905826349,0.21689867674545743,0.23000579063818227,0.40729017746586055,0.2414048888056884,0.32921391892230245,0.7819741787371228,0.1704905625255251,0.3088762215164772,0.967895507274019,0.031073794272788485,0.029028869282123226
13.0,0.0,13.0,0.0,2.0,0.0,2.0,0.0,,,,left,2.521962881088257,506.1064028739929,os8,502.7870018482208,504.79940390586853,506.1064028739929,None,False,5.0,['r'],False,0.4081632653061224,0.5714285714285714,0.2857142857142857,2.0,2.0,0.9885754083994552,-0.0126763486945585,wait_cost,1.0,4.0,504.7994039058685,None,os8,1,2023-02-28_10h20.45.819,threat_forest,2021.2.3,59.989072882728,False,58.0,0.5357142857142857,0.490079365079365,-0.326530612244898,-0.7465986394557824,1,0,0,0.925037519388523,-0.0126763486945585,0.4081632653061224,0.4081632653061224,0.5714285714285714,0.7142857142857143,-0.5714285714285715,-0.653061224489796,4.346938775510204,4.346938775510204,0.0,2.0,1.0,5.0,0,0,1,0.47894238576855397,0.2495565768828796,0.2741671111572952,0.44151855251091576,0.24657992029958148,0.25932752008666865,0.2968749064081806,0.2087401963533146,0.349854101727346,0.5427720181716995,0.2481705544615198,0.23062952203143938,0.5671079602555997,0.24549652167033287,0.28806310477065034,0.6379277951202289,0.23097592333327213,0.18245902228213762,0.5722841647727647,0.24477499952310378,0.3115594223134798,0.40729017746586055,0.2414048888056884,0.32921391892230245,0.6246392927238985,0.23446504670928633,0.48916716815559513,0.30230359733022705,0.210916132371431,0.36354544579986287
13.0,0.0,13.0,0.0,3.0,0.0,3.0,0.0,,,,right,1.7470369338989258,512.337907075882,os8,502.7870018482208,504.79940390586853,512.337907075882,None,True,4.0,['r'],False,0.4081632653061224,0.5714285714285714,0.2857142857142857,2.0,2.0,0.9885754083994552,-0.0002517703993597,figh_cost,1.0,1.0,510.6552798748016,None,os8,1,2023-02-28_10h20.45.819,threat_forest,2021.2.3,59.989072882728,True,58.0,0.5357142857142857,0.490079365079365,-0.326530612244898,-0.7465986394557824,1,0,1,0.5579211722558207,-0.0002517703993597,0.4081632653061224,0.4081632653061224,0.5714285714285714,0.7142857142857143,-0.5714285714285715,-0.653061224489796,3.346938775510204,3.346938775510204,0.0,2.0,-1.0,4.0,0,0,1,0.47894238576855397,0.2495565768828796,0.2741671111572952,0.44151855251091576,0.24657992029958148,0.25932752008666865,0.5300347155666775,0.2490979158608288,0.24848045920972528,0.5427720181716995,0.2481705544615198,0.23062952203143938,0.5671079602555997,0.24549652167033287,0.28806310477065034,0.6379277951202289,0.23097592333327213,0.18245902228213762,0.5722841647727647,0.24477499952310378,0.3115594223134798,0.40729017746586055,0.2414048888056884,0.32921391892230245,0.6246392927238985,0.23446504670928633,0.48916716815559513,0.3624950246199805,0.23109238174574026,0.40107437218626346
13.0,0.0,13.0,0.0,4.0,0.0,4.0,0.0,,,,left,0.7399961948394775,518.6614639759064,os8,518.6614639759064,None,514.1114718914032,516.1115720272064,True,1.0,['r'],True,0.5,0.5,0.0,0.0,2.0,0.6309297535714574,0.3185521657642649,unsucc_cost,0.0,0.0,516.1115720272064,None,os8,1,2023-02-28_10h20.45.819,threat_forest,2021.2.3,59.989072882728,True,58.0,0.5357142857142857,0.490079365079365,-0.326530612244898,-0.7465986394557824,1,1,1,-0.3011102349059564,0.3185521657642649,1.0,0.5,0.5,1.0,0.0,0.0,1.0,1.0,1.0,2.0,-1.0,1.0,1,1,1,0.4936760004078691,0.24996000702915877,0.2565119613718174,0.5963078409931736,0.24072479976323363,0.2679120338358836,0.5300347155666775,0.2490979158608288,0.24848045920972528,0.5103640455257783,0.24989258656033964,0.2126632233766519,0.6666816818721797,0.2222172169282615,0.22168350009927662,0.6379277951202289,0.23097592333327213,0.18245902228213762,0.6819376905826349,0.21689867674545743,0.23000579063818227,0.9999998874471432,1.1255284403461468e-07,-0.1478687499542583,0.9957564949974924,0.004225497667801253,-0.15968693016302096,0.9983570626513938,0.0016402381054747858,-0.025719153613530506
14.0,0.0,14.0,0.0,0.0,0.0,0.0,0.0,523.4367380142212,526.9399790763855,None,right,1.5058989524841309,527.6487560272217,os8,523.4367380142212,526.9399790763855,527.6487560272217,None,True,4.0,['r'],False,0.25,0.5,0.5,2.0,1.0,0.9463946303571862,0.0015300455080301,succ_gain,1.0,5.0,,,os8,1,2023-02-28_10h20.45.819,threat_forest,2021.2.3,59.989072882728,True,43.0,0.4166666666666666,0.4761904761904761,-1.375,-0.8507653061224489,0,0,1,0.4093900305025396,0.0015300455080301,0.25,0.25,0.5,0.5,-2.0,-1.75,2.25,2.25,0.0,1.0,-1.0,4.0,0,0,0,0.47894238576855397,0.2495565768828796,0.2741671111572952,0.33096345836078517,0.22142664759065397,0.2962061144840142,0.5300347155666775,0.2490979158608288,0.24848045920972528,0.5103640455257783,0.24989258656033964,0.2126632233766519,0.31263646903312786,0.21489490726362598,0.20080435331180957,0.333330978688639,0.2222214373351131,0.3498435122962551,0.3726474426444548,0.23378132613500255,0.27939685921636004,0.40729017746586055,0.2414048888056884,0.32921391892230245,0.3071995958525541,0.2128280041605815,0.4281903125646742,0.3715501913275511,0.23350064665201128,0.4055538765138358
14.0,0.0,14.0,0.0,1.0,0.0,1.0,0.0,,,,left,2.57780122756958,534.1144778728485,os8,534.1144778728485,None,529.1830499172211,531.1947078704834,True,5.0,['r'],True,0.3333333333333333,0.3333333333333333,0.0,0.0,1.0,0.5793801642856949,0.0579319078735853,succ_gain,0.0,6.0,531.1947078704834,None,os8,1,2023-02-28_10h20.45.819,threat_forest,2021.2.3,59.989072882728,True,43.0,0.4166666666666666,0.4761904761904761,-1.375,-0.8507653061224489,0,0,1,0.9469367981966604,0.0579319078735853,0.3333333333333333,0.3333333333333333,0.3333333333333333,1.0,-1.0000000000000002,-1.0000000000000002,4.0,4.0,1.0,1.0,1.0,5.0,0,0,0,0.4936760004078691,0.24996000702915877,0.2565119613718174,0.5963078409931736,0.24072479976323363,0.2679120338358836,0.2968749064081806,0.2087401963533146,0.349854101727346,0.4348779035477547,0.24575911255366442,0.25578856844810716,0.4881762690774995,0.2498601993870723,0.30050588194805294,0.333330978688639,0.2222214373351131,0.3498435122962551,0.47676168665217145,0.24945998079274811,0.3252655786066845,0.40729017746586055,0.2414048888056884,0.32921391892230245,0.47092614345019185,0.2491547108653212,0.530565133145745,0.6700207206285262,0.22109295455695668,0.3824748911869918
14.0,0.0,14.0,0.0,2.0,0.0,2.0,0.0,,,,left,1.507585048675537,540.3083288669586,os8,536.7247569561005,538.7360410690308,540.3083288669586,None,False,6.0,['r'],False,0.25,0.5,0.5,2.0,1.0,0.9463946303571862,-0.0886200327932098,wait_cost,1.0,5.0,538.7360410690308,None,os8,1,2023-02-28_10h20.45.819,threat_forest,2021.2.3,59.989072882728,False,43.0,0.4166666666666666,0.4761904761904761,-1.375,-0.8507653061224489,0,0,0,0.410509065059688,-0.0886200327932098,0.25,0.25,0.5,0.5,-2.0,-1.75,4.25,4.25,0.0,1.0,1.0,6.0,0,0,0,0.47894238576855397,0.2495565768828796,0.2741671111572952,0.33096345836078517,0.22142664759065397,0.2962061144840142,0.2968749064081806,0.2087401963533146,0.349854101727346,0.5103640455257783,0.24989258656033964,0.2126632233766519,0.31263646903312786,0.21489490726362598,0.20080435331180957,0.333330978688639,0.2222214373351131,0.3498435122962551,0.3726474426444548,0.23378132613500255,0.27939685921636004,0.40729017746586055,0.2414048888056884,0.32921391892230245,0.3071995958525541,0.2128280041605815,0.4281903125646742,0.07601947351762793,0.0702405131637306,0.10188110672158707
14.0,0.0,14.0,0.0,4.0,0.0,4.0,0.0,,,,left,2.745865821838379,555.5881478786469,os8,555.5881478786469,None,550.2365598678589,552.2514259815216,True,4.0,['r'],True,0.3333333333333333,0.3333333333333333,0.0,0.0,1.0,0.5793801642856949,0.1163194444444443,succ_gain,0.0,5.0,552.2514259815216,None,os8,1,2023-02-28_10h20.45.819,threat_forest,2021.2.3,59.989072882728,True,43.0,0.4166666666666666,0.4761904761904761,-1.375,-0.8507653061224489,0,0,1,1.0100964430195192,0.1163194444444443,0.3333333333333333,0.3333333333333333,0.3333333333333333,1.0,-1.0000000000000002,-1.0000000000000002,3.0,3.0,1.0,1.0,-1.0,4.0,0,0,0,0.4936760004078691,0.24996000702915877,0.2565119613718174,0.5963078409931736,0.24072479976323363,0.2679120338358836,0.5300347155666775,0.2490979158608288,0.24848045920972528,0.4348779035477547,0.24575911255366442,0.25578856844810716,0.4881762690774995,0.2498601993870723,0.30050588194805294,0.333330978688639,0.2222214373351131,0.3498435122962551,0.47676168665217145,0.24945998079274811,0.3252655786066845,0.40729017746586055,0.2414048888056884,0.32921391892230245,0.47092614345019185,0.2491547108653212,0.530565133145745,0.8792735169663294,0.10615159932799141,0.1686776893823013
14.0,0.0,14.0,0.0,5.0,0.0,5.0,0.0,,,,left,0.9863488674163818,563.51358294487,os8,558.3652880191803,560.3771719932556,563.51358294487,None,False,5.0,['r'],False,0.25,0.5,0.5,2.0,1.0,0.9463946303571862,-0.34375,wait_cost,1.0,4.0,560.3771719932556,None,os8,1,2023-02-28_10h20.45.819,threat_forest,2021.2.3,59.989072882728,False,43.0,0.4166666666666666,0.4761904761904761,-1.375,-0.8507653061224489,0,0,0,-0.0137451660502491,-0.34375,0.0,0.25,0.5,0.5,-2.0,-1.75,3.25,3.25,0.0,1.0,1.0,5.0,0,0,0,0.47894238576855397,0.2495565768828796,0.2741671111572952,0.33096345836078517,0.22142664759065397,0.2962061144840142,0.2968749064081806,0.2087401963533146,0.349854101727346,0.5103640455257783,0.24989258656033964,0.2126632233766519,0.31263646903312786,0.21489490726362598,0.20080435331180957,0.333330978688639,0.2222214373351131,0.3498435122962551,0.3726474426444548,0.23378132613500255,0.27939685921636004,0.40729017746586055,0.2414048888056884,0.32921391892230245,0.051971122851219305,0.049270125240802785,-0.03274352999717228,0.00030990277300030285,0.0003098067332715897,-0.028193828668506178
14.0,0.0,14.0,0.0,6.0,0.0,6.0,0.0,,,,left,0.8419389724731445,568.5007688999176,os8,558.3652880191803,560.3771719932556,568.5007688999176,None,False,4.0,['r'],False,0.25,0.5,0.5,2.0,1.0,0.9463946303571862,-0.3541666666666667,wait_cost,1.0,3.0,566.5502269268036,None,os8,1,2023-02-28_10h20.45.819,threat_forest,2021.2.3,59.989072882728,False,43.0,0.4166666666666666,0.4761904761904761,-1.375,-0.8507653061224489,0,0,0,-0.1720477466146048,-0.3541666666666667,0.0,0.25,0.5,0.5,-2.0,-1.75,2.25,2.25,0.0,1.0,-1.0,4.0,0,0,0,0.47894238576855397,0.2495565768828796,0.2741671111572952,0.33096345836078517,0.22142664759065397,0.2962061144840142,0.5300347155666775,0.2490979158608288,0.24848045920972528,0.5103640455257783,0.24989258656033964,0.2126632233766519,0.31263646903312786,0.21489490726362598,0.20080435331180957,0.333330978688639,0.2222214373351131,0.3498435122962551,0.3726474426444548,0.23378132613500255,0.27939685921636004,0.40729017746586055,0.2414048888056884,0.32921391892230245,0.051971122851219305,0.049270125240802785,-0.03274352999717228,0.0002467673664151857,0.0002467064722820583,-0.02831119860212001
14.0,0.0,14.0,0.0,7.0,0.0,7.0,0.0,,,,right,1.2724487781524658,573.3063468933105,os8,573.3063468933105,None,569.3699078559875,571.3724980354309,False,3.0,['r'],True,0.3333333333333333,0.3333333333333333,0.0,0.0,1.0,0.5793801642856949,0.0,wait_cost,0.0,2.0,571.3724980354309,None,os8,1,2023-02-28_10h20.45.819,threat_forest,2021.2.3,59.989072882728,False,43.0,0.4166666666666666,0.4761904761904761,-1.375,-0.8507653061224489,0,0,0,0.2409432157069993,0.0,0.0,0.3333333333333333,0.3333333333333333,1.0,-1.0000000000000002,-1.0000000000000002,2.0,2.0,1.0,1.0,-1.0,3.0,0,0,0,0.4936760004078691,0.24996000702915877,0.2565119613718174,0.5963078409931736,0.24072479976323363,0.2679120338358836,0.5300347155666775,0.2490979158608288,0.24848045920972528,0.4348779035477547,0.24575911255366442,0.25578856844810716,0.4881762690774995,0.2498601993870723,0.30050588194805294,0.333330978688639,0.2222214373351131,0.3498435122962551,0.47676168665217145,0.24945998079274811,0.3252655786066845,0.40729017746586055,0.2414048888056884,0.32921391892230245,0.051971122851219305,0.049270125240802785,-0.03274352999717228,0.3637687843062729,0.23144105587060923,0.4017229251121463
15.0,0.0,15.0,0.0,0.0,0.0,0.0,0.0,580.1648030281067,583.6691908836365,None,left,1.1427710056304932,585.294203042984,os8,585.294203042984,None,580.1648030281067,583.6691908836365,True,5.0,['r'],True,0.5,0.5,0.0,0.0,2.0,0.6309297535714574,0.0898892961248285,succ_gain,0.0,6.0,,,os8,1,2023-02-28_10h20.45.819,threat_forest,2021.2.3,59.989072882728,True,49.0,0.5833333333333333,0.4999999999999999,-0.888888888888889,-1.1319444444444444,1,1,1,0.1334560197107374,0.0898892961248285,0.5,0.5,0.5,1.0,0.0,0.0,5.0,5.0,1.0,2.0,-1.0,5.0,0,1,1,0.4936760004078691,0.24996000702915877,0.2565119613718174,0.5963078409931736,0.24072479976323363,0.2679120338358836,0.5300347155666775,0.2490979158608288,0.24848045920972528,0.5103640455257783,0.24989258656033964,0.2126632233766519,0.6666816818721797,0.2222172169282615,0.22168350009927662,0.6379277951202289,0.23097592333327213,0.18245902228213762,0.6819376905826349,0.21689867674545743,0.23000579063818227,0.40729017746586055,0.2414048888056884,0.32921391892230245,0.7819741787371228,0.1704905625255251,0.3088762215164772,0.8033524947065879,0.15797726395528963,0.26507625765142223
15.0,0.0,15.0,0.0,1.0,0.0,1.0,0.0,,,,left,1.534045934677124,590.447839975357,os8,586.4557099342346,588.4579529762268,590.447839975357,None,False,6.0,['r'],False,0.2222222222222222,0.6666666666666666,0.6666666666666666,2.0,2.0,0.77250688571426,-0.2259971922153635,wait_cost,1.0,5.0,588.4579529762268,None,os8,1,2023-02-28_10h20.45.819,threat_forest,2021.2.3,59.989072882728,False,49.0,0.5833333333333333,0.4999999999999999,-0.888888888888889,-1.1319444444444444,0,0,0,0.4279086468755697,-0.2259971922153635,0.2222222222222222,0.2222222222222222,0.6666666666666666,0.3333333333333333,-1.3333333333333337,-1.777777777777778,4.222222222222222,4.222222222222222,0.0,2.0,1.0,6.0,0,0,0,0.47894238576855397,0.2495565768828796,0.2741671111572952,0.255693060910524,0.19031411951273108,0.34182190042722893,0.2968749064081806,0.2087401963533146,0.349854101727346,0.5853804777590438,0.24271017401763736,0.28759874222819715,0.42698983728372536,0.24466951614014307,0.2857049458495281,0.333330978688639,0.2222214373351131,0.3498435122962551,0.3399550717573498,0.22438562094380493,0.25190923516333885,0.40729017746586055,0.2414048888056884,0.32921391892230245,0.2600869363644635,0.19244172189701103,0.37073831158887993,0.00405810196459227,0.004041633773037244,-0.021252426445332123
15.0,0.0,15.0,0.0,2.0,0.0,2.0,0.0,,,,left,1.753612995147705,595.3653450012207,os8,586.4557099342346,588.4579529762268,595.3653450012207,None,False,5.0,['r'],False,0.2222222222222222,0.6666666666666666,0.6666666666666666,2.0,2.0,0.77250688571426,-0.1831490054869685,wait_cost,1.0,4.0,594.0139498710632,None,os8,1,2023-02-28_10h20.45.819,threat_forest,2021.2.3,59.989072882728,False,49.0,0.5833333333333333,0.4999999999999999,-0.888888888888889,-1.1319444444444444,0,0,0,0.5616782282982214,-0.1831490054869685,0.2222222222222222,0.2222222222222222,0.6666666666666666,0.3333333333333333,-1.3333333333333337,-1.777777777777778,3.2222222222222223,3.2222222222222223,0.0,2.0,-1.0,5.0,0,0,0,0.47894238576855397,0.2495565768828796,0.2741671111572952,0.255693060910524,0.19031411951273108,0.34182190042722893,0.5300347155666775,0.2490979158608288,0.24848045920972528,0.5853804777590438,0.24271017401763736,0.28759874222819715,0.42698983728372536,0.24466951614014307,0.2857049458495281,0.333330978688639,0.2222214373351131,0.3498435122962551,0.3399550717573498,0.22438562094380493,0.25190923516333885,0.40729017746586055,0.2414048888056884,0.32921391892230245,0.2600869363644635,0.19244172189701103,0.37073831158887993,0.010296272445666763,0.010190259219391368,-0.009815647117674096
15.0,0.0,15.0,0.0,3.0,0.0,3.0,0.0,,,,left,1.7377870082855225,601.4032950401306,os8,586.4557099342346,588.4579529762268,601.4032950401306,None,False,4.0,['r'],False,0.2222222222222222,0.6666666666666666,0.6666666666666666,2.0,2.0,0.77250688571426,-0.1517489711934156,wait_cost,1.0,3.0,599.1529049873352,None,os8,1,2023-02-28_10h20.45.819,threat_forest,2021.2.3,59.989072882728,False,49.0,0.5833333333333333,0.4999999999999999,-0.888888888888889,-1.1319444444444444,0,0,0,0.5526124694400933,-0.1517489711934156,0.2222222222222222,0.2222222222222222,0.6666666666666666,0.3333333333333333,-1.3333333333333337,-1.777777777777778,2.2222222222222223,2.2222222222222223,0.0,2.0,-1.0,4.0,0,0,0,0.47894238576855397,0.2495565768828796,0.2741671111572952,0.255693060910524,0.19031411951273108,0.34182190042722893,0.5300347155666775,0.2490979158608288,0.24848045920972528,0.5853804777590438,0.24271017401763736,0.28759874222819715,0.42698983728372536,0.24466951614014307,0.2857049458495281,0.333330978688639,0.2222214373351131,0.3498435122962551,0.3399550717573498,0.22438562094380493,0.25190923516333885,0.40729017746586055,0.2414048888056884,0.32921391892230245,0.2600869363644635,0.19244172189701103,0.37073831158887993,0.0202584978018302,0.019848091068643443,0.008148447883269294
15.0,0.0,15.0,0.0,4.0,0.0,4.0,0.0,,,,left,1.650475025177002,607.4294860363007,os8,586.4557099342346,588.4579529762268,607.4294860363007,None,False,3.0,['r'],False,0.2222222222222222,0.6666666666666666,0.6666666666666666,2.0,2.0,0.77250688571426,-0.1682098765432098,wait_cost,1.0,2.0,605.1763389110565,None,os8,1,2023-02-28_10h20.45.819,threat_forest,2021.2.3,59.989072882728,False,49.0,0.5833333333333333,0.4999999999999999,-0.888888888888889,-1.1319444444444444,0,0,0,0.5010631405256182,-0.1682098765432098,0.2222222222222222,0.2222222222222222,0.6666666666666666,0.3333333333333333,-1.3333333333333337,-1.777777777777778,1.222222222222222,1.222222222222222,0.0,2.0,-1.0,3.0,0,0,0,0.47894238576855397,0.2495565768828796,0.2741671111572952,0.255693060910524,0.19031411951273108,0.34182190042722893,0.5300347155666775,0.2490979158608288,0.24848045920972528,0.5853804777590438,0.24271017401763736,0.28759874222819715,0.42698983728372536,0.24466951614014307,0.2857049458495281,0.333330978688639,0.2222214373351131,0.3498435122962551,0.3399550717573498,0.22438562094380493,0.25190923516333885,0.40729017746586055,0.2414048888056884,0.32921391892230245,0.2600869363644635,0.19244172189701103,0.37073831158887993,0.014219572207052967,0.014017375973301376,-0.0026970008189951995
15.0,0.0,15.0,0.0,5.0,0.0,5.0,0.0,,,,left,1.0645389556884766,614.7529129981995,os8,614.7529129981995,None,609.0992288589478,611.1042940616608,True,2.0,['r'],True,0.5,0.5,0.0,0.0,2.0,0.6309297535714574,0.1388888888888888,succ_gain,0.0,4.0,611.1042940616608,None,os8,1,2023-02-28_10h20.45.819,threat_forest,2021.2.3,59.989072882728,True,49.0,0.5833333333333333,0.4999999999999999,-0.888888888888889,-1.1319444444444444,1,1,1,0.0625417999739396,0.1388888888888888,0.5,0.5,0.5,1.0,0.0,0.0,2.0,2.0,1.0,2.0,-1.0,2.0,0,1,1,0.4936760004078691,0.24996000702915877,0.2565119613718174,0.5963078409931736,0.24072479976323363,0.2679120338358836,0.5300347155666775,0.2490979158608288,0.24848045920972528,0.5103640455257783,0.24989258656033964,0.2126632233766519,0.6666816818721797,0.2222172169282615,0.22168350009927662,0.6379277951202289,0.23097592333327213,0.18245902228213762,0.6819376905826349,0.21689867674545743,0.23000579063818227,0.40729017746586055,0.2414048888056884,0.32921391892230245,0.7819741787371228,0.1704905625255251,0.3088762215164772,0.9226778155354628,0.07134346425416926,0.10393265602160606
15.0,0.0,15.0,0.0,6.0,0.0,6.0,0.0,,,,left,1.1248400211334229,620.8438198566437,os8,615.8471598625183,617.857017993927,620.8438198566437,None,False,4.0,['r'],False,0.2222222222222222,0.6666666666666666,0.6666666666666666,2.0,2.0,0.77250688571426,-0.4259259259259259,wait_cost,1.0,3.0,617.857017993927,None,os8,1,2023-02-28_10h20.45.819,threat_forest,2021.2.3,59.989072882728,False,49.0,0.5833333333333333,0.4999999999999999,-0.888888888888889,-1.1319444444444444,0,0,0,0.1176408221075586,-0.4259259259259259,0.0,0.2222222222222222,0.6666666666666666,0.3333333333333333,-1.3333333333333337,-1.777777777777778,2.2222222222222223,2.2222222222222223,0.0,2.0,1.0,4.0,0,0,0,0.47894238576855397,0.2495565768828796,0.2741671111572952,0.255693060910524,0.19031411951273108,0.34182190042722893,0.2968749064081806,0.2087401963533146,0.349854101727346,0.5853804777590438,0.24271017401763736,0.28759874222819715,0.42698983728372536,0.24466951614014307,0.2857049458495281,0.333330978688639,0.2222214373351131,0.3498435122962551,0.3399550717573498,0.22438562094380493,0.25190923516333885,0.40729017746586055,0.2414048888056884,0.32921391892230245,0.051971122851219305,0.049270125240802785,-0.03274352999717228,5.135853076064386e-05,5.1355893061962e-05,-0.028674561354586126
15.0,0.0,15.0,0.0,7.0,0.0,7.0,0.0,,,,right,1.0062358379364014,625.8425898551941,os8,625.8425898551941,None,621.9982340335846,623.9968719482422,False,3.0,['r'],True,0.5,0.5,0.0,0.0,2.0,0.6309297535714574,0.0,wait_cost,0.0,2.0,623.9968719482422,None,os8,1,2023-02-28_10h20.45.819,threat_forest,2021.2.3,59.989072882728,False,49.0,0.5833333333333333,0.4999999999999999,-0.888888888888889,-1.1319444444444444,1,1,0,0.0062164755511243,0.0,0.0,0.5,0.5,1.0,0.0,0.0,3.0,3.0,1.0,2.0,-1.0,3.0,0,1,1,0.4936760004078691,0.24996000702915877,0.2565119613718174,0.5963078409931736,0.24072479976323363,0.2679120338358836,0.5300347155666775,0.2490979158608288,0.24848045920972528,0.5103640455257783,0.24989258656033964,0.2126632233766519,0.6666816818721797,0.2222172169282615,0.22168350009927662,0.6379277951202289,0.23097592333327213,0.18245902228213762,0.6819376905826349,0.21689867674545743,0.23000579063818227,0.40729017746586055,0.2414048888056884,0.32921391892230245,0.051971122851219305,0.049270125240802785,-0.03274352999717228,0.3637687843062729,0.23144105587060923,0.4017229251121463
16.0,0.0,16.0,0.0,0.0,0.0,0.0,0.0,631.7594728469849,635.2595129013062,None,left,1.947077989578247,637.6232490539551,os8,631.7594728469849,635.2595129013062,637.6232490539551,None,False,4.0,['p'],False,0.2448979591836734,0.2857142857142857,0.1428571428571428,1.0,2.0,0.8400769154957735,0.0066793633871859,wait_cost,1.0,3.0,,,os8,1,2023-02-28_10h20.45.819,threat_forest,2021.2.3,59.989072882728,False,29.0,0.4761904761904761,0.5297619047619047,-0.8594104308390023,-0.8741496598639455,0,0,0,0.6663297818683895,0.0066793633871859,0.2448979591836734,0.2448979591836734,0.2857142857142857,0.8571428571428572,-1.2857142857142856,-1.163265306122449,2.836734693877551,2.836734693877551,0.0,2.0,-1.0,4.0,0,0,0,0.47894238576855397,0.2495565768828796,0.2741671111572952,0.5193781741149486,0.24962448636797077,0.25486371458305324,0.5300347155666775,0.2490979158608288,0.24848045920972528,0.41370419248798146,0.24255303360584865,0.2892382189666778,0.43563893716118934,0.24585765359025868,0.28909285176457866,0.333330978688639,0.2222214373351131,0.3498435122962551,0.36654419374002006,0.23218954777549866,0.27474002886340587,0.40729017746586055,0.2414048888056884,0.32921391892230245,0.2981952934976272,0.20927486043349117,0.41817695092096174,0.39821087830405516,0.23963897470436812,0.4169715021259481
16.0,0.0,16.0,0.0,1.0,0.0,1.0,0.0,,,,left,0.9054930210113524,643.9574449062347,os8,643.9574449062347,None,639.6050930023193,641.6164569854736,True,3.0,['p'],True,0.4444444444444445,0.6666666666666666,0.3333333333333333,1.0,2.0,0.9656336071428248,0.0857569121584442,figh_cost,0.0,0.0,641.6164569854736,None,os8,1,2023-02-28_10h20.45.819,threat_forest,2021.2.3,59.989072882728,True,29.0,0.4761904761904761,0.5297619047619047,-0.8594104308390023,-0.8741496598639455,1,0,1,-0.0992757090198422,0.0857569121584442,0.4444444444444445,0.4444444444444445,0.6666666666666666,0.6666666666666667,-0.3333333333333335,-0.5555555555555556,2.4444444444444446,2.4444444444444446,1.0,2.0,-1.0,3.0,0,0,1,0.4936760004078691,0.24996000702915877,0.2565119613718174,0.41600730385655516,0.24294522699455492,0.2646565435384458,0.5300347155666775,0.2490979158608288,0.24848045920972528,0.5853804777590438,0.24271017401763736,0.28759874222819715,0.6097770728999372,0.23794899426552182,0.2665417624913733,0.6379277951202289,0.23097592333327213,0.18245902228213762,0.6171464705513385,0.2362767044373644,0.286697218183524,0.40729017746586055,0.2414048888056884,0.32921391892230245,0.6926767307417867,0.21287567743065702,0.4283246639252355,0.7886788957561686,0.16666449514499918,0.2812349823862276
17.0,0.0,17.0,0.0,0.0,0.0,0.0,0.0,649.0613260269165,652.5614950656891,None,right,0.8105008602142334,656.2610318660736,os8,649.0613260269165,652.5614950656891,656.2610318660736,None,True,5.0,['r'],False,0.2040816326530612,0.2857142857142857,0.2857142857142857,2.0,2.0,0.9335459102197724,-0.0078150263394839,unsucc_cost,1.0,3.0,,,os8,1,2023-02-28_10h20.45.819,threat_forest,2021.2.3,59.989072882728,True,17.0,0.2678571428571428,0.3720238095238095,-1.2346938775510203,-1.0470521541950113,0,0,1,-0.2101028764692354,-0.0078150263394839,0.2040816326530612,0.2040816326530612,0.2857142857142857,0.7142857142857143,-1.7142857142857144,-1.469387755102041,3.5306122448979598,3.5306122448979598,0.0,2.0,-1.0,5.0,0,0,0,0.47894238576855397,0.2495565768828796,0.2741671111572952,0.44151855251091576,0.24657992029958148,0.25932752008666865,0.5300347155666775,0.2490979158608288,0.24848045920972528,0.41370419248798146,0.24255303360584865,0.2892382189666778,0.3597969556439211,0.23034310635328736,0.24485400856646888,0.333330978688639,0.2222214373351131,0.3498435122962551,0.3193777071783537,0.21737558733585147,0.23140101736665997,0.40729017746586055,0.2414048888056884,0.32921391892230245,0.23197282003772593,0.17816143080147073,0.33049402931374994,0.32519349097000694,0.21944268440074696,0.37940529851587185
17.0,0.0,17.0,0.0,1.0,0.0,1.0,0.0,,,,right,1.7541460990905762,661.8374478816986,os8,649.0613260269165,652.5614950656891,661.8374478816986,None,True,3.0,['r'],False,0.2040816326530612,0.2857142857142857,0.2857142857142857,2.0,2.0,0.9335459102197724,0.028184703228122,succ_gain,1.0,5.0,659.119176864624,None,os8,1,2023-02-28_10h20.45.819,threat_forest,2021.2.3,59.989072882728,True,17.0,0.2678571428571428,0.3720238095238095,-1.2346938775510203,-1.0470521541950113,0,0,1,0.5619821852876574,0.028184703228122,0.2040816326530612,0.2040816326530612,0.2857142857142857,0.7142857142857143,-1.7142857142857144,-1.469387755102041,1.530612244897959,1.530612244897959,0.0,2.0,-1.0,3.0,0,0,0,0.47894238576855397,0.2495565768828796,0.2741671111572952,0.44151855251091576,0.24657992029958148,0.25932752008666865,0.5300347155666775,0.2490979158608288,0.24848045920972528,0.41370419248798146,0.24255303360584865,0.2892382189666778,0.3597969556439211,0.23034310635328736,0.24485400856646888,0.333330978688639,0.2222214373351131,0.3498435122962551,0.3193777071783537,0.21737558733585147,0.23140101736665997,0.40729017746586055,0.2414048888056884,0.32921391892230245,0.23197282003772593,0.17816143080147073,0.33049402931374994,0.5143777603887945,0.24979328000620243,0.4358590648789547
