miniblock.thisRepN,miniblock.thisTrialN,miniblock.thisN,miniblock.thisIndex,day.thisRepN,day.thisTrialN,day.thisN,day.thisIndex,forest.started,fixation_forest.started,fixation_forest.stopped,key_resp.keys,key_resp.rt,key_resp.started,Subject_ID,weather_left.started,weather_left.stopped,weather_right.started,weather_right.stopped,foraging T/F,in_LP,p/r heuristic,good_weather.T/F,p_succ_correct,p_succ_uncorrected,r_threat,n_oponents,gain_if_succ,weather_entropy,OP_value_difference,action_outcome,forest_side_L=0_R=1,out_LP,fixation_day.started,fixation_day.stopped,participant,session,date,expName,psychopyVersion,frameRate,foraging T/F NaNs,fora_NR,forest_mean_p,mvt_cutoff_p,forest_mean_ev,mvt_cutoff_ev,mvt_policy_eg,mvt_policy_p,fora_response,logRT,optimal policy values,multi-heuristic policy,** $\mathit{p}$ success,* $\mathit{p}$ gain,* $\mathit{r}$ predator,expected gain naive,expected gain correct,expected state no bounds,expected state with bounds,weather type,gain magnitude,win stay lose shift,continuous energy state,** binary energy state,** wait when safe,$\mathit{p}$ success based MVT,marginal value,$\mathit{OP}$ values + cap,win stay lose shift fit,win stay lose shift_uncertain,win stay lose shift_uncertain_fit,** wait when safe fit,** wait when safe_uncertain,** wait when safe_uncertain_fit,** binary energy state fit,** binary energy state_uncertain,** binary energy state_uncertain_fit,weather type fit,weather type_uncertain,weather type_uncertain_fit,* $\mathit{r}$ predator fit,* $\mathit{r}$ predator_uncertain,* $\mathit{r}$ predator_uncertain_fit,* $\mathit{p}$ gain fit,* $\mathit{p}$ gain_uncertain,* $\mathit{p}$ gain_uncertain_fit,expected gain naive fit,expected gain naive_uncertain,expected gain naive_uncertain_fit,** $\mathit{p}$ success fit,** $\mathit{p}$ success_uncertain,** $\mathit{p}$ success_uncertain_fit,marginal value fit,marginal value_uncertain,marginal value_uncertain_fit,multi-heuristic policy fit,multi-heuristic policy_uncertain,multi-heuristic policy_uncertain_fit,optimal policy values fit,optimal policy values_uncertain,optimal policy values_uncertain_fit
0.0,0.0,0.0,0.0,0.0,0.0,0.0,0.0,23.69936895370484,27.20484495162964,,left,1.1531260013580322,30.39111590385437,bh3,30.39111590385437,,23.69936895370484,27.20484495162964,True,5.0,['p'],True,0.4444444444444445,0.6666666666666666,0.3333333333333333,1.0,1.0,0.9656336071428248,0.0469296874463657,succ_gain,0.0,6.0,,,bh3,1,2023-04-04_10h06.34.937,threat_forest,2021.2.3,60.196737498672434,True,6.0,0.4833333333333333,0.4833333333333333,-1.145,-1.145,1,0,1.0,0.1424765166327473,0.0469296874463657,0.4444444444444445,0.4444444444444445,0.6666666666666666,0.3333333333333333,0.0,0.0,5.0,5.0,1.0,1.0,,5.0,0,1,0,1,0.0469296874463657,,,,0.5718859937850478,0.24483240389753608,0.005468921467980725,0.3901004452408826,0.2379220878637478,-0.04407871239327753,0.4598929579215586,0.24839142517571813,-0.07051571433209425,0.47746570351249806,0.2494922054818133,0.012281968516703046,0.6074853935698005,0.2384468901691451,-0.04539043801090664,0.47191324772190946,0.24921113434646924,-0.015177392092845077,0.5589738094522995,0.2465220897986839,-0.0015583688539018148,0.5714316182217387,0.24489752391822375,-0.07561318827427743,0.6899213837090353,0.21392986801004543,0.03704241831521196,0.6197126212835118,0.2356688883054305,0.030811095653954873
0.0,0.0,0.0,0.0,1.0,0.0,1.0,0.0,,,,right,2.583570003509521,35.44490885734558,bh3,35.44490885734558,,23.69936895370484,27.20484495162964,False,6.0,['p'],True,0.4444444444444445,0.6666666666666666,0.3333333333333333,1.0,1.0,0.9656336071428248,-0.1136311593387568,wait_cost,0.0,5.0,33.59546184539795,,bh3,1,2023-04-04_10h06.34.937,threat_forest,2021.2.3,60.196737498672434,False,6.0,0.4833333333333333,0.4833333333333333,-1.145,-1.145,1,0,0.0,0.9491721647625658,-0.1136311593387568,0.4444444444444445,0.4444444444444445,0.6666666666666666,0.3333333333333333,0.0,0.0,6.0,6.0,1.0,1.0,1.0,6.0,0,1,0,1,-0.1136311593387568,0.2191773868741429,0.17113865995716515,-0.03443333287187809,0.5718859937850478,0.24483240389753608,0.005468921467980725,0.3901004452408826,0.2379220878637478,-0.04407871239327753,0.4598929579215586,0.24839142517571813,-0.07051571433209425,0.47746570351249806,0.2494922054818133,0.012281968516703046,0.6074853935698005,0.2384468901691451,-0.04539043801090664,0.47191324772190946,0.24921113434646924,-0.015177392092845077,0.5589738094522995,0.2465220897986839,-0.0015583688539018148,0.5714316182217387,0.24489752391822375,-0.07561318827427743,0.6899213837090353,0.21392986801004543,0.03704241831521196,0.02884277908601014,0.02801087318060576,-0.15626129828073504
0.0,0.0,0.0,0.0,2.0,0.0,2.0,0.0,,,,left,1.1379389762878418,40.88657689094544,bh3,40.88657689094544,,23.69936895370484,27.20484495162964,True,5.0,['p'],True,0.4444444444444445,0.6666666666666666,0.3333333333333333,1.0,1.0,0.9656336071428248,0.0728365854261925,succ_gain,0.0,6.0,40.06964683532715,,bh3,1,2023-04-04_10h06.34.937,threat_forest,2021.2.3,60.196737498672434,True,6.0,0.4833333333333333,0.4833333333333333,-1.145,-1.145,1,0,1.0,0.1292187106176947,0.0728365854261925,0.4444444444444445,0.4444444444444445,0.6666666666666666,0.3333333333333333,0.0,0.0,5.0,5.0,1.0,1.0,-1.0,5.0,0,1,0,1,0.0728365854261925,0.5361817102943688,0.24869088384017443,-0.04648740999954908,0.5718859937850478,0.24483240389753608,0.005468921467980725,0.3901004452408826,0.2379220878637478,-0.04407871239327753,0.4598929579215586,0.24839142517571813,-0.07051571433209425,0.47746570351249806,0.2494922054818133,0.012281968516703046,0.6074853935698005,0.2384468901691451,-0.04539043801090664,0.47191324772190946,0.24921113434646924,-0.015177392092845077,0.5589738094522995,0.2465220897986839,-0.0015583688539018148,0.5714316182217387,0.24489752391822375,-0.07561318827427743,0.6899213837090353,0.21392986801004543,0.03704241831521196,0.7566755099201554,0.1841176826072282,-0.01562971932920565
0.0,0.0,0.0,0.0,3.0,0.0,3.0,0.0,,,,right,1.553584098815918,45.32542681694031,bh3,45.32542681694031,,23.69936895370484,27.20484495162964,False,6.0,['p'],True,0.4444444444444445,0.6666666666666666,0.3333333333333333,1.0,1.0,0.9656336071428248,-0.2851403823731138,wait_cost,0.0,5.0,44.07381701469421,,bh3,1,2023-04-04_10h06.34.937,threat_forest,2021.2.3,60.196737498672434,False,6.0,0.4833333333333333,0.4833333333333333,-1.145,-1.145,1,0,0.0,0.4405645834458494,-0.2851403823731138,0.0,0.4444444444444445,0.6666666666666666,0.3333333333333333,0.0,0.0,6.0,6.0,1.0,1.0,1.0,6.0,0,0,0,1,-0.84,0.2191773868741429,0.17113865995716515,-0.03443333287187809,0.015383709914403432,0.015147051383672921,-0.28023233603623476,0.3901004452408826,0.2379220878637478,-0.04407871239327753,0.4598929579215586,0.24839142517571813,-0.07051571433209425,0.47746570351249806,0.2494922054818133,0.012281968516703046,0.6074853935698005,0.2384468901691451,-0.04539043801090664,0.47191324772190946,0.24921113434646924,-0.015177392092845077,0.5589738094522995,0.2465220897986839,-0.0015583688539018148,0.5714316182217387,0.24489752391822375,-0.07561318827427743,0.036314630281208675,0.0349958779087478,-0.15445597158374394,0.000411752042531616,0.0004115825027870872,-0.18112460719224205
0.0,0.0,0.0,0.0,4.0,0.0,4.0,0.0,,,,right,1.732316017150879,51.69449591636658,bh3,51.69449591636658,,23.69936895370484,27.20484495162964,False,5.0,['p'],True,0.4444444444444445,0.6666666666666666,0.3333333333333333,1.0,1.0,0.9656336071428248,-0.3087358710562414,wait_cost,0.0,4.0,48.92324900627136,,bh3,1,2023-04-04_10h06.34.937,threat_forest,2021.2.3,60.196737498672434,False,6.0,0.4833333333333333,0.4833333333333333,-1.145,-1.145,1,0,0.0,0.5494592514361246,-0.3087358710562414,0.0,0.4444444444444445,0.6666666666666666,0.3333333333333333,0.0,0.0,5.0,5.0,1.0,1.0,-1.0,5.0,0,0,0,1,-0.84,0.5361817102943688,0.24869088384017443,-0.04648740999954908,0.015383709914403432,0.015147051383672921,-0.28023233603623476,0.3901004452408826,0.2379220878637478,-0.04407871239327753,0.4598929579215586,0.24839142517571813,-0.07051571433209425,0.47746570351249806,0.2494922054818133,0.012281968516703046,0.6074853935698005,0.2384468901691451,-0.04539043801090664,0.47191324772190946,0.24921113434646924,-0.015177392092845077,0.5589738094522995,0.2465220897986839,-0.0015583688539018148,0.5714316182217387,0.24489752391822375,-0.07561318827427743,0.036314630281208675,0.0349958779087478,-0.15445597158374394,0.00022861727050965092,0.00022856500465327572,-0.18128948174084664
0.0,0.0,0.0,0.0,5.0,0.0,5.0,0.0,,,,right,0.6854650974273682,58.95283579826355,bh3,58.95283579826355,,23.69936895370484,27.20484495162964,False,4.0,['p'],True,0.4444444444444445,0.6666666666666666,0.3333333333333333,1.0,1.0,0.9656336071428248,-0.3474074074074074,wait_cost,0.0,3.0,55.470271825790405,,bh3,1,2023-04-04_10h06.34.937,threat_forest,2021.2.3,60.196737498672434,False,6.0,0.4833333333333333,0.4833333333333333,-1.145,-1.145,1,0,0.0,-0.3776576967721864,-0.3474074074074074,0.0,0.4444444444444445,0.6666666666666666,0.3333333333333333,0.0,0.0,4.0,4.0,1.0,1.0,-1.0,4.0,0,0,0,1,-0.84,0.5361817102943688,0.24869088384017443,-0.04648740999954908,0.015383709914403432,0.015147051383672921,-0.28023233603623476,0.3901004452408826,0.2379220878637478,-0.04407871239327753,0.4598929579215586,0.24839142517571813,-0.07051571433209425,0.47746570351249806,0.2494922054818133,0.012281968516703046,0.6074853935698005,0.2384468901691451,-0.04539043801090664,0.47191324772190946,0.24921113434646924,-0.015177392092845077,0.5589738094522995,0.2465220897986839,-0.0015583688539018148,0.5714316182217387,0.24489752391822375,-0.07561318827427743,0.036314630281208675,0.0349958779087478,-0.15445597158374394,8.714604884163555e-05,8.713845440780688e-05,-0.181416888348795
0.0,0.0,0.0,0.0,6.0,0.0,6.0,0.0,,,,right,0.6915769577026367,63.071368932724,bh3,63.071368932724,,23.69936895370484,27.20484495162964,False,3.0,['p'],True,0.4444444444444445,0.6666666666666666,0.3333333333333333,1.0,1.0,0.9656336071428248,-0.4761728395061728,wait_cost,0.0,2.0,61.67645692825317,,bh3,1,2023-04-04_10h06.34.937,threat_forest,2021.2.3,60.196737498672434,False,6.0,0.4833333333333333,0.4833333333333333,-1.145,-1.145,1,0,0.0,-0.3687808431042136,-0.4761728395061728,0.0,0.4444444444444445,0.6666666666666666,0.3333333333333333,0.0,0.0,3.0,3.0,1.0,1.0,-1.0,3.0,0,0,0,1,-0.84,0.5361817102943688,0.24869088384017443,-0.04648740999954908,0.015383709914403432,0.015147051383672921,-0.28023233603623476,0.3901004452408826,0.2379220878637478,-0.04407871239327753,0.4598929579215586,0.24839142517571813,-0.07051571433209425,0.47746570351249806,0.2494922054818133,0.012281968516703046,0.6074853935698005,0.2384468901691451,-0.04539043801090664,0.47191324772190946,0.24921113434646924,-0.015177392092845077,0.5589738094522995,0.2465220897986839,-0.0015583688539018148,0.5714316182217387,0.24489752391822375,-0.07561318827427743,0.036314630281208675,0.0349958779087478,-0.15445597158374394,3.510653567926954e-06,3.5106412432384827e-06,-0.1814922259426693
0.0,0.0,0.0,0.0,7.0,0.0,7.0,0.0,,,,right,0.7932999134063721,68.89418196678162,bh3,68.89418196678162,,23.69936895370484,27.20484495162964,False,2.0,['p'],True,0.4444444444444445,0.6666666666666666,0.3333333333333333,1.0,1.0,0.9656336071428248,-0.5555555555555556,wait_cost,0.0,1.0,65.79817986488342,,bh3,1,2023-04-04_10h06.34.937,threat_forest,2021.2.3,60.196737498672434,False,6.0,0.4833333333333333,0.4833333333333333,-1.145,-1.145,1,0,0.0,-0.231553927830404,-0.5555555555555556,0.0,0.4444444444444445,0.6666666666666666,0.3333333333333333,0.0,0.0,2.0,2.0,1.0,1.0,-1.0,2.0,0,0,0,1,-0.84,0.5361817102943688,0.24869088384017443,-0.04648740999954908,0.015383709914403432,0.015147051383672921,-0.28023233603623476,0.3901004452408826,0.2379220878637478,-0.04407871239327753,0.4598929579215586,0.24839142517571813,-0.07051571433209425,0.47746570351249806,0.2494922054818133,0.012281968516703046,0.6074853935698005,0.2384468901691451,-0.04539043801090664,0.47191324772190946,0.24921113434646924,-0.015177392092845077,0.5589738094522995,0.2465220897986839,-0.0015583688539018148,0.5714316182217387,0.24489752391822375,-0.07561318827427743,0.036314630281208675,0.0349958779087478,-0.15445597158374394,4.84672724363868e-07,4.846724894562187e-07,-0.1814949519401147
1.0,0.0,1.0,0.0,0.0,0.0,0.0,0.0,74.51404881477356,78.0275650024414,,left,1.655961036682129,79.99339389801025,bh3,74.51404881477356,78.0275650024414,79.99339389801025,,False,4.0,['r'],False,0.46875,0.625,0.25,2.0,2.0,0.9634951148421658,0.0146228087570071,wait_cost,1.0,3.0,,,bh3,1,2023-04-04_10h06.34.937,threat_forest,2021.2.3,60.196737498672434,False,62.0,0.6125,0.5479166666666666,0.0124999999999999,-0.56625,1,0,0.0,0.504381527112673,0.0146228087570071,0.46875,0.46875,0.625,0.25,0.75,0.625,4.625,4.625,0.0,2.0,-1.0,4.0,0,1,0,1,0.0146228087570071,0.5361817102943688,0.24869088384017443,-0.04648740999954908,0.5718859937850478,0.24483240389753608,0.005468921467980725,0.3901004452408826,0.2379220878637478,-0.04407871239327753,0.49214676120295753,0.24993832664039664,-0.017365920642816945,0.47668073353195084,0.24945621181139208,-0.020365261136930712,0.582035589343641,0.24327016208104155,-0.03644121240482173,0.563983478754544,0.24590611444646684,-0.031550627530296804,0.5805909145134903,0.24350510449787932,-0.01574171242541822,0.5714316182217387,0.24489752391822375,-0.07561318827427743,0.7355144558559461,0.19453294108287764,0.01628347657676693,0.4212803643008198,0.2438032189553884,0.03813905121988492
1.0,0.0,1.0,0.0,1.0,0.0,1.0,0.0,,,,left,0.806372880935669,86.42197895050049,bh3,86.42197895050049,,81.68584680557251,83.6982729434967,True,3.0,['r'],True,0.6,0.6,0.0,0.0,2.0,0.6126016192893442,0.2104563208898306,succ_gain,0.0,5.0,83.6982729434967,,bh3,1,2023-04-04_10h06.34.937,threat_forest,2021.2.3,60.196737498672434,True,62.0,0.6125,0.5479166666666666,0.0124999999999999,-0.56625,1,1,1.0,-0.2152090120226042,0.2104563208898306,0.6,0.6,0.6,0.0,1.4,1.4,4.4,4.4,1.0,2.0,-1.0,3.0,0,1,1,1,0.2104563208898306,0.5361817102943688,0.24869088384017443,-0.04648740999954908,0.5718859937850478,0.24483240389753608,0.005468921467980725,0.3901004452408826,0.2379220878637478,-0.04407871239327753,0.4598929579215586,0.24839142517571813,-0.07051571433209425,0.47432653012910597,0.24934087294478827,-0.1249807232983926,0.5665438551298161,0.24557191534446207,-0.032170478840519434,0.6405718548086592,0.2302395536356532,-0.10916356070822397,0.6902923577916933,0.21378881856607815,-0.15544285479683095,0.5714316182217387,0.24489752391822375,-0.07561318827427743,0.9026617059522619,0.08786355055961423,-0.09787603288895168,0.9897204211176037,0.010173909140396911,-0.17233004266087887
1.0,0.0,1.0,0.0,2.0,0.0,2.0,0.0,,,,left,1.5388731956481934,93.065682888031,bh3,87.26286387443542,89.27394580841064,93.065682888031,,False,5.0,['r'],False,0.46875,0.625,0.25,2.0,2.0,0.9634951148421658,-0.0122776407927275,wait_cost,1.0,4.0,89.27394580841064,,bh3,1,2023-04-04_10h06.34.937,threat_forest,2021.2.3,60.196737498672434,False,62.0,0.6125,0.5479166666666666,0.0124999999999999,-0.56625,1,0,0.0,0.4310504574713933,-0.0122776407927275,0.46875,0.46875,0.625,0.25,0.75,0.625,5.625,5.625,0.0,2.0,1.0,5.0,0,1,0,1,-0.0122776407927275,0.2191773868741429,0.17113865995716515,-0.03443333287187809,0.5718859937850478,0.24483240389753608,0.005468921467980725,0.3901004452408826,0.2379220878637478,-0.04407871239327753,0.49214676120295753,0.24993832664039664,-0.017365920642816945,0.47668073353195084,0.24945621181139208,-0.020365261136930712,0.582035589343641,0.24327016208104155,-0.03644121240482173,0.563983478754544,0.24590611444646684,-0.031550627530296804,0.5805909145134903,0.24350510449787932,-0.01574171242541822,0.5714316182217387,0.24489752391822375,-0.07561318827427743,0.7355144558559461,0.19453294108287764,0.01628347657676693,0.271206034940112,0.19765332155217474,-0.0034358997005980996
1.0,0.0,1.0,0.0,3.0,0.0,3.0,0.0,,,,left,1.304692029953003,97.1988639831543,bh3,87.26286387443542,89.27394580841064,97.1988639831543,,False,4.0,['r'],False,0.46875,0.625,0.25,2.0,2.0,0.9634951148421658,0.0075810928344726,wait_cost,1.0,3.0,96.63169384002686,,bh3,1,2023-04-04_10h06.34.937,threat_forest,2021.2.3,60.196737498672434,False,62.0,0.6125,0.5479166666666666,0.0124999999999999,-0.56625,1,0,0.0,0.265967020550897,0.0075810928344726,0.46875,0.46875,0.625,0.25,0.75,0.625,4.625,4.625,0.0,2.0,-1.0,4.0,0,1,0,1,0.0075810928344726,0.5361817102943688,0.24869088384017443,-0.04648740999954908,0.5718859937850478,0.24483240389753608,0.005468921467980725,0.3901004452408826,0.2379220878637478,-0.04407871239327753,0.49214676120295753,0.24993832664039664,-0.017365920642816945,0.47668073353195084,0.24945621181139208,-0.020365261136930712,0.582035589343641,0.24327016208104155,-0.03644121240482173,0.563983478754544,0.24590611444646684,-0.031550627530296804,0.5805909145134903,0.24350510449787932,-0.01574171242541822,0.5714316182217387,0.24489752391822375,-0.07561318827427743,0.7355144558559461,0.19453294108287764,0.01628347657676693,0.3791482670500101,0.23539485864298432,0.03056423118820281
1.0,0.0,1.0,0.0,4.0,0.0,4.0,0.0,,,,left,0.8597629070281982,101.97150778770448,bh3,101.97150778770448,,98.53643894195557,100.53600001335144,True,3.0,['r'],True,0.6,0.6,0.0,0.0,2.0,0.6126016192893442,0.2465625,succ_gain,0.0,5.0,100.53600001335144,,bh3,1,2023-04-04_10h06.34.937,threat_forest,2021.2.3,60.196737498672434,True,62.0,0.6125,0.5479166666666666,0.0124999999999999,-0.56625,1,1,1.0,-0.1510986172460155,0.2465625,0.6,0.6,0.6,0.0,1.4,1.4,4.4,4.4,1.0,2.0,-1.0,3.0,0,1,1,1,0.2465625,0.5361817102943688,0.24869088384017443,-0.04648740999954908,0.5718859937850478,0.24483240389753608,0.005468921467980725,0.3901004452408826,0.2379220878637478,-0.04407871239327753,0.4598929579215586,0.24839142517571813,-0.07051571433209425,0.47432653012910597,0.24934087294478827,-0.1249807232983926,0.5665438551298161,0.24557191534446207,-0.032170478840519434,0.6405718548086592,0.2302395536356532,-0.10916356070822397,0.6902923577916933,0.21378881856607815,-0.15544285479683095,0.5714316182217387,0.24489752391822375,-0.07561318827427743,0.9026617059522619,0.08786355055961423,-0.09787603288895168,0.9957975632424229,0.004184776282875707,-0.17772545887236446
1.0,0.0,1.0,0.0,5.0,0.0,5.0,0.0,,,,right,0.994431972503662,106.3504569530487,bh3,106.3504569530487,,98.53643894195557,100.53600001335144,False,5.0,['r'],True,0.6,0.6,0.0,0.0,2.0,0.6126016192893442,0.0,wait_cost,0.0,4.0,104.8745768070221,,bh3,1,2023-04-04_10h06.34.937,threat_forest,2021.2.3,60.196737498672434,False,62.0,0.6125,0.5479166666666666,0.0124999999999999,-0.56625,1,1,0.0,-0.0055835867445313,0.0,0.0,0.6,0.6,0.0,1.4,1.4,6.4,6.4,1.0,2.0,1.0,5.0,0,0,1,1,-0.84,0.2191773868741429,0.17113865995716515,-0.03443333287187809,0.015383709914403432,0.015147051383672921,-0.28023233603623476,0.3901004452408826,0.2379220878637478,-0.04407871239327753,0.4598929579215586,0.24839142517571813,-0.07051571433209425,0.47432653012910597,0.24934087294478827,-0.1249807232983926,0.5665438551298161,0.24557191534446207,-0.032170478840519434,0.6405718548086592,0.2302395536356532,-0.10916356070822397,0.6902923577916933,0.21378881856607815,-0.15544285479683095,0.5714316182217387,0.24489752391822375,-0.07561318827427743,0.036314630281208675,0.0349958779087478,-0.15445597158374394,0.3357561166023349,0.22302394676645418,0.019419676529397745
1.0,0.0,1.0,0.0,6.0,0.0,6.0,0.0,,,,left,1.037326097488403,110.51875400543211,bh3,107.38191294670104,109.3961308002472,110.51875400543211,,False,4.0,['r'],False,0.46875,0.625,0.25,2.0,2.0,0.9634951148421658,-0.11640625,wait_cost,1.0,3.0,109.3961308002472,,bh3,1,2023-04-04_10h06.34.937,threat_forest,2021.2.3,60.196737498672434,False,62.0,0.6125,0.5479166666666666,0.0124999999999999,-0.56625,1,0,0.0,0.0366463421947897,-0.11640625,0.0,0.46875,0.625,0.25,0.75,0.625,4.625,4.625,0.0,2.0,-1.0,4.0,0,0,0,1,-0.84,0.5361817102943688,0.24869088384017443,-0.04648740999954908,0.015383709914403432,0.015147051383672921,-0.28023233603623476,0.3901004452408826,0.2379220878637478,-0.04407871239327753,0.49214676120295753,0.24993832664039664,-0.017365920642816945,0.47668073353195084,0.24945621181139208,-0.020365261136930712,0.582035589343641,0.24327016208104155,-0.03644121240482173,0.563983478754544,0.24590611444646684,-0.031550627530296804,0.5805909145134903,0.24350510449787932,-0.01574171242541822,0.5714316182217387,0.24489752391822375,-0.07561318827427743,0.036314630281208675,0.0349958779087478,-0.15445597158374394,0.026965813719563213,0.02623865861000503,-0.15785782910613533
1.0,0.0,1.0,0.0,7.0,0.0,7.0,0.0,,,,right,1.1205401420593262,116.93737483024596,bh3,116.93737483024596,,111.58360290527344,113.58136296272278,False,3.0,['r'],True,0.6,0.6,0.0,0.0,2.0,0.6126016192893442,0.0,wait_cost,0.0,2.0,113.58136296272278,,bh3,1,2023-04-04_10h06.34.937,threat_forest,2021.2.3,60.196737498672434,False,62.0,0.6125,0.5479166666666666,0.0124999999999999,-0.56625,1,1,0.0,0.1138108387481762,0.0,0.0,0.6,0.6,0.0,1.4,1.4,4.4,4.4,1.0,2.0,-1.0,3.0,0,0,1,1,-0.84,0.5361817102943688,0.24869088384017443,-0.04648740999954908,0.015383709914403432,0.015147051383672921,-0.28023233603623476,0.3901004452408826,0.2379220878637478,-0.04407871239327753,0.4598929579215586,0.24839142517571813,-0.07051571433209425,0.47432653012910597,0.24934087294478827,-0.1249807232983926,0.5665438551298161,0.24557191534446207,-0.032170478840519434,0.6405718548086592,0.2302395536356532,-0.10916356070822397,0.6902923577916933,0.21378881856607815,-0.15544285479683095,0.5714316182217387,0.24489752391822375,-0.07561318827427743,0.036314630281208675,0.0349958779087478,-0.15445597158374394,0.3357561166023349,0.22302394676645418,0.019419676529397745
2.0,0.0,2.0,0.0,0.0,0.0,0.0,0.0,121.61075186729433,125.11303997039796,,left,1.407789945602417,128.30966782569885,bh3,121.61075186729433,125.11303997039796,128.30966782569885,,False,5.0,['r'],False,0.24,0.4,0.4,2.0,2.0,0.9801625908629508,-0.0217856454141892,wait_cost,1.0,4.0,,,bh3,1,2023-04-04_10h06.34.937,threat_forest,2021.2.3,60.196737498672434,False,46.0,0.3666666666666667,0.4895833333333333,-1.0533333333333337,-0.5204166666666667,0,0,0.0,0.3420210602445387,-0.0217856454141892,0.24,0.24,0.4,0.4,-0.6000000000000001,-0.4400000000000001,4.56,4.56,0.0,2.0,-1.0,5.0,0,1,0,0,-0.0217856454141892,0.5361817102943688,0.24869088384017443,-0.04648740999954908,0.5718859937850478,0.24483240389753608,0.005468921467980725,0.3901004452408826,0.2379220878637478,-0.04407871239327753,0.49214676120295753,0.24993832664039664,-0.017365920642816945,0.4780937598348736,0.2495201166418278,0.03759814328378752,0.4404816147584438,0.24645756181823775,-0.030527227071631358,0.3993165613462032,0.2398628451808471,-0.06148928856463298,0.37638977718590805,0.23472051281585052,-0.057039521177908226,0.38095183302474284,0.23582753393983127,-0.011706015021366367,0.254213604577104,0.1895890478250198,0.010992432666238228,0.2269391868531314,0.17543779232357096,-0.02344915193563865
2.0,0.0,2.0,0.0,1.0,0.0,1.0,0.0,,,,left,0.8947131633758545,132.40458989143372,bh3,132.40458989143372,,129.739905834198,131.75420784950256,True,4.0,['r'],True,0.3333333333333333,0.3333333333333333,0.0,0.0,2.0,0.5793801642856949,0.0728093491358023,unsucc_cost,0.0,2.0,131.75420784950256,,bh3,1,2023-04-04_10h06.34.937,threat_forest,2021.2.3,60.196737498672434,True,46.0,0.3666666666666667,0.4895833333333333,-1.0533333333333337,-0.5204166666666667,0,0,1.0,-0.1112520999226947,0.0728093491358023,0.3333333333333333,0.3333333333333333,0.3333333333333333,0.0,0.3333333333333331,0.3333333333333331,4.333333333333333,4.333333333333333,1.0,2.0,-1.0,4.0,0,1,0,0,0.0728093491358023,0.5361817102943688,0.24869088384017443,-0.04648740999954908,0.5718859937850478,0.24483240389753608,0.005468921467980725,0.3901004452408826,0.2379220878637478,-0.04407871239327753,0.4598929579215586,0.24839142517571813,-0.07051571433209425,0.47432653012910597,0.24934087294478827,-0.1249807232983926,0.3993442387023785,0.23986841771759632,-0.04275289839698243,0.5129707636376146,0.24983175929065712,-0.012102784787292542,0.4585435356762932,0.2482813615657772,0.006712256760912805,0.38095183302474284,0.23582753393983127,-0.011706015021366367,0.44526468186382684,0.24700404494853195,0.07243900019083974,0.7565504041269909,0.18418189014227762,-0.015571876836185938
2.0,0.0,2.0,0.0,2.0,0.0,2.0,0.0,,,,left,2.228580951690674,137.04664778709412,bh3,133.33005690574646,135.34133887290955,137.04664778709412,,False,2.0,['r'],False,0.24,0.4,0.4,2.0,2.0,0.9801625908629508,-0.0075037037037035,wait_cost,1.0,1.0,135.34133887290955,,bh3,1,2023-04-04_10h06.34.937,threat_forest,2021.2.3,60.196737498672434,False,46.0,0.3666666666666667,0.4895833333333333,-1.0533333333333337,-0.5204166666666667,0,0,0.0,0.8013650383855812,-0.0075037037037035,0.24,0.24,0.4,0.4,-0.6000000000000001,-0.4400000000000001,1.5599999999999998,1.5599999999999998,0.0,2.0,-1.0,2.0,0,1,0,0,-0.0075037037037035,0.5361817102943688,0.24869088384017443,-0.04648740999954908,0.5718859937850478,0.24483240389753608,0.005468921467980725,0.3901004452408826,0.2379220878637478,-0.04407871239327753,0.49214676120295753,0.24993832664039664,-0.017365920642816945,0.4780937598348736,0.2495201166418278,0.03759814328378752,0.4404816147584438,0.24645756181823775,-0.030527227071631358,0.3993165613462032,0.2398628451808471,-0.06148928856463298,0.37638977718590805,0.23472051281585052,-0.057039521177908226,0.38095183302474284,0.23582753393983127,-0.011706015021366367,0.254213604577104,0.1895890478250198,0.010992432666238228,0.29537222926632345,0.20812747544456592,0.005999926997023675
2.0,0.0,2.0,0.0,3.0,0.0,3.0,0.0,,,,left,0.7574529647827148,142.60190296173096,bh3,142.60190296173096,,139.2991600036621,141.31161499023438,True,1.0,['r'],True,0.3333333333333333,0.3333333333333333,0.0,0.0,2.0,0.5793801642856949,0.1446074074074073,succ_gain,0.0,3.0,141.31161499023438,,bh3,1,2023-04-04_10h06.34.937,threat_forest,2021.2.3,60.196737498672434,True,46.0,0.3666666666666667,0.4895833333333333,-1.0533333333333337,-0.5204166666666667,0,0,1.0,-0.2777938362225301,0.1446074074074073,1.0,0.3333333333333333,0.3333333333333333,0.0,0.3333333333333331,0.3333333333333331,1.333333333333333,1.333333333333333,1.0,2.0,-1.0,1.0,1,1,0,0,0.625,0.5361817102943688,0.24869088384017443,-0.04648740999954908,0.5718859937850478,0.24483240389753608,0.005468921467980725,0.9818368566014101,0.01783324362047212,-0.04119827854270211,0.4598929579215586,0.24839142517571813,-0.07051571433209425,0.47432653012910597,0.24934087294478827,-0.1249807232983926,0.3993442387023785,0.23986841771759632,-0.04275289839698243,0.5129707636376146,0.24983175929065712,-0.012102784787292542,0.4585435356762932,0.2482813615657772,0.006712256760912805,0.38095183302474284,0.23582753393983127,-0.011706015021366367,0.9972615519712243,0.002730948931169231,-0.18898648166689025,0.9490568121064915,0.04834797950075527,-0.137940256529817
2.0,0.0,2.0,0.0,4.0,0.0,4.0,0.0,,,,left,2.036790132522583,146.8983929157257,bh3,146.8983929157257,,139.2991600036621,141.31161499023438,True,3.0,['r'],True,0.3333333333333333,0.3333333333333333,0.0,0.0,2.0,0.5793801642856949,0.2144444444444444,succ_gain,0.0,5.0,145.4029188156128,,bh3,1,2023-04-04_10h06.34.937,threat_forest,2021.2.3,60.196737498672434,True,46.0,0.3666666666666667,0.4895833333333333,-1.0533333333333337,-0.5204166666666667,0,0,1.0,0.7113751042111666,0.2144444444444444,0.3333333333333333,0.3333333333333333,0.3333333333333333,0.0,0.3333333333333331,0.3333333333333331,3.333333333333333,3.333333333333333,1.0,2.0,1.0,3.0,0,1,0,0,0.2144444444444444,0.2191773868741429,0.17113865995716515,-0.03443333287187809,0.5718859937850478,0.24483240389753608,0.005468921467980725,0.3901004452408826,0.2379220878637478,-0.04407871239327753,0.4598929579215586,0.24839142517571813,-0.07051571433209425,0.47432653012910597,0.24934087294478827,-0.1249807232983926,0.3993442387023785,0.23986841771759632,-0.04275289839698243,0.5129707636376146,0.24983175929065712,-0.012102784787292542,0.4585435356762932,0.2482813615657772,0.006712256760912805,0.38095183302474284,0.23582753393983127,-0.011706015021366367,0.44526468186382684,0.24700404494853195,0.07243900019083974,0.9906847281485819,0.00922849756175215,-0.17318173339462847
2.0,0.0,2.0,0.0,5.0,0.0,5.0,0.0,,,,right,1.1250410079956057,151.7194848060608,bh3,151.7194848060608,,139.2991600036621,141.31161499023438,False,5.0,['r'],True,0.3333333333333333,0.3333333333333333,0.0,0.0,2.0,0.5793801642856949,0.0,wait_cost,0.0,4.0,150.9754638671875,,bh3,1,2023-04-04_10h06.34.937,threat_forest,2021.2.3,60.196737498672434,False,46.0,0.3666666666666667,0.4895833333333333,-1.0533333333333337,-0.5204166666666667,0,0,0.0,0.1178194865436912,0.0,0.0,0.3333333333333333,0.3333333333333333,0.0,0.3333333333333331,0.3333333333333331,5.333333333333333,5.333333333333333,1.0,2.0,1.0,5.0,0,0,0,0,-0.84,0.2191773868741429,0.17113865995716515,-0.03443333287187809,0.015383709914403432,0.015147051383672921,-0.28023233603623476,0.3901004452408826,0.2379220878637478,-0.04407871239327753,0.4598929579215586,0.24839142517571813,-0.07051571433209425,0.47432653012910597,0.24934087294478827,-0.1249807232983926,0.3993442387023785,0.23986841771759632,-0.04275289839698243,0.5129707636376146,0.24983175929065712,-0.012102784787292542,0.4585435356762932,0.2482813615657772,0.006712256760912805,0.38095183302474284,0.23582753393983127,-0.011706015021366367,0.036314630281208675,0.0349958779087478,-0.15445597158374394,0.3357561166023349,0.22302394676645418,0.019419676529397745
2.0,0.0,2.0,0.0,6.0,0.0,6.0,0.0,,,,right,0.9746420383453368,156.19264197349548,bh3,156.19264197349548,,139.2991600036621,141.31161499023438,False,4.0,['r'],True,0.3333333333333333,0.3333333333333333,0.0,0.0,2.0,0.5793801642856949,0.0,wait_cost,0.0,3.0,154.87990593910217,,bh3,1,2023-04-04_10h06.34.937,threat_forest,2021.2.3,60.196737498672434,False,46.0,0.3666666666666667,0.4895833333333333,-1.0533333333333337,-0.5204166666666667,0,0,0.0,-0.0256850155553672,0.0,0.0,0.3333333333333333,0.3333333333333333,0.0,0.3333333333333331,0.3333333333333331,4.333333333333333,4.333333333333333,1.0,2.0,-1.0,4.0,0,0,0,0,-0.84,0.5361817102943688,0.24869088384017443,-0.04648740999954908,0.015383709914403432,0.015147051383672921,-0.28023233603623476,0.3901004452408826,0.2379220878637478,-0.04407871239327753,0.4598929579215586,0.24839142517571813,-0.07051571433209425,0.47432653012910597,0.24934087294478827,-0.1249807232983926,0.3993442387023785,0.23986841771759632,-0.04275289839698243,0.5129707636376146,0.24983175929065712,-0.012102784787292542,0.4585435356762932,0.2482813615657772,0.006712256760912805,0.38095183302474284,0.23582753393983127,-0.011706015021366367,0.036314630281208675,0.0349958779087478,-0.15445597158374394,0.3357561166023349,0.22302394676645418,0.019419676529397745
2.0,0.0,2.0,0.0,7.0,0.0,7.0,0.0,,,,right,0.8445689678192139,161.56449389457703,bh3,161.56449389457703,,139.2991600036621,141.31161499023438,False,3.0,['r'],True,0.3333333333333333,0.3333333333333333,0.0,0.0,2.0,0.5793801642856949,0.0,wait_cost,0.0,2.0,159.21817088127136,,bh3,1,2023-04-04_10h06.34.937,threat_forest,2021.2.3,60.196737498672434,False,46.0,0.3666666666666667,0.4895833333333333,-1.0533333333333337,-0.5204166666666667,0,0,0.0,-0.1689288790241956,0.0,0.0,0.3333333333333333,0.3333333333333333,0.0,0.3333333333333331,0.3333333333333331,3.333333333333333,3.333333333333333,1.0,2.0,-1.0,3.0,0,0,0,0,-0.84,0.5361817102943688,0.24869088384017443,-0.04648740999954908,0.015383709914403432,0.015147051383672921,-0.28023233603623476,0.3901004452408826,0.2379220878637478,-0.04407871239327753,0.4598929579215586,0.24839142517571813,-0.07051571433209425,0.47432653012910597,0.24934087294478827,-0.1249807232983926,0.3993442387023785,0.23986841771759632,-0.04275289839698243,0.5129707636376146,0.24983175929065712,-0.012102784787292542,0.4585435356762932,0.2482813615657772,0.006712256760912805,0.38095183302474284,0.23582753393983127,-0.011706015021366367,0.036314630281208675,0.0349958779087478,-0.15445597158374394,0.3357561166023349,0.22302394676645418,0.019419676529397745
3.0,0.0,3.0,0.0,0.0,0.0,0.0,0.0,166.99829387664795,170.49641799926758,,right,1.3261780738830566,173.6764898300171,bh3,166.99829387664795,170.49641799926758,173.6764898300171,,True,4.0,['p'],False,0.375,0.5,0.25,1.0,1.0,0.9850568223215076,0.0300347076439857,unsucc_cost,1.0,2.0,,,bh3,1,2023-04-04_10h06.34.937,threat_forest,2021.2.3,60.196737498672434,True,50.0,0.35,0.3583333333333333,-1.2625000000000002,-1.157916666666667,1,1,1.0,0.2823011767764893,0.0300347076439857,0.375,0.375,0.5,0.25,-0.25,-0.125,3.875,3.875,0.0,1.0,-1.0,4.0,0,1,1,1,0.0300347076439857,0.5361817102943688,0.24869088384017443,-0.04648740999954908,0.5718859937850478,0.24483240389753608,0.005468921467980725,0.3901004452408826,0.2379220878637478,-0.04407871239327753,0.49214676120295753,0.24993832664039664,-0.017365920642816945,0.47668073353195084,0.24945621181139208,-0.020365261136930712,0.5035694625764546,0.24998725893691529,-0.023978134170963172,0.4413375414171327,0.2465587159530134,-0.028317606720493105,0.4962487561351842,0.2499859281694667,0.014725704414838559,0.5714316182217387,0.24489752391822375,-0.07561318827427743,0.5405403210606041,0.24835648236830316,0.07388640315870884,0.5167207314962774,0.24972041713822937,0.0434696638080129
3.0,0.0,3.0,0.0,1.0,0.0,1.0,0.0,,,,right,1.0539240837097168,178.03831100463867,bh3,166.99829387664795,170.49641799926758,178.03831100463867,,True,2.0,['p'],False,0.375,0.5,0.25,1.0,1.0,0.9850568223215076,0.0197937602996826,unsucc_cost,1.0,0.0,177.0393078327179,,bh3,1,2023-04-04_10h06.34.937,threat_forest,2021.2.3,60.196737498672434,True,50.0,0.35,0.3583333333333333,-1.2625000000000002,-1.157916666666667,1,1,1.0,0.0525204206842372,0.0197937602996826,0.375,0.375,0.5,0.25,-0.25,-0.125,1.875,1.875,0.0,1.0,-1.0,2.0,0,1,1,1,0.0197937602996826,0.5361817102943688,0.24869088384017443,-0.04648740999954908,0.5718859937850478,0.24483240389753608,0.005468921467980725,0.3901004452408826,0.2379220878637478,-0.04407871239327753,0.49214676120295753,0.24993832664039664,-0.017365920642816945,0.47668073353195084,0.24945621181139208,-0.020365261136930712,0.5035694625764546,0.24998725893691529,-0.023978134170963172,0.4413375414171327,0.2465587159530134,-0.028317606720493105,0.4962487561351842,0.2499859281694667,0.014725704414838559,0.5714316182217387,0.24489752391822375,-0.07561318827427743,0.5405403210606041,0.24835648236830316,0.07388640315870884,0.4530047034081897,0.24779144209824774,0.041731912542535776
4.0,0.0,4.0,0.0,0.0,0.0,0.0,0.0,182.2468719482422,185.74677300453183,,left,1.4436039924621582,186.65641593933103,bh3,186.65641593933103,,182.2468719482422,185.74677300453183,True,4.0,['p'],True,0.4444444444444445,0.6666666666666666,0.3333333333333333,1.0,2.0,0.9656336071428248,0.0732923330550286,unsucc_cost,0.0,2.0,,,bh3,1,2023-04-04_10h06.34.937,threat_forest,2021.2.3,60.196737498672434,True,15.0,0.4833333333333333,0.4166666666666666,-0.8977777777777778,-1.080138888888889,1,1,1.0,0.3671427594117648,0.0732923330550286,0.4444444444444445,0.4444444444444445,0.6666666666666666,0.3333333333333333,0.6666666666666665,0.4444444444444444,4.444444444444445,4.444444444444445,1.0,2.0,-1.0,4.0,0,1,1,1,0.0732923330550286,0.5361817102943688,0.24869088384017443,-0.04648740999954908,0.5718859937850478,0.24483240389753608,0.005468921467980725,0.3901004452408826,0.2379220878637478,-0.04407871239327753,0.4598929579215586,0.24839142517571813,-0.07051571433209425,0.47746570351249806,0.2494922054818133,0.012281968516703046,0.6074853935698005,0.2384468901691451,-0.04539043801090664,0.5538539842577304,0.2470997483795681,-0.025637304765497415,0.5589738094522995,0.2465220897986839,-0.0015583688539018148,0.5714316182217387,0.24489752391822375,-0.07561318827427743,0.6899213837090353,0.21392986801004543,0.03704241831521196,0.7587624410871541,0.18304199908261712,-0.016598767848445994
4.0,0.0,4.0,0.0,2.0,0.0,2.0,0.0,,,,left,1.258112907409668,199.3571138381958,bh3,199.3571138381958,,182.2468719482422,185.74677300453183,True,1.0,['p'],True,0.4444444444444445,0.6666666666666666,0.3333333333333333,1.0,2.0,0.9656336071428248,0.1942183425968263,succ_gain,0.0,3.0,196.05883479118347,,bh3,1,2023-04-04_10h06.34.937,threat_forest,2021.2.3,60.196737498672434,True,15.0,0.4833333333333333,0.4166666666666666,-0.8977777777777778,-1.080138888888889,1,1,1.0,0.2296129057688413,0.1942183425968263,1.0,0.4444444444444445,0.6666666666666666,0.3333333333333333,0.6666666666666665,0.4444444444444444,1.4444444444444444,1.4444444444444444,1.0,2.0,-1.0,1.0,1,1,1,1,0.625,0.5361817102943688,0.24869088384017443,-0.04648740999954908,0.5718859937850478,0.24483240389753608,0.005468921467980725,0.9818368566014101,0.01783324362047212,-0.04119827854270211,0.4598929579215586,0.24839142517571813,-0.07051571433209425,0.47746570351249806,0.2494922054818133,0.012281968516703046,0.6074853935698005,0.2384468901691451,-0.04539043801090664,0.5538539842577304,0.2470997483795681,-0.025637304765497415,0.5589738094522995,0.2465220897986839,-0.0015583688539018148,0.5714316182217387,0.24489752391822375,-0.07561318827427743,0.9972615519712243,0.002730948931169231,-0.18898648166689025,0.9846660073717992,0.015098861298279037,-0.16789331244540892
4.0,0.0,4.0,0.0,3.0,0.0,3.0,0.0,,,,left,2.1868109703063965,204.21277594566345,bh3,204.21277594566345,,182.2468719482422,185.74677300453183,True,3.0,['p'],True,0.4444444444444445,0.6666666666666666,0.3333333333333333,1.0,2.0,0.9656336071428248,0.0873158750190519,figh_cost,0.0,0.0,202.66607093811035,,bh3,1,2023-04-04_10h06.34.937,threat_forest,2021.2.3,60.196737498672434,True,15.0,0.4833333333333333,0.4166666666666666,-0.8977777777777778,-1.080138888888889,1,1,1.0,0.7824443046286467,0.0873158750190519,0.4444444444444445,0.4444444444444445,0.6666666666666666,0.3333333333333333,0.6666666666666665,0.4444444444444444,3.4444444444444446,3.4444444444444446,1.0,2.0,1.0,3.0,0,1,1,1,0.0873158750190519,0.2191773868741429,0.17113865995716515,-0.03443333287187809,0.5718859937850478,0.24483240389753608,0.005468921467980725,0.3901004452408826,0.2379220878637478,-0.04407871239327753,0.4598929579215586,0.24839142517571813,-0.07051571433209425,0.47746570351249806,0.2494922054818133,0.012281968516703046,0.6074853935698005,0.2384468901691451,-0.04539043801090664,0.5538539842577304,0.2470997483795681,-0.025637304765497415,0.5589738094522995,0.2465220897986839,-0.0015583688539018148,0.5714316182217387,0.24489752391822375,-0.07561318827427743,0.6899213837090353,0.21392986801004543,0.03704241831521196,0.8169327900162364,0.14955360661252415,-0.04676737821794674
5.0,0.0,5.0,0.0,0.0,0.0,0.0,0.0,210.4792969226837,213.9781630039215,,right,1.1578500270843506,214.85662984848025,bh3,210.4792969226837,213.9781630039215,214.85662984848025,,True,5.0,['r'],False,0.4285714285714285,0.4285714285714285,0.0,0.0,2.0,0.6216097450797565,0.0526055132283747,unsucc_cost,1.0,3.0,,,bh3,1,2023-04-04_10h06.34.937,threat_forest,2021.2.3,60.196737498672434,True,52.0,0.4365079365079364,0.4599206349206348,-0.5626102292768962,-0.730194003527337,1,0,1.0,0.146564860473769,0.0526055132283747,0.4285714285714285,0.4285714285714285,0.4285714285714285,0.0,0.714285714285714,0.714285714285714,5.7142857142857135,5.7142857142857135,0.0,2.0,-1.0,5.0,0,1,0,1,0.0526055132283747,0.5361817102943688,0.24869088384017443,-0.04648740999954908,0.5718859937850478,0.24483240389753608,0.005468921467980725,0.3901004452408826,0.2379220878637478,-0.04407871239327753,0.49214676120295753,0.24993832664039664,-0.017365920642816945,0.47432653012910597,0.24934087294478827,-0.1249807232983926,0.45840059155114665,0.24826948921670547,-0.02716532930452853,0.5596482968120248,0.24644208068742457,-0.028895423714513147,0.5447294844925356,0.24799927321703202,0.005386113088052369,0.5714316182217387,0.24489752391822375,-0.07561318827427743,0.6579334238316891,0.2250570336368,0.048950912058945056,0.6524676641720745,0.22675361138191158,0.02277961083180219
5.0,0.0,5.0,0.0,1.0,0.0,1.0,0.0,,,,left,1.4918129444122314,219.22711181640625,bh3,219.22711181640625,,216.0393807888031,218.04943680763245,True,3.0,['r'],True,0.345679012345679,0.4444444444444444,0.2222222222222222,2.0,2.0,0.9685033186841367,0.0688188688757238,unsucc_cost,0.0,1.0,218.04943680763245,,bh3,1,2023-04-04_10h06.34.937,threat_forest,2021.2.3,60.196737498672434,True,52.0,0.4365079365079364,0.4599206349206348,-0.5626102292768962,-0.730194003527337,0,0,1.0,0.3999921215439346,0.0688188688757238,0.345679012345679,0.345679012345679,0.4444444444444444,0.2222222222222222,0.111111111111111,0.1604938271604937,3.1604938271604937,3.1604938271604937,1.0,2.0,-1.0,3.0,0,1,0,0,0.0688188688757238,0.5361817102943688,0.24869088384017443,-0.04648740999954908,0.5718859937850478,0.24483240389753608,0.005468921467980725,0.3901004452408826,0.2379220878637478,-0.04407871239327753,0.4598929579215586,0.24839142517571813,-0.07051571433209425,0.47641910227764356,0.24944394126260772,-0.031494979763863284,0.46840531832231036,0.24900177608968546,-0.02580662497386277,0.48558432075459224,0.2497921881918935,-0.012298822008301347,0.4696855304221479,0.24908103293421346,0.01047164324509997,0.38095183302474284,0.23582753393983127,-0.011706015021366367,0.47339111247233057,0.24929196710453985,0.07488757582949632,0.7377530434333636,0.19347349033817307,-0.007201374541413702
5.0,0.0,5.0,0.0,2.0,0.0,2.0,0.0,,,,right,0.757896900177002,224.55778193473816,bh3,220.7381749153137,222.73800802230835,224.55778193473816,,True,1.0,['r'],False,0.4285714285714285,0.4285714285714285,0.0,0.0,2.0,0.6216097450797565,0.2143087570706274,unsucc_cost,1.0,0.0,222.73800802230835,,bh3,1,2023-04-04_10h06.34.937,threat_forest,2021.2.3,60.196737498672434,True,52.0,0.4365079365079364,0.4599206349206348,-0.5626102292768962,-0.730194003527337,1,0,1.0,-0.2772079181883484,0.2143087570706274,1.0,0.4285714285714285,0.4285714285714285,0.0,0.714285714285714,0.714285714285714,1.714285714285714,1.714285714285714,0.0,2.0,-1.0,1.0,1,1,0,1,0.625,0.5361817102943688,0.24869088384017443,-0.04648740999954908,0.5718859937850478,0.24483240389753608,0.005468921467980725,0.9818368566014101,0.01783324362047212,-0.04119827854270211,0.49214676120295753,0.24993832664039664,-0.017365920642816945,0.47432653012910597,0.24934087294478827,-0.1249807232983926,0.45840059155114665,0.24826948921670547,-0.02716532930452853,0.5596482968120248,0.24644208068742457,-0.028895423714513147,0.5447294844925356,0.24799927321703202,0.005386113088052369,0.5714316182217387,0.24489752391822375,-0.07561318827427743,0.9972615519712243,0.002730948931169231,-0.18898648166689025,0.9906534421432861,0.009259199712945067,-0.1731540748189691
6.0,0.0,6.0,0.0,0.0,0.0,0.0,0.0,228.298241853714,231.79802584648127,,left,1.2809779644012451,233.82447600364685,bh3,233.82447600364685,,228.298241853714,231.79802584648127,True,4.0,['p'],True,0.48,0.6,0.2,1.0,1.0,0.9455672104350704,0.0573042085319639,succ_gain,0.0,5.0,,,bh3,1,2023-04-04_10h06.34.937,threat_forest,2021.2.3,60.196737498672434,True,4.0,0.4666666666666667,0.4515873015873015,-0.9911111111111112,-0.7768606701940037,1,1,1.0,0.2476238208940789,0.0573042085319639,0.48,0.48,0.6,0.2,0.1999999999999998,0.2399999999999997,4.24,4.24,1.0,1.0,-1.0,4.0,0,1,1,1,0.0573042085319639,0.5361817102943688,0.24869088384017443,-0.04648740999954908,0.5718859937850478,0.24483240389753608,0.005468921467980725,0.3901004452408826,0.2379220878637478,-0.04407871239327753,0.4598929579215586,0.24839142517571813,-0.07051571433209425,0.47620980658501355,0.24943402669727754,-0.04048775786796455,0.5665438551298161,0.24557191534446207,-0.032170478840519434,0.49653771976868133,0.24998801261559983,-0.011328697927128761,0.5904979385307806,0.24181012312167902,-0.02371009835012261,0.5714316182217387,0.24489752391822375,-0.07561318827427743,0.7551028177578897,0.18492255237198496,0.005998264899560263,0.6785477851649416,0.2181206884126938,0.015002489560877186
6.0,0.0,6.0,0.0,1.0,0.0,1.0,0.0,,,,left,1.502424955368042,240.50481796264648,bh3,240.50481796264648,,228.298241853714,231.79802584648127,True,5.0,['p'],True,0.48,0.6,0.2,1.0,1.0,0.9455672104350704,0.0746559681311909,unsucc_cost,0.0,3.0,237.1540169715881,,bh3,1,2023-04-04_10h06.34.937,threat_forest,2021.2.3,60.196737498672434,True,4.0,0.4666666666666667,0.4515873015873015,-0.9911111111111112,-0.7768606701940037,1,1,1.0,0.4070804396694025,0.0746559681311909,0.48,0.48,0.6,0.2,0.1999999999999998,0.2399999999999997,5.24,5.24,1.0,1.0,1.0,5.0,0,1,1,1,0.0746559681311909,0.2191773868741429,0.17113865995716515,-0.03443333287187809,0.5718859937850478,0.24483240389753608,0.005468921467980725,0.3901004452408826,0.2379220878637478,-0.04407871239327753,0.4598929579215586,0.24839142517571813,-0.07051571433209425,0.47620980658501355,0.24943402669727754,-0.04048775786796455,0.5665438551298161,0.24557191534446207,-0.032170478840519434,0.49653771976868133,0.24998801261559983,-0.011328697927128761,0.5904979385307806,0.24181012312167902,-0.02371009835012261,0.5714316182217387,0.24489752391822375,-0.07561318827427743,0.7551028177578897,0.18492255237198496,0.005998264899560263,0.7649335033311736,0.179810238812671,-0.019510156219169017
6.0,0.0,6.0,0.0,2.0,0.0,2.0,0.0,,,,left,1.3326351642608645,245.42656993865967,bh3,242.0337109565735,244.0424678325653,245.42656993865967,,False,3.0,['p'],False,0.2962962962962963,0.3333333333333333,0.1111111111111111,1.0,1.0,0.8325252476189534,0.0084111177933203,wait_cost,1.0,2.0,244.0424678325653,,bh3,1,2023-04-04_10h06.34.937,threat_forest,2021.2.3,60.196737498672434,False,4.0,0.4666666666666667,0.4515873015873015,-0.9911111111111112,-0.7768606701940037,0,0,0.0,0.2871583085070385,0.0084111177933203,0.2962962962962963,0.2962962962962963,0.3333333333333333,0.1111111111111111,-0.3333333333333335,-0.2222222222222223,2.7777777777777777,2.7777777777777777,0.0,1.0,-1.0,3.0,0,1,0,0,0.0084111177933203,0.5361817102943688,0.24869088384017443,-0.04648740999954908,0.5718859937850478,0.24483240389753608,0.005468921467980725,0.3901004452408826,0.2379220878637478,-0.04407871239327753,0.49214676120295753,0.24993832664039664,-0.017365920642816945,0.47537270810170085,0.24939349649375597,-0.07724974537276807,0.3993442387023785,0.23986841771759632,-0.04275289839698243,0.43123221768218956,0.2452709921150903,-0.034697055623877704,0.4254085286116061,0.24443611239611437,-0.011364891336849592,0.38095183302474284,0.23582753393983127,-0.011706015021366367,0.3636214595070023,0.2314008936929998,0.05574022573723961,0.3840338773279847,0.2365518583924191,0.03160653486609599
6.0,0.0,6.0,0.0,3.0,0.0,3.0,0.0,,,,left,1.4534549713134766,252.1700599193573,bh3,242.0337109565735,244.0424678325653,252.1700599193573,,False,2.0,['p'],False,0.2962962962962963,0.3333333333333333,0.1111111111111111,1.0,1.0,0.8325252476189534,-0.0250792273535538,wait_cost,1.0,1.0,248.7833127975464,,bh3,1,2023-04-04_10h06.34.937,threat_forest,2021.2.3,60.196737498672434,False,4.0,0.4666666666666667,0.4515873015873015,-0.9911111111111112,-0.7768606701940037,0,0,0.0,0.3739434610484271,-0.0250792273535538,0.2962962962962963,0.2962962962962963,0.3333333333333333,0.1111111111111111,-0.3333333333333335,-0.2222222222222223,1.7777777777777777,1.7777777777777777,0.0,1.0,-1.0,2.0,0,1,0,0,-0.0250792273535538,0.5361817102943688,0.24869088384017443,-0.04648740999954908,0.5718859937850478,0.24483240389753608,0.005468921467980725,0.3901004452408826,0.2379220878637478,-0.04407871239327753,0.49214676120295753,0.24993832664039664,-0.017365920642816945,0.47537270810170085,0.24939349649375597,-0.07724974537276807,0.3993442387023785,0.23986841771759632,-0.04275289839698243,0.43123221768218956,0.2452709921150903,-0.034697055623877704,0.4254085286116061,0.24443611239611437,-0.011364891336849592,0.38095183302474284,0.23582753393983127,-0.011706015021366367,0.3636214595070023,0.2314008936929998,0.05574022573723961,0.21285031468823873,0.16754505822535648,-0.030559460976950614
6.0,0.0,6.0,0.0,4.0,0.0,4.0,0.0,,,,right,1.850313901901245,259.1923909187317,bh3,242.0337109565735,244.0424678325653,259.1923909187317,,True,1.0,['p'],False,0.2962962962962963,0.3333333333333333,0.1111111111111111,1.0,1.0,0.8325252476189534,0.1286145404663923,unsucc_cost,1.0,0.0,255.67444396018985,,bh3,1,2023-04-04_10h06.34.937,threat_forest,2021.2.3,60.196737498672434,True,4.0,0.4666666666666667,0.4515873015873015,-0.9911111111111112,-0.7768606701940037,0,0,1.0,0.6153553014001454,0.1286145404663923,1.0,0.2962962962962963,0.3333333333333333,0.1111111111111111,-0.3333333333333335,-0.2222222222222223,0.7777777777777777,1.0,0.0,1.0,-1.0,1.0,1,1,0,0,0.625,0.5361817102943688,0.24869088384017443,-0.04648740999954908,0.5718859937850478,0.24483240389753608,0.005468921467980725,0.9818368566014101,0.01783324362047212,-0.04119827854270211,0.49214676120295753,0.24993832664039664,-0.017365920642816945,0.47537270810170085,0.24939349649375597,-0.07724974537276807,0.3993442387023785,0.23986841771759632,-0.04275289839698243,0.43123221768218956,0.2452709921150903,-0.034697055623877704,0.4254085286116061,0.24443611239611437,-0.011364891336849592,0.38095183302474284,0.23582753393983127,-0.011706015021366367,0.9972615519712243,0.002730948931169231,-0.18898648166689025,0.9259334777240757,0.06858067255387423,-0.11971327731633684
7.0,0.0,7.0,0.0,0.0,0.0,0.0,0.0,264.4541988372803,267.95429491996765,,left,2.0012149810791016,268.8513398170471,bh3,264.4541988372803,267.95429491996765,268.8513398170471,,False,5.0,['r'],False,0.4081632653061224,0.5714285714285714,0.2857142857142857,2.0,1.0,0.9885754083994552,-0.0004231906775603,wait_cost,1.0,4.0,,,bh3,1,2023-04-04_10h06.34.937,threat_forest,2021.2.3,60.196737498672434,False,44.0,0.5357142857142857,0.5011904761904762,-0.7806122448979592,-0.8858616780045352,0,0,0.0,0.6937544866518146,-0.0004231906775603,0.4081632653061224,0.4081632653061224,0.5714285714285714,0.2857142857142857,-0.1428571428571428,-0.0612244897959184,4.938775510204081,4.938775510204081,0.0,1.0,-1.0,5.0,0,1,0,0,-0.0004231906775603,0.5361817102943688,0.24869088384017443,-0.04648740999954908,0.5718859937850478,0.24483240389753608,0.005468921467980725,0.3901004452408826,0.2379220878637478,-0.04407871239327753,0.49214676120295753,0.24993832664039664,-0.017365920642816945,0.47701713535880635,0.24947178793288458,-0.006237298927800339,0.5486801455800242,0.24763024342630766,-0.028351402762651468,0.45440069269027583,0.2479207031728733,-0.021570253273831552,0.5263105067190964,0.2493077572361844,0.01153751143809667,0.38095183302474284,0.23582753393983127,-0.011706015021366367,0.6146331077641582,0.23685925060433088,0.061581857947095336,0.33340599948307575,0.22224643899176705,0.01871924490567195
7.0,0.0,7.0,0.0,1.0,0.0,1.0,0.0,,,,left,1.657684087753296,276.5109829902649,bh3,264.4541988372803,267.95429491996765,276.5109829902649,,False,4.0,['r'],False,0.4081632653061224,0.5714285714285714,0.2857142857142857,2.0,1.0,0.9885754083994552,0.026984270692714,wait_cost,1.0,3.0,272.8931908607483,,bh3,1,2023-04-04_10h06.34.937,threat_forest,2021.2.3,60.196737498672434,False,44.0,0.5357142857142857,0.5011904761904762,-0.7806122448979592,-0.8858616780045352,0,0,0.0,0.5054215004120208,0.026984270692714,0.4081632653061224,0.4081632653061224,0.5714285714285714,0.2857142857142857,-0.1428571428571428,-0.0612244897959184,3.938775510204081,3.938775510204081,0.0,1.0,-1.0,4.0,0,1,0,0,0.026984270692714,0.5361817102943688,0.24869088384017443,-0.04648740999954908,0.5718859937850478,0.24483240389753608,0.005468921467980725,0.3901004452408826,0.2379220878637478,-0.04407871239327753,0.49214676120295753,0.24993832664039664,-0.017365920642816945,0.47701713535880635,0.24947178793288458,-0.006237298927800339,0.5486801455800242,0.24763024342630766,-0.028351402762651468,0.45440069269027583,0.2479207031728733,-0.021570253273831552,0.5263105067190964,0.2493077572361844,0.01153751143809667,0.38095183302474284,0.23582753393983127,-0.011706015021366367,0.6146331077641582,0.23685925060433088,0.061581857947095336,0.49770480410289897,0.24999473207579398,0.04371678526889852
7.0,0.0,7.0,0.0,2.0,0.0,2.0,0.0,,,,left,0.7550230026245117,282.32202982902527,bh3,282.32202982902527,,278.2046208381653,280.21822786331177,True,3.0,['r'],True,0.5,0.5,0.0,0.0,1.0,0.6309297535714574,0.1200795179904086,unsucc_cost,0.0,1.0,280.21822786331177,,bh3,1,2023-04-04_10h06.34.937,threat_forest,2021.2.3,60.196737498672434,True,44.0,0.5357142857142857,0.5011904761904762,-0.7806122448979592,-0.8858616780045352,1,0,1.0,-0.2810070631448901,0.1200795179904086,0.5,0.5,0.5,0.0,0.5,0.5,3.5,3.5,1.0,1.0,-1.0,3.0,0,1,0,1,0.1200795179904086,0.5361817102943688,0.24869088384017443,-0.04648740999954908,0.5718859937850478,0.24483240389753608,0.005468921467980725,0.3901004452408826,0.2379220878637478,-0.04407871239327753,0.4598929579215586,0.24839142517571813,-0.07051571433209425,0.47432653012910597,0.24934087294478827,-0.1249807232983926,0.5035694625764546,0.24998725893691529,-0.023978134170963172,0.5334685659213637,0.24887985509516733,-0.016818566228318454,0.607925685716022,0.23835204636272644,-0.03996708533505111,0.5714316182217387,0.24489752391822375,-0.07561318827427743,0.7874359672007529,0.16738056475936772,-0.012775487262015606,0.9099434791653386,0.08194634388981772,-0.10767257601301254
7.0,0.0,7.0,0.0,3.0,0.0,3.0,0.0,,,,right,2.2929818630218506,287.0621910095215,bh3,283.107234954834,285.1070258617401,287.0621910095215,,True,1.0,['r'],False,0.4081632653061224,0.5714285714285714,0.2857142857142857,2.0,1.0,0.9885754083994552,0.1180805612370661,figh_cost,1.0,0.0,285.1070258617401,,bh3,1,2023-04-04_10h06.34.937,threat_forest,2021.2.3,60.196737498672434,True,44.0,0.5357142857142857,0.5011904761904762,-0.7806122448979592,-0.8858616780045352,0,0,1.0,0.829853094128764,0.1180805612370661,1.0,0.4081632653061224,0.5714285714285714,0.2857142857142857,-0.1428571428571428,-0.0612244897959184,0.9387755102040816,1.0,0.0,1.0,-1.0,1.0,1,1,0,0,0.625,0.5361817102943688,0.24869088384017443,-0.04648740999954908,0.5718859937850478,0.24483240389753608,0.005468921467980725,0.9818368566014101,0.01783324362047212,-0.04119827854270211,0.49214676120295753,0.24993832664039664,-0.017365920642816945,0.47701713535880635,0.24947178793288458,-0.006237298927800339,0.5486801455800242,0.24763024342630766,-0.028351402762651468,0.45440069269027583,0.2479207031728733,-0.021570253273831552,0.5263105067190964,0.2493077572361844,0.01153751143809667,0.38095183302474284,0.23582753393983127,-0.011706015021366367,0.9972615519712243,0.002730948931169231,-0.18898648166689025,0.9057731681977947,0.0853481359707242,-0.10460801147953806
8.0,0.0,8.0,0.0,0.0,0.0,0.0,0.0,293.5737788677216,297.0864658355713,,right,1.702570915222168,300.06551790237427,bh3,293.5737788677216,297.0864658355713,300.06551790237427,,True,5.0,['p'],False,0.375,0.5,0.25,1.0,2.0,0.9850568223215076,0.0153323500884942,unsucc_cost,1.0,3.0,,,bh3,1,2023-04-04_10h06.34.937,threat_forest,2021.2.3,60.196737498672434,True,31.0,0.4166666666666666,0.4761904761904761,-0.9675925925925928,-0.8741024187452759,1,0,1.0,0.5321394117553468,0.0153323500884942,0.375,0.375,0.5,0.25,0.25,0.25,5.25,5.25,0.0,2.0,-1.0,5.0,0,1,0,1,0.0153323500884942,0.5361817102943688,0.24869088384017443,-0.04648740999954908,0.5718859937850478,0.24483240389753608,0.005468921467980725,0.3901004452408826,0.2379220878637478,-0.04407871239327753,0.49214676120295753,0.24993832664039664,-0.017365920642816945,0.47668073353195084,0.24945621181139208,-0.020365261136930712,0.5035694625764546,0.24998725893691529,-0.023978134170963172,0.5027011419003743,0.249992703832434,-0.011305457402097874,0.4962487561351842,0.2499859281694667,0.014725704414838559,0.5714316182217387,0.24489752391822375,-0.07561318827427743,0.5405403210606041,0.24835648236830316,0.07388640315870884,0.4256012175280693,0.24446482116669432,0.03873506726784284
8.0,0.0,8.0,0.0,1.0,0.0,1.0,0.0,,,,left,1.6935269832611084,306.84298396110535,bh3,293.5737788677216,297.0864658355713,306.84298396110535,,False,3.0,['p'],False,0.375,0.5,0.25,1.0,2.0,0.9850568223215076,0.0791642167699067,wait_cost,1.0,2.0,303.8048849105835,,bh3,1,2023-04-04_10h06.34.937,threat_forest,2021.2.3,60.196737498672434,False,31.0,0.4166666666666666,0.4761904761904761,-0.9675925925925928,-0.8741024187452759,1,0,0.0,0.5268133265772204,0.0791642167699067,0.375,0.375,0.5,0.25,0.25,0.25,3.25,3.25,0.0,2.0,-1.0,3.0,0,1,0,1,0.0791642167699067,0.5361817102943688,0.24869088384017443,-0.04648740999954908,0.5718859937850478,0.24483240389753608,0.005468921467980725,0.3901004452408826,0.2379220878637478,-0.04407871239327753,0.49214676120295753,0.24993832664039664,-0.017365920642816945,0.47668073353195084,0.24945621181139208,-0.020365261136930712,0.5035694625764546,0.24998725893691529,-0.023978134170963172,0.5027011419003743,0.249992703832434,-0.011305457402097874,0.4962487561351842,0.2499859281694667,0.014725704414838559,0.5714316182217387,0.24489752391822375,-0.07561318827427743,0.5405403210606041,0.24835648236830316,0.07388640315870884,0.7845484359519863,0.1690321875972784,-0.02921975419255901
8.0,0.0,8.0,0.0,2.0,0.0,2.0,0.0,,,,left,1.982442855834961,314.1510729789734,bh3,293.5737788677216,297.0864658355713,314.1510729789734,,False,2.0,['p'],False,0.375,0.5,0.25,1.0,2.0,0.9850568223215076,0.044282183751892,wait_cost,1.0,1.0,310.5684938430786,,bh3,1,2023-04-04_10h06.34.937,threat_forest,2021.2.3,60.196737498672434,False,31.0,0.4166666666666666,0.4761904761904761,-0.9675925925925928,-0.8741024187452759,1,0,0.0,0.6843298498163364,0.044282183751892,0.375,0.375,0.5,0.25,0.25,0.25,2.25,2.25,0.0,2.0,-1.0,2.0,0,1,0,1,0.044282183751892,0.5361817102943688,0.24869088384017443,-0.04648740999954908,0.5718859937850478,0.24483240389753608,0.005468921467980725,0.3901004452408826,0.2379220878637478,-0.04407871239327753,0.49214676120295753,0.24993832664039664,-0.017365920642816945,0.47668073353195084,0.24945621181139208,-0.020365261136930712,0.5035694625764546,0.24998725893691529,-0.023978134170963172,0.5027011419003743,0.249992703832434,-0.011305457402097874,0.4962487561351842,0.2499859281694667,0.014725704414838559,0.5714316182217387,0.24489752391822375,-0.07561318827427743,0.5405403210606041,0.24835648236830316,0.07388640315870884,0.6040312143620149,0.23917750643836447,0.03397189632488526
8.0,0.0,8.0,0.0,3.0,0.0,3.0,0.0,,,,left,1.058478832244873,319.8681449890137,bh3,319.8681449890137,,316.1603829860687,318.1599907875061,True,1.0,['p'],True,0.2592592592592592,0.3333333333333333,0.2222222222222222,2.0,2.0,0.9327883776363324,0.118950799865366,figh_cost,0.0,0.0,318.1599907875061,,bh3,1,2023-04-04_10h06.34.937,threat_forest,2021.2.3,60.196737498672434,True,31.0,0.4166666666666666,0.4761904761904761,-0.9675925925925928,-0.8741024187452759,0,0,1.0,0.0568328135136284,0.118950799865366,1.0,0.2592592592592592,0.3333333333333333,0.2222222222222222,-0.3333333333333335,-0.1851851851851855,0.8148148148148144,1.0,1.0,2.0,-1.0,1.0,1,1,0,0,0.625,0.5361817102943688,0.24869088384017443,-0.04648740999954908,0.5718859937850478,0.24483240389753608,0.005468921467980725,0.9818368566014101,0.01783324362047212,-0.04119827854270211,0.4598929579215586,0.24839142517571813,-0.07051571433209425,0.47641910227764356,0.24944394126260772,-0.031494979763863284,0.3993442387023785,0.23986841771759632,-0.04275289839698243,0.43123221768218956,0.2452709921150903,-0.034697055623877704,0.3929303212083388,0.23853608388345046,-0.03910189471387615,0.38095183302474284,0.23582753393983127,-0.011706015021366367,0.9972615519712243,0.002730948931169231,-0.18898648166689025,0.9076095593725813,0.08385444710809022,-0.1059536274970973
9.0,0.0,9.0,0.0,0.0,0.0,0.0,0.0,325.8850169181824,329.3888759613037,,left,1.2872278690338137,331.4352309703827,bh3,325.8850169181824,329.3888759613037,331.4352309703827,,False,4.0,['r'],False,0.3333333333333333,0.5,0.3333333333333333,2.0,1.0,1.0,0.0143529277549154,wait_cost,1.0,3.0,,,bh3,1,2023-04-04_10h06.34.937,threat_forest,2021.2.3,60.196737498672434,False,7.0,0.45,0.4333333333333333,-1.0666666666666669,-1.0171296296296295,0,0,0.0,0.2524909673580339,0.0143529277549154,0.3333333333333333,0.3333333333333333,0.5,0.3333333333333333,-0.5,-0.3333333333333335,3.6666666666666665,3.6666666666666665,0.0,1.0,-1.0,4.0,0,1,0,0,0.0143529277549154,0.5361817102943688,0.24869088384017443,-0.04648740999954908,0.5718859937850478,0.24483240389753608,0.005468921467980725,0.3901004452408826,0.2379220878637478,-0.04407871239327753,0.49214676120295753,0.24993832664039664,-0.017365920642816945,0.47746570351249806,0.2494922054818133,0.012281968516703046,0.5035694625764546,0.24998725893691529,-0.023978134170963172,0.41120031499789383,0.24211461594352673,-0.05033390252641379,0.4585435356762932,0.2482813615657772,0.006712256760912805,0.38095183302474284,0.23582753393983127,-0.011706015021366367,0.44526468186382684,0.24700404494853195,0.07243900019083974,0.41964000769587717,0.24354227163688136,0.03790397221494207
9.0,0.0,9.0,0.0,1.0,0.0,1.0,0.0,,,,left,0.8024311065673828,338.13479685783386,bh3,338.13479685783386,,332.74559688568115,334.7449688911438,True,3.0,['r'],True,0.4,0.4,0.0,0.0,1.0,0.6126016192893442,0.0581987366255143,unsucc_cost,0.0,1.0,334.7449688911438,,bh3,1,2023-04-04_10h06.34.937,threat_forest,2021.2.3,60.196737498672434,True,7.0,0.45,0.4333333333333333,-1.0666666666666669,-1.0171296296296295,1,0,1.0,-0.2201092761773254,0.0581987366255143,0.4,0.4,0.4,0.0,0.2,0.2,3.2,3.2,1.0,1.0,-1.0,3.0,0,1,0,1,0.0581987366255143,0.5361817102943688,0.24869088384017443,-0.04648740999954908,0.5718859937850478,0.24483240389753608,0.005468921467980725,0.3901004452408826,0.2379220878637478,-0.04407871239327753,0.4598929579215586,0.24839142517571813,-0.07051571433209425,0.47432653012910597,0.24934087294478827,-0.1249807232983926,0.4404816147584438,0.24645756181823775,-0.030527227071631358,0.49653771976868133,0.24998801261559983,-0.011328697927128761,0.5189199729727602,0.24964203462271006,0.013109004351906206,0.5714316182217387,0.24489752391822375,-0.07561318827427743,0.5967453423723416,0.2406403387292584,0.06562844679016408,0.6833951354039868,0.21636622431015332,0.013421949558424406
9.0,0.0,9.0,0.0,2.0,0.0,2.0,0.0,,,,right,1.2624759674072266,341.6220638751984,bh3,338.97289991378784,340.9855868816376,341.6220638751984,,True,1.0,['r'],False,0.3333333333333333,0.5,0.3333333333333333,2.0,1.0,1.0,0.0530240740740739,figh_cost,1.0,0.0,340.9855868816376,,bh3,1,2023-04-04_10h06.34.937,threat_forest,2021.2.3,60.196737498672434,True,7.0,0.45,0.4333333333333333,-1.0666666666666669,-1.0171296296296295,0,0,1.0,0.233074846269148,0.0530240740740739,1.0,0.3333333333333333,0.5,0.3333333333333333,-0.5,-0.3333333333333335,0.6666666666666665,1.0,0.0,1.0,-1.0,1.0,1,1,0,0,0.625,0.5361817102943688,0.24869088384017443,-0.04648740999954908,0.5718859937850478,0.24483240389753608,0.005468921467980725,0.9818368566014101,0.01783324362047212,-0.04119827854270211,0.49214676120295753,0.24993832664039664,-0.017365920642816945,0.47746570351249806,0.2494922054818133,0.012281968516703046,0.5035694625764546,0.24998725893691529,-0.023978134170963172,0.41120031499789383,0.24211461594352673,-0.05033390252641379,0.4585435356762932,0.2482813615657772,0.006712256760912805,0.38095183302474284,0.23582753393983127,-0.011706015021366367,0.9972615519712243,0.002730948931169231,-0.18898648166689025,0.6548312770489345,0.22602727564739614,0.022125278445092045
10.0,0.0,10.0,0.0,0.0,0.0,0.0,0.0,347.98022198677063,351.47973585128784,,left,1.3589069843292236,353.9745788574219,bh3,353.9745788574219,,347.98022198677063,351.47973585128784,True,5.0,['p'],True,0.4444444444444445,0.6666666666666666,0.3333333333333333,1.0,2.0,0.9656336071428248,0.0381387997233528,unsucc_cost,0.0,3.0,,,bh3,1,2023-04-04_10h06.34.937,threat_forest,2021.2.3,60.196737498672434,True,41.0,0.4333333333333333,0.4416666666666666,-0.9677777777777778,-1.0172222222222222,1,1,1.0,0.3066806886244052,0.0381387997233528,0.4444444444444445,0.4444444444444445,0.6666666666666666,0.3333333333333333,0.6666666666666665,0.4444444444444444,5.444444444444445,5.444444444444445,1.0,2.0,-1.0,5.0,0,1,1,1,0.0381387997233528,0.5361817102943688,0.24869088384017443,-0.04648740999954908,0.5718859937850478,0.24483240389753608,0.005468921467980725,0.3901004452408826,0.2379220878637478,-0.04407871239327753,0.4598929579215586,0.24839142517571813,-0.07051571433209425,0.47746570351249806,0.2494922054818133,0.012281968516703046,0.6074853935698005,0.2384468901691451,-0.04539043801090664,0.5538539842577304,0.2470997483795681,-0.025637304765497415,0.5589738094522995,0.2465220897986839,-0.0015583688539018148,0.5714316182217387,0.24489752391822375,-0.07561318827427743,0.6899213837090353,0.21392986801004543,0.03704241831521196,0.5668603275027414,0.24552969660622614,0.039694379132572594
10.0,0.0,10.0,0.0,1.0,0.0,1.0,0.0,,,,left,1.0601599216461182,360.37979197502136,bh3,355.3573958873749,357.3702349662781,360.37979197502136,,False,3.0,['p'],False,0.18,0.2,0.1,1.0,2.0,0.7058405977926203,0.0098185922261646,wait_cost,1.0,2.0,357.3702349662781,,bh3,1,2023-04-04_10h06.34.937,threat_forest,2021.2.3,60.196737498672434,False,41.0,0.4333333333333333,0.4416666666666666,-0.9677777777777778,-1.0172222222222222,0,0,0.0,0.0584197662217906,0.0098185922261646,0.18,0.18,0.2,0.1,-0.5000000000000002,-0.3800000000000001,2.62,2.62,0.0,2.0,-1.0,3.0,0,1,0,0,0.0098185922261646,0.5361817102943688,0.24869088384017443,-0.04648740999954908,0.5718859937850478,0.24483240389753608,0.005468921467980725,0.3901004452408826,0.2379220878637478,-0.04407871239327753,0.49214676120295753,0.24993832664039664,-0.017365920642816945,0.4752680804244721,0.24938833215410963,-0.08193394069016335,0.3216543977053215,0.21819284614214837,-0.08297032418446115,0.4112003149978938,0.24211461594352665,-0.05033390252641423,0.3268137930654891,0.2200065377276368,-0.12621233548469846,0.38095183302474284,0.23582753393983127,-0.011706015021366367,0.16426449162732967,0.13728166841774464,-0.04498787007365107,0.39237168888967827,0.23841614664753982,0.03328601189788846
10.0,0.0,10.0,0.0,2.0,0.0,2.0,0.0,,,,left,0.8988511562347412,365.3616259098053,bh3,365.3616259098053,,361.4604239463806,363.4598867893219,True,2.0,['p'],True,0.4444444444444445,0.6666666666666666,0.3333333333333333,1.0,2.0,0.9656336071428248,0.0883836365594675,succ_gain,0.0,4.0,363.4598867893219,,bh3,1,2023-04-04_10h06.34.937,threat_forest,2021.2.3,60.196737498672434,True,41.0,0.4333333333333333,0.4416666666666666,-0.9677777777777778,-1.0172222222222222,1,1,1.0,-0.1066378241416032,0.0883836365594675,0.4444444444444445,0.4444444444444445,0.6666666666666666,0.3333333333333333,0.6666666666666665,0.4444444444444444,2.4444444444444446,2.4444444444444446,1.0,2.0,-1.0,2.0,0,1,1,1,0.0883836365594675,0.5361817102943688,0.24869088384017443,-0.04648740999954908,0.5718859937850478,0.24483240389753608,0.005468921467980725,0.3901004452408826,0.2379220878637478,-0.04407871239327753,0.4598929579215586,0.24839142517571813,-0.07051571433209425,0.47746570351249806,0.2494922054818133,0.012281968516703046,0.6074853935698005,0.2384468901691451,-0.04539043801090664,0.5538539842577304,0.2470997483795681,-0.025637304765497415,0.5589738094522995,0.2465220897986839,-0.0015583688539018148,0.5714316182217387,0.24489752391822375,-0.07561318827427743,0.6899213837090353,0.21392986801004543,0.03704241831521196,0.8208823926974629,0.14703449005675118,-0.0490367689005346
10.0,0.0,10.0,0.0,3.0,0.0,3.0,0.0,,,,left,0.9554460048675536,371.43880581855774,bh3,366.28395795822144,368.2989218235016,371.43880581855774,,False,4.0,['p'],False,0.18,0.2,0.1,1.0,2.0,0.7058405977926203,0.00742721042524,wait_cost,1.0,3.0,368.2989218235016,,bh3,1,2023-04-04_10h06.34.937,threat_forest,2021.2.3,60.196737498672434,False,41.0,0.4333333333333333,0.4416666666666666,-0.9677777777777778,-1.0172222222222222,0,0,0.0,-0.0455770267179594,0.00742721042524,0.18,0.18,0.2,0.1,-0.5000000000000002,-0.3800000000000001,3.62,3.62,0.0,2.0,1.0,4.0,0,1,0,0,0.00742721042524,0.2191773868741429,0.17113865995716515,-0.03443333287187809,0.5718859937850478,0.24483240389753608,0.005468921467980725,0.3901004452408826,0.2379220878637478,-0.04407871239327753,0.49214676120295753,0.24993832664039664,-0.017365920642816945,0.4752680804244721,0.24938833215410963,-0.08193394069016335,0.3216543977053215,0.21819284614214837,-0.08297032418446115,0.4112003149978938,0.24211461594352665,-0.05033390252641423,0.3268137930654891,0.2200065377276368,-0.12621233548469846,0.38095183302474284,0.23582753393983127,-0.011706015021366367,0.16426449162732967,0.13728166841774464,-0.04498787007365107,0.378245153726247,0.2351757574088548,0.030366849968132797
10.0,0.0,10.0,0.0,4.0,0.0,4.0,0.0,,,,left,1.8528070449829104,377.9259510040283,bh3,377.9259510040283,,372.4215598106384,374.4221999645233,True,3.0,['p'],True,0.4444444444444445,0.6666666666666666,0.3333333333333333,1.0,2.0,0.9656336071428248,0.1354938271604938,figh_cost,0.0,0.0,374.4221999645233,,bh3,1,2023-04-04_10h06.34.937,threat_forest,2021.2.3,60.196737498672434,True,41.0,0.4333333333333333,0.4416666666666666,-0.9677777777777778,-1.0172222222222222,1,1,1.0,0.6167018107332817,0.1354938271604938,0.4444444444444445,0.4444444444444445,0.6666666666666666,0.3333333333333333,0.6666666666666665,0.4444444444444444,3.4444444444444446,3.4444444444444446,1.0,2.0,-1.0,3.0,0,1,1,1,0.1354938271604938,0.5361817102943688,0.24869088384017443,-0.04648740999954908,0.5718859937850478,0.24483240389753608,0.005468921467980725,0.3901004452408826,0.2379220878637478,-0.04407871239327753,0.4598929579215586,0.24839142517571813,-0.07051571433209425,0.47746570351249806,0.2494922054818133,0.012281968516703046,0.6074853935698005,0.2384468901691451,-0.04539043801090664,0.5538539842577304,0.2470997483795681,-0.025637304765497415,0.5589738094522995,0.2465220897986839,-0.0015583688539018148,0.5714316182217387,0.24489752391822375,-0.07561318827427743,0.6899213837090353,0.21392986801004543,0.03704241831521196,0.9368749761905977,0.059140255178464766,-0.12821784419808668
11.0,0.0,11.0,0.0,0.0,0.0,0.0,0.0,384.4529979228973,387.9492359161377,,left,1.1464719772338867,391.1835689544678,bh3,391.1835689544678,,384.4529979228973,387.9492359161377,True,4.0,['p'],True,0.4444444444444445,0.6666666666666666,0.3333333333333333,1.0,2.0,0.9656336071428248,0.064046602155505,figh_cost,0.0,1.0,,,bh3,1,2023-04-04_10h06.34.937,threat_forest,2021.2.3,60.196737498672434,True,1.0,0.4833333333333333,0.4583333333333333,-0.7877777777777778,-0.8777777777777778,1,0,1.0,0.1366893810056736,0.064046602155505,0.4444444444444445,0.4444444444444445,0.6666666666666666,0.3333333333333333,0.6666666666666665,0.4444444444444444,4.444444444444445,4.444444444444445,1.0,2.0,-1.0,4.0,0,1,0,1,0.064046602155505,0.5361817102943688,0.24869088384017443,-0.04648740999954908,0.5718859937850478,0.24483240389753608,0.005468921467980725,0.3901004452408826,0.2379220878637478,-0.04407871239327753,0.4598929579215586,0.24839142517571813,-0.07051571433209425,0.47746570351249806,0.2494922054818133,0.012281968516703046,0.6074853935698005,0.2384468901691451,-0.04539043801090664,0.5538539842577304,0.2470997483795681,-0.025637304765497415,0.5589738094522995,0.2465220897986839,-0.0015583688539018148,0.5714316182217387,0.24489752391822375,-0.07561318827427743,0.6899213837090353,0.21392986801004543,0.03704241831521196,0.7140804653558995,0.2041695543530015,0.0024343638129660505
11.0,0.0,11.0,0.0,1.0,0.0,1.0,0.0,,,,right,1.142413854598999,396.45132994651794,bh3,392.3656978607178,394.37772583961487,396.45132994651794,,True,1.0,['p'],False,0.27,0.3,0.1,1.0,2.0,0.7963326591781347,0.0847047359907922,unsucc_cost,1.0,0.0,394.37772583961487,,bh3,1,2023-04-04_10h06.34.937,threat_forest,2021.2.3,60.196737498672434,True,1.0,0.4833333333333333,0.4583333333333333,-0.7877777777777778,-0.8777777777777778,0,0,1.0,0.133143440154818,0.0847047359907922,1.0,0.27,0.3,0.1,-0.1,-0.02,0.98,1.0,0.0,2.0,-1.0,1.0,1,1,0,0,0.625,0.5361817102943688,0.24869088384017443,-0.04648740999954908,0.5718859937850478,0.24483240389753608,0.005468921467980725,0.9818368566014101,0.01783324362047212,-0.04119827854270211,0.49214676120295753,0.24993832664039664,-0.017365920642816945,0.4752680804244721,0.24938833215410963,-0.08193394069016335,0.3792592645524702,0.2354216748035896,-0.05100350219386829,0.45964461410315166,0.2483714428291165,-0.019337266261359787,0.4022654124457591,0.24044795039560238,-0.030113896132147433,0.38095183302474284,0.23582753393983127,-0.011706015021366367,0.9972615519712243,0.002730948931169231,-0.18898648166689025,0.8069904866524091,0.15575684110491694,-0.041179084763766305
12.0,0.0,12.0,0.0,0.0,0.0,0.0,0.0,401.522567987442,405.02239179611206,,right,0.9511408805847168,407.92206597328186,bh3,407.92206597328186,,401.522567987442,405.02239179611206,False,4.0,['p'],True,0.18,0.2,0.1,1.0,1.0,0.7058405977926203,-0.0012447101888581,wait_cost,0.0,3.0,,,bh3,1,2023-04-04_10h06.34.937,threat_forest,2021.2.3,60.196737498672434,False,11.0,0.35,0.4166666666666666,-1.3425000000000002,-1.065138888888889,0,0,0.0,-0.0500930879922005,-0.0012447101888581,0.18,0.18,0.2,0.1,-0.7000000000000002,-0.5600000000000003,3.4399999999999995,3.4399999999999995,1.0,1.0,-1.0,4.0,0,1,0,0,-0.0012447101888581,0.5361817102943688,0.24869088384017443,-0.04648740999954908,0.5718859937850478,0.24483240389753608,0.005468921467980725,0.3901004452408826,0.2379220878637478,-0.04407871239327753,0.4598929579215586,0.24839142517571813,-0.07051571433209425,0.4752680804244721,0.24938833215410963,-0.08193394069016335,0.3216543977053215,0.21819284614214837,-0.08297032418446115,0.387550194980448,0.23735504135106472,-0.07391307534302438,0.3268137930654891,0.2200065377276368,-0.12621233548469846,0.38095183302474284,0.23582753393983127,-0.011706015021366367,0.16426449162732967,0.13728166841774464,-0.04498787007365107,0.32886746403804223,0.22071365513522923,0.017338409471727267
12.0,0.0,12.0,0.0,1.0,0.0,1.0,0.0,,,,right,1.1321558952331543,412.7284209728241,bh3,412.7284209728241,,401.522567987442,405.02239179611206,False,3.0,['p'],True,0.18,0.2,0.1,1.0,1.0,0.7058405977926203,0.0095213043566894,wait_cost,0.0,2.0,410.9123649597168,,bh3,1,2023-04-04_10h06.34.937,threat_forest,2021.2.3,60.196737498672434,False,11.0,0.35,0.4166666666666666,-1.3425000000000002,-1.065138888888889,0,0,0.0,0.1241236869359877,0.0095213043566894,0.18,0.18,0.2,0.1,-0.7000000000000002,-0.5600000000000003,2.4399999999999995,2.4399999999999995,1.0,1.0,-1.0,3.0,0,1,0,0,0.0095213043566894,0.5361817102943688,0.24869088384017443,-0.04648740999954908,0.5718859937850478,0.24483240389753608,0.005468921467980725,0.3901004452408826,0.2379220878637478,-0.04407871239327753,0.4598929579215586,0.24839142517571813,-0.07051571433209425,0.4752680804244721,0.24938833215410963,-0.08193394069016335,0.3216543977053215,0.21819284614214837,-0.08297032418446115,0.387550194980448,0.23735504135106472,-0.07391307534302438,0.3268137930654891,0.2200065377276368,-0.12621233548469846,0.38095183302474284,0.23582753393983127,-0.011706015021366367,0.16426449162732967,0.13728166841774464,-0.04498787007365107,0.390605152320063,0.23803276730108344,0.032940637836195746
12.0,0.0,12.0,0.0,2.0,0.0,2.0,0.0,,,,right,0.8834969997406006,417.6503059864044,bh3,417.6503059864044,,401.522567987442,405.02239179611206,False,2.0,['p'],True,0.18,0.2,0.1,1.0,1.0,0.7058405977926203,-0.0022718469726562,wait_cost,0.0,1.0,415.8844439983368,,bh3,1,2023-04-04_10h06.34.937,threat_forest,2021.2.3,60.196737498672434,False,11.0,0.35,0.4166666666666666,-1.3425000000000002,-1.065138888888889,0,0,0.0,-0.1238673831074948,-0.0022718469726562,0.18,0.18,0.2,0.1,-0.7000000000000002,-0.5600000000000003,1.4399999999999995,1.4399999999999995,1.0,1.0,-1.0,2.0,0,1,0,0,-0.0022718469726562,0.5361817102943688,0.24869088384017443,-0.04648740999954908,0.5718859937850478,0.24483240389753608,0.005468921467980725,0.3901004452408826,0.2379220878637478,-0.04407871239327753,0.4598929579215586,0.24839142517571813,-0.07051571433209425,0.4752680804244721,0.24938833215410963,-0.08193394069016335,0.3216543977053215,0.21819284614214837,-0.08297032418446115,0.387550194980448,0.23735504135106472,-0.07391307534302438,0.3268137930654891,0.2200065377276368,-0.12621233548469846,0.38095183302474284,0.23582753393983127,-0.011706015021366367,0.16426449162732967,0.13728166841774464,-0.04498787007365107,0.3232376755358851,0.21875508065004298,0.01557399302277418
12.0,0.0,12.0,0.0,3.0,0.0,3.0,0.0,,,,right,1.524240016937256,423.6451230049133,bh3,418.5576798915863,420.5562949180603,423.6451230049133,,True,1.0,['p'],False,0.375,0.5,0.25,1.0,1.0,0.9850568223215076,0.0471695800781249,succ_gain,1.0,2.0,420.5562949180603,,bh3,1,2023-04-04_10h06.34.937,threat_forest,2021.2.3,60.196737498672434,True,11.0,0.35,0.4166666666666666,-1.3425000000000002,-1.065138888888889,0,0,1.0,0.4214959362926271,0.0471695800781249,1.0,0.375,0.5,0.25,-0.25,-0.125,0.875,1.0,0.0,1.0,-1.0,1.0,1,1,0,0,0.625,0.5361817102943688,0.24869088384017443,-0.04648740999954908,0.5718859937850478,0.24483240389753608,0.005468921467980725,0.9818368566014101,0.01783324362047212,-0.04119827854270211,0.49214676120295753,0.24993832664039664,-0.017365920642816945,0.47668073353195084,0.24945621181139208,-0.020365261136930712,0.5035694625764546,0.24998725893691529,-0.023978134170963172,0.4413375414171327,0.2465587159530134,-0.028317606720493105,0.4962487561351842,0.2499859281694667,0.014725704414838559,0.38095183302474284,0.23582753393983127,-0.011706015021366367,0.9972615519712243,0.002730948931169231,-0.18898648166689025,0.6211217969089899,0.23532951031353738,0.03050536099038298
12.0,0.0,12.0,0.0,4.0,0.0,4.0,0.0,,,,right,0.7576789855957031,429.1680309772492,bh3,429.1680309772492,,425.2006349563599,427.21413683891296,False,2.0,['p'],True,0.18,0.2,0.1,1.0,1.0,0.7058405977926203,-0.01323675,wait_cost,0.0,1.0,427.21413683891296,,bh3,1,2023-04-04_10h06.34.937,threat_forest,2021.2.3,60.196737498672434,False,11.0,0.35,0.4166666666666666,-1.3425000000000002,-1.065138888888889,0,0,0.0,-0.2774954848946363,-0.01323675,0.18,0.18,0.2,0.1,-0.7000000000000002,-0.5600000000000003,1.4399999999999995,1.4399999999999995,1.0,1.0,1.0,2.0,0,1,0,0,-0.01323675,0.2191773868741429,0.17113865995716515,-0.03443333287187809,0.5718859937850478,0.24483240389753608,0.005468921467980725,0.3901004452408826,0.2379220878637478,-0.04407871239327753,0.4598929579215586,0.24839142517571813,-0.07051571433209425,0.4752680804244721,0.24938833215410963,-0.08193394069016335,0.3216543977053215,0.21819284614214837,-0.08297032418446115,0.387550194980448,0.23735504135106472,-0.07391307534302438,0.3268137930654891,0.2200065377276368,-0.12621233548469846,0.38095183302474284,0.23582753393983127,-0.011706015021366367,0.16426449162732967,0.13728166841774464,-0.04498787007365107,0.266503422802922,0.19547934843724898,-0.005394361813001292
12.0,0.0,12.0,0.0,5.0,0.0,5.0,0.0,,,,left,1.346709966659546,434.2527899742127,bh3,434.2527899742127,,425.2006349563599,427.21413683891296,True,1.0,['p'],True,0.18,0.2,0.1,1.0,1.0,0.7058405977926203,0.0587249999999999,unsucc_cost,0.0,0.0,431.9688718318939,,bh3,1,2023-04-04_10h06.34.937,threat_forest,2021.2.3,60.196737498672434,True,11.0,0.35,0.4166666666666666,-1.3425000000000002,-1.065138888888889,0,0,1.0,0.2976645562480964,0.0587249999999999,1.0,0.18,0.2,0.1,-0.7000000000000002,-0.5600000000000003,0.4399999999999997,1.0,1.0,1.0,-1.0,1.0,1,1,0,0,0.625,0.5361817102943688,0.24869088384017443,-0.04648740999954908,0.5718859937850478,0.24483240389753608,0.005468921467980725,0.9818368566014101,0.01783324362047212,-0.04119827854270211,0.4598929579215586,0.24839142517571813,-0.07051571433209425,0.4752680804244721,0.24938833215410963,-0.08193394069016335,0.3216543977053215,0.21819284614214837,-0.08297032418446115,0.387550194980448,0.23735504135106472,-0.07391307534302438,0.3268137930654891,0.2200065377276368,-0.12621233548469846,0.38095183302474284,0.23582753393983127,-0.011706015021366367,0.9972615519712243,0.002730948931169231,-0.18898648166689025,0.6862284863371172,0.21531895087658612,0.012478494771938797
13.0,0.0,13.0,0.0,0.0,0.0,0.0,0.0,438.6944270133972,442.19699692726135,,left,2.3776891231536865,444.19423484802246,bh3,438.6944270133972,442.19699692726135,444.19423484802246,,False,4.0,['r'],False,0.24,0.4,0.4,2.0,1.0,0.9801625908629508,0.0009688829723073,wait_cost,1.0,3.0,,,bh3,1,2023-04-04_10h06.34.937,threat_forest,2021.2.3,60.196737498672434,False,28.0,0.3666666666666667,0.3583333333333333,-1.3400000000000003,-1.3412500000000005,0,0,0.0,0.8661290593415047,0.0009688829723073,0.24,0.24,0.4,0.4,-1.0,-0.6800000000000002,3.32,3.32,0.0,1.0,-1.0,4.0,0,1,0,0,0.0009688829723073,0.5361817102943688,0.24869088384017443,-0.04648740999954908,0.5718859937850478,0.24483240389753608,0.005468921467980725,0.3901004452408826,0.2379220878637478,-0.04407871239327753,0.49214676120295753,0.24993832664039664,-0.017365920642816945,0.4780937598348736,0.2495201166418278,0.03759814328378752,0.4404816147584438,0.24645756181823775,-0.030527227071631358,0.3530759517931368,0.22841332405850734,-0.1182107942300028,0.37638977718590805,0.23472051281585052,-0.057039521177908226,0.38095183302474284,0.23582753393983127,-0.011706015021366367,0.254213604577104,0.1895890478250198,0.010992432666238228,0.3411672362560057,0.22477215316144447,0.020994579165379224
13.0,0.0,13.0,0.0,1.0,0.0,1.0,0.0,,,,left,1.6563589572906494,451.0876588821411,bh3,438.6944270133972,442.19699692726135,451.0876588821411,,False,3.0,['r'],False,0.24,0.4,0.4,2.0,1.0,0.9801625908629508,0.0090883802469137,wait_cost,1.0,2.0,448.6209769248962,,bh3,1,2023-04-04_10h06.34.937,threat_forest,2021.2.3,60.196737498672434,False,28.0,0.3666666666666667,0.3583333333333333,-1.3400000000000003,-1.3412500000000005,0,0,0.0,0.504621794122599,0.0090883802469137,0.24,0.24,0.4,0.4,-1.0,-0.6800000000000002,2.32,2.32,0.0,1.0,-1.0,3.0,0,1,0,0,0.0090883802469137,0.5361817102943688,0.24869088384017443,-0.04648740999954908,0.5718859937850478,0.24483240389753608,0.005468921467980725,0.3901004452408826,0.2379220878637478,-0.04407871239327753,0.49214676120295753,0.24993832664039664,-0.017365920642816945,0.4780937598348736,0.2495201166418278,0.03759814328378752,0.4404816147584438,0.24645756181823775,-0.030527227071631358,0.3530759517931368,0.22841332405850734,-0.1182107942300028,0.37638977718590805,0.23472051281585052,-0.057039521177908226,0.38095183302474284,0.23582753393983127,-0.011706015021366367,0.254213604577104,0.1895890478250198,0.010992432666238228,0.3880377743558804,0.23746446002881522,0.03242866818335183
13.0,0.0,13.0,0.0,2.0,0.0,2.0,0.0,,,,right,0.8093829154968262,457.0609669685364,bh3,438.6944270133972,442.19699692726135,457.0609669685364,,True,2.0,['r'],False,0.24,0.4,0.4,2.0,1.0,0.9801625908629508,0.0087973116049383,unsucc_cost,1.0,0.0,454.7775919437408,,bh3,1,2023-04-04_10h06.34.937,threat_forest,2021.2.3,60.196737498672434,True,28.0,0.3666666666666667,0.3583333333333333,-1.3400000000000003,-1.3412500000000005,0,0,1.0,-0.2114831543776376,0.0087973116049383,0.24,0.24,0.4,0.4,-1.0,-0.6800000000000002,1.3199999999999998,1.3199999999999998,0.0,1.0,-1.0,2.0,0,1,0,0,0.0087973116049383,0.5361817102943688,0.24869088384017443,-0.04648740999954908,0.5718859937850478,0.24483240389753608,0.005468921467980725,0.3901004452408826,0.2379220878637478,-0.04407871239327753,0.49214676120295753,0.24993832664039664,-0.017365920642816945,0.4780937598348736,0.2495201166418278,0.03759814328378752,0.4404816147584438,0.24645756181823775,-0.030527227071631358,0.3530759517931368,0.22841332405850734,-0.1182107942300028,0.37638977718590805,0.23472051281585052,-0.057039521177908226,0.38095183302474284,0.23582753393983127,-0.011706015021366367,0.254213604577104,0.1895890478250198,0.010992432666238228,0.3863151225942447,0.23707574864923844,0.032078490665362114
14.0,0.0,14.0,0.0,0.0,0.0,0.0,0.0,462.1908450126648,465.69356083869934,,left,1.2056050300598145,467.3562958240509,bh3,467.3562958240509,,462.1908450126648,465.69356083869934,True,5.0,['r'],True,0.24,0.3,0.2,2.0,2.0,0.9003120349047065,-0.0006443703968158,unsucc_cost,0.0,3.0,,,bh3,1,2023-04-04_10h06.34.937,threat_forest,2021.2.3,60.196737498672434,True,55.0,0.2928571428571428,0.3297619047619047,-1.0485714285714285,-1.1942857142857144,0,0,1.0,0.1869815405674754,-0.0006443703968158,0.24,0.24,0.3,0.2,-0.3999999999999999,-0.24,4.76,4.76,1.0,2.0,-1.0,5.0,0,1,0,0,-0.0006443703968158,0.5361817102943688,0.24869088384017443,-0.04648740999954908,0.5718859937850478,0.24483240389753608,0.005468921467980725,0.3901004452408826,0.2379220878637478,-0.04407871239327753,0.4598929579215586,0.24839142517571813,-0.07051571433209425,0.47620980658501355,0.24943402669727754,-0.04048775786796455,0.3792592645524702,0.2354216748035896,-0.05100350219386829,0.4231885719718353,0.2441000045242741,-0.04049818726570331,0.37638977718590805,0.23472051281585052,-0.057039521177908226,0.38095183302474284,0.23582753393983127,-0.011706015021366367,0.254213604577104,0.1895890478250198,0.010992432666238228,0.33218099330287476,0.22183678099119025,0.018350197253856865
14.0,0.0,14.0,0.0,1.0,0.0,1.0,0.0,,,,right,0.7573521137237549,473.6014289855957,bh3,468.59601879119873,470.6042687892914,473.6014289855957,,True,3.0,['r'],False,0.2857142857142857,0.2857142857142857,0.0,0.0,2.0,0.5445684476282007,0.0813189773311461,unsucc_cost,1.0,1.0,470.6042687892914,,bh3,1,2023-04-04_10h06.34.937,threat_forest,2021.2.3,60.196737498672434,True,55.0,0.2928571428571428,0.3297619047619047,-1.0485714285714285,-1.1942857142857144,1,0,1.0,-0.2779269900659387,0.0813189773311461,0.2857142857142857,0.2857142857142857,0.2857142857142857,0.0,0.1428571428571428,0.1428571428571428,3.142857142857143,3.142857142857143,0.0,2.0,-1.0,3.0,0,1,0,1,0.0813189773311461,0.5361817102943688,0.24869088384017443,-0.04648740999954908,0.5718859937850478,0.24483240389753608,0.005468921467980725,0.3901004452408826,0.2379220878637478,-0.04407871239327753,0.49214676120295753,0.24993832664039664,-0.017365920642816945,0.47432653012910597,0.24934087294478827,-0.1249807232983926,0.3707721508240744,0.23330016299736428,-0.05493981101632034,0.48949520616844416,0.2498896493065565,-0.011815994725968615,0.4160500033935952,0.24295239806978464,-0.018340076150214157,0.5714316182217387,0.24489752391822375,-0.07561318827427743,0.3414627526733729,0.22486594121009584,0.048746401490466634,0.7934945001912818,0.16386097835746974,-0.033878329453652045
14.0,0.0,14.0,0.0,2.0,0.0,2.0,0.0,,,,left,1.2110679149627686,480.2253828048706,bh3,480.2253828048706,,474.3868489265442,476.4016058444977,True,1.0,['r'],True,0.24,0.3,0.2,2.0,2.0,0.9003120349047065,0.0803828504416493,unsucc_cost,0.0,0.0,476.4016058444977,,bh3,1,2023-04-04_10h06.34.937,threat_forest,2021.2.3,60.196737498672434,True,55.0,0.2928571428571428,0.3297619047619047,-1.0485714285714285,-1.1942857142857144,0,0,1.0,0.1915025447183092,0.0803828504416493,1.0,0.24,0.3,0.2,-0.3999999999999999,-0.24,0.76,1.0,1.0,2.0,-1.0,1.0,1,1,0,0,0.625,0.5361817102943688,0.24869088384017443,-0.04648740999954908,0.5718859937850478,0.24483240389753608,0.005468921467980725,0.9818368566014101,0.01783324362047212,-0.04119827854270211,0.4598929579215586,0.24839142517571813,-0.07051571433209425,0.47620980658501355,0.24943402669727754,-0.04048775786796455,0.3792592645524702,0.2354216748035896,-0.05100350219386829,0.4231885719718353,0.2441000045242741,-0.04049818726570331,0.37638977718590805,0.23472051281585052,-0.057039521177908226,0.38095183302474284,0.23582753393983127,-0.011706015021366367,0.9972615519712243,0.002730948931169231,-0.18898648166689025,0.789642066359915,0.16610747339475865,-0.031854534685434616
15.0,0.0,15.0,0.0,0.0,0.0,0.0,0.0,485.26423692703247,488.765172958374,,right,1.0185940265655518,491.3034129142761,bh3,485.26423692703247,488.765172958374,491.3034129142761,,True,5.0,['r'],False,0.3333333333333333,0.3333333333333333,0.0,0.0,2.0,0.5793801642856949,0.0388172421765338,unsucc_cost,1.0,3.0,,,bh3,1,2023-04-04_10h06.34.937,threat_forest,2021.2.3,60.196737498672434,True,40.0,0.3541666666666666,0.3235119047619047,-0.8958333333333335,-0.972202380952381,1,1,1.0,0.0184232710937711,0.0388172421765338,0.3333333333333333,0.3333333333333333,0.3333333333333333,0.0,0.3333333333333331,0.3333333333333331,5.333333333333333,5.333333333333333,0.0,2.0,-1.0,5.0,0,1,1,1,0.0388172421765338,0.5361817102943688,0.24869088384017443,-0.04648740999954908,0.5718859937850478,0.24483240389753608,0.005468921467980725,0.3901004452408826,0.2379220878637478,-0.04407871239327753,0.49214676120295753,0.24993832664039664,-0.017365920642816945,0.47432653012910597,0.24934087294478827,-0.1249807232983926,0.3993442387023785,0.23986841771759632,-0.04275289839698243,0.5129707636376146,0.24983175929065712,-0.012102784787292542,0.4585435356762932,0.2482813615657772,0.006712256760912805,0.5714316182217387,0.24489752391822375,-0.07561318827427743,0.44526468186382684,0.24700404494853195,0.07243900019083974,0.5710105733567632,0.24495749847154374,0.03917890432753962
15.0,0.0,15.0,0.0,1.0,0.0,1.0,0.0,,,,right,1.0631120204925537,496.747545003891,bh3,485.26423692703247,488.765172958374,496.747545003891,,True,3.0,['r'],False,0.3333333333333333,0.3333333333333333,0.0,0.0,2.0,0.5793801642856949,0.1051879490716752,unsucc_cost,1.0,1.0,494.37158489227295,,bh3,1,2023-04-04_10h06.34.937,threat_forest,2021.2.3,60.196737498672434,True,40.0,0.3541666666666666,0.3235119047619047,-0.8958333333333335,-0.972202380952381,1,1,1.0,0.0612004752681145,0.1051879490716752,0.3333333333333333,0.3333333333333333,0.3333333333333333,0.0,0.3333333333333331,0.3333333333333331,3.333333333333333,3.333333333333333,0.0,2.0,-1.0,3.0,0,1,1,1,0.1051879490716752,0.5361817102943688,0.24869088384017443,-0.04648740999954908,0.5718859937850478,0.24483240389753608,0.005468921467980725,0.3901004452408826,0.2379220878637478,-0.04407871239327753,0.49214676120295753,0.24993832664039664,-0.017365920642816945,0.47432653012910597,0.24934087294478827,-0.1249807232983926,0.3993442387023785,0.23986841771759632,-0.04275289839698243,0.5129707636376146,0.24983175929065712,-0.012102784787292542,0.4585435356762932,0.2482813615657772,0.006712256760912805,0.5714316182217387,0.24489752391822375,-0.07561318827427743,0.44526468186382684,0.24700404494853195,0.07243900019083974,0.8745164495798194,0.10973742899412661,-0.08263648570183123
15.0,0.0,15.0,0.0,2.0,0.0,2.0,0.0,,,,right,0.808189868927002,501.8302309513092,bh3,485.26423692703247,488.765172958374,501.8302309513092,,True,1.0,['r'],False,0.3333333333333333,0.3333333333333333,0.0,0.0,2.0,0.5793801642856949,0.1304442796687529,unsucc_cost,1.0,0.0,499.8610689640045,,bh3,1,2023-04-04_10h06.34.937,threat_forest,2021.2.3,60.196737498672434,True,40.0,0.3541666666666666,0.3235119047619047,-0.8958333333333335,-0.972202380952381,1,1,1.0,-0.2129582617702023,0.1304442796687529,1.0,0.3333333333333333,0.3333333333333333,0.0,0.3333333333333331,0.3333333333333331,1.333333333333333,1.333333333333333,0.0,2.0,-1.0,1.0,1,1,1,1,0.625,0.5361817102943688,0.24869088384017443,-0.04648740999954908,0.5718859937850478,0.24483240389753608,0.005468921467980725,0.9818368566014101,0.01783324362047212,-0.04119827854270211,0.49214676120295753,0.24993832664039664,-0.017365920642816945,0.47432653012910597,0.24934087294478827,-0.1249807232983926,0.3993442387023785,0.23986841771759632,-0.04275289839698243,0.5129707636376146,0.24983175929065712,-0.012102784787292542,0.4585435356762932,0.2482813615657772,0.006712256760912805,0.5714316182217387,0.24489752391822375,-0.07561318827427743,0.9972615519712243,0.002730948931169231,-0.18898648166689025,0.9290033032986132,0.06595616575887807,-0.12207761065903332
16.0,0.0,16.0,0.0,0.0,0.0,0.0,0.0,507.6234538555145,511.12299489974976,,left,0.8506588935852051,514.8862149715424,bh3,514.8862149715424,,507.6234538555145,511.12299489974976,True,4.0,['r'],True,0.6,0.6,0.0,0.0,1.0,0.6126016192893442,0.106823090374617,unsucc_cost,0.0,2.0,,,bh3,1,2023-04-04_10h06.34.937,threat_forest,2021.2.3,60.196737498672434,True,38.0,0.6125,0.4833333333333333,-0.5218750000000001,-0.7088541666666668,1,1,1.0,-0.1617440608622617,0.106823090374617,0.6,0.6,0.6,0.0,0.7999999999999999,0.7999999999999999,4.8,4.8,1.0,1.0,-1.0,4.0,0,1,1,1,0.106823090374617,0.5361817102943688,0.24869088384017443,-0.04648740999954908,0.5718859937850478,0.24483240389753608,0.005468921467980725,0.3901004452408826,0.2379220878637478,-0.04407871239327753,0.4598929579215586,0.24839142517571813,-0.07051571433209425,0.47432653012910597,0.24934087294478827,-0.1249807232983926,0.5665438551298161,0.24557191534446207,-0.032170478840519434,0.5700361973518027,0.24509493106049932,-0.0355692709767057,0.6902923577916933,0.21378881856607815,-0.15544285479683095,0.5714316182217387,0.24489752391822375,-0.07561318827427743,0.9026617059522619,0.08786355055961423,-0.09787603288895168,0.8789242840777253,0.10641638693618335,-0.0856283051496083
16.0,0.0,16.0,0.0,1.0,0.0,1.0,0.0,,,,right,1.7224228382110596,519.5599439144135,bh3,519.5599439144135,,507.6234538555145,511.12299489974976,False,2.0,['r'],True,0.6,0.6,0.0,0.0,1.0,0.6126016192893442,0.0828427075234651,wait_cost,0.0,1.0,517.7639219760895,,bh3,1,2023-04-04_10h06.34.937,threat_forest,2021.2.3,60.196737498672434,False,38.0,0.6125,0.4833333333333333,-0.5218750000000001,-0.7088541666666668,1,1,0.0,0.5437319265081283,0.0828427075234651,0.6,0.6,0.6,0.0,0.7999999999999999,0.7999999999999999,2.8,2.8,1.0,1.0,-1.0,2.0,0,1,1,1,0.0828427075234651,0.5361817102943688,0.24869088384017443,-0.04648740999954908,0.5718859937850478,0.24483240389753608,0.005468921467980725,0.3901004452408826,0.2379220878637478,-0.04407871239327753,0.4598929579215586,0.24839142517571813,-0.07051571433209425,0.47432653012910597,0.24934087294478827,-0.1249807232983926,0.5665438551298161,0.24557191534446207,-0.032170478840519434,0.5700361973518027,0.24509493106049932,-0.0355692709767057,0.6902923577916933,0.21378881856607815,-0.15544285479683095,0.5714316182217387,0.24489752391822375,-0.07561318827427743,0.9026617059522619,0.08786355055961423,-0.09787603288895168,0.7996529649967022,0.16020810056868517,-0.037169088985799265
16.0,0.0,16.0,0.0,2.0,0.0,2.0,0.0,,,,right,1.019503831863403,525.7462859153748,bh3,521.3069589138031,523.32017993927,525.7462859153748,,True,1.0,['r'],False,0.46875,0.625,0.25,2.0,1.0,0.9634951148421658,0.1616292114257812,succ_gain,1.0,2.0,523.32017993927,,bh3,1,2023-04-04_10h06.34.937,threat_forest,2021.2.3,60.196737498672434,True,38.0,0.6125,0.4833333333333333,-0.5218750000000001,-0.7088541666666668,0,0,1.0,0.0193160695965728,0.1616292114257812,1.0,0.46875,0.625,0.25,0.125,0.15625,1.15625,1.15625,0.0,1.0,-1.0,1.0,1,1,0,0,0.625,0.5361817102943688,0.24869088384017443,-0.04648740999954908,0.5718859937850478,0.24483240389753608,0.005468921467980725,0.9818368566014101,0.01783324362047212,-0.04119827854270211,0.49214676120295753,0.24993832664039664,-0.017365920642816945,0.47668073353195084,0.24945621181139208,-0.020365261136930712,0.582035589343641,0.24327016208104155,-0.03644121240482173,0.48729514417594405,0.2498385866384899,-0.012068961761452668,0.5805909145134903,0.24350510449787932,-0.01574171242541822,0.38095183302474284,0.23582753393983127,-0.011706015021366367,0.9972615519712243,0.002730948931169231,-0.18898648166689025,0.966083276077771,0.03276637976061234,-0.1519772161095786
16.0,0.0,16.0,0.0,3.0,0.0,3.0,0.0,,,,right,1.018554925918579,530.2446908950806,bh3,530.2446908950806,,526.7932360172272,528.7929339408875,False,2.0,['r'],True,0.6,0.6,0.0,0.0,1.0,0.6126016192893442,0.0834363281249999,wait_cost,0.0,1.0,528.7929339408875,,bh3,1,2023-04-04_10h06.34.937,threat_forest,2021.2.3,60.196737498672434,False,38.0,0.6125,0.4833333333333333,-0.5218750000000001,-0.7088541666666668,1,1,0.0,0.0183848834766754,0.0834363281249999,0.6,0.6,0.6,0.0,0.7999999999999999,0.7999999999999999,2.8,2.8,1.0,1.0,1.0,2.0,0,1,1,1,0.0834363281249999,0.2191773868741429,0.17113865995716515,-0.03443333287187809,0.5718859937850478,0.24483240389753608,0.005468921467980725,0.3901004452408826,0.2379220878637478,-0.04407871239327753,0.4598929579215586,0.24839142517571813,-0.07051571433209425,0.47432653012910597,0.24934087294478827,-0.1249807232983926,0.5665438551298161,0.24557191534446207,-0.032170478840519434,0.5700361973518027,0.24509493106049932,-0.0355692709767057,0.6902923577916933,0.21378881856607815,-0.15544285479683095,0.5714316182217387,0.24489752391822375,-0.07561318827427743,0.9026617059522619,0.08786355055961423,-0.09787603288895168,0.8020146452256456,0.15878715406922747,-0.03844917375954074
16.0,0.0,16.0,0.0,4.0,0.0,4.0,0.0,,,,left,0.9249811172485352,535.9443168640137,bh3,535.9443168640137,,526.7932360172272,528.7929339408875,True,1.0,['r'],True,0.6,0.6,0.0,0.0,1.0,0.6126016192893442,0.3403125,succ_gain,0.0,2.0,533.3147189617157,,bh3,1,2023-04-04_10h06.34.937,threat_forest,2021.2.3,60.196737498672434,True,38.0,0.6125,0.4833333333333333,-0.5218750000000001,-0.7088541666666668,1,1,1.0,-0.0779819554634434,0.3403125,1.0,0.6,0.6,0.0,0.7999999999999999,0.7999999999999999,1.7999999999999998,1.7999999999999998,1.0,1.0,-1.0,1.0,1,1,1,1,0.625,0.5361817102943688,0.24869088384017443,-0.04648740999954908,0.5718859937850478,0.24483240389753608,0.005468921467980725,0.9818368566014101,0.01783324362047212,-0.04119827854270211,0.4598929579215586,0.24839142517571813,-0.07051571433209425,0.47432653012910597,0.24934087294478827,-0.1249807232983926,0.5665438551298161,0.24557191534446207,-0.032170478840519434,0.5700361973518027,0.24509493106049932,-0.0355692709767057,0.6902923577916933,0.21378881856607815,-0.15544285479683095,0.5714316182217387,0.24489752391822375,-0.07561318827427743,0.9972615519712243,0.002730948931169231,-0.18898648166689025,0.9995930190672573,0.0004068152992631513,-0.18112890181181193
16.0,0.0,16.0,0.0,5.0,0.0,5.0,0.0,,,,right,1.352997064590454,542.2800858020782,bh3,536.907744884491,538.9207699298859,542.2800858020782,,True,2.0,['r'],False,0.46875,0.625,0.25,2.0,1.0,0.9634951148421658,-0.0656249999999999,unsucc_cost,1.0,0.0,538.9207699298859,,bh3,1,2023-04-04_10h06.34.937,threat_forest,2021.2.3,60.196737498672434,True,38.0,0.6125,0.4833333333333333,-0.5218750000000001,-0.7088541666666668,0,0,1.0,0.3023221796300921,-0.0656249999999999,0.46875,0.46875,0.625,0.25,0.125,0.15625,2.15625,2.15625,0.0,1.0,1.0,2.0,0,1,0,0,-0.0656249999999999,0.2191773868741429,0.17113865995716515,-0.03443333287187809,0.5718859937850478,0.24483240389753608,0.005468921467980725,0.3901004452408826,0.2379220878637478,-0.04407871239327753,0.49214676120295753,0.24993832664039664,-0.017365920642816945,0.47668073353195084,0.24945621181139208,-0.020365261136930712,0.582035589343641,0.24327016208104155,-0.03644121240482173,0.48729514417594405,0.2498385866384899,-0.012068961761452668,0.5805909145134903,0.24350510449787932,-0.01574171242541822,0.38095183302474284,0.23582753393983127,-0.011706015021366367,0.7355144558559461,0.19453294108287764,0.01628347657676693,0.0895465052473417,0.08152792864532951,-0.1080495127828171
17.0,0.0,17.0,0.0,0.0,0.0,0.0,0.0,547.984680891037,551.4840929508209,,right,1.017230987548828,554.364091873169,bh3,554.364091873169,,547.984680891037,551.4840929508209,False,5.0,['r'],True,0.4,0.4,0.0,0.0,2.0,0.6126016192893442,0.0501704926254868,wait_cost,0.0,4.0,,,bh3,1,2023-04-04_10h06.34.937,threat_forest,2021.2.3,60.196737498672434,False,33.0,0.4142857142857142,0.5133928571428572,-0.7306122448979593,-0.6262436224489797,1,0,0.0,0.0170842176771544,0.0501704926254868,0.4,0.4,0.4,0.0,0.6000000000000001,0.6000000000000001,5.6,5.6,1.0,2.0,-1.0,5.0,0,1,0,1,0.0501704926254868,0.5361817102943688,0.24869088384017443,-0.04648740999954908,0.5718859937850478,0.24483240389753608,0.005468921467980725,0.3901004452408826,0.2379220878637478,-0.04407871239327753,0.4598929579215586,0.24839142517571813,-0.07051571433209425,0.47432653012910597,0.24934087294478827,-0.1249807232983926,0.4404816147584438,0.24645756181823775,-0.030527227071631358,0.5457176453582329,0.24790989690289889,-0.02162378808083587,0.5189199729727602,0.24964203462271006,0.013109004351906206,0.5714316182217387,0.24489752391822375,-0.07561318827427743,0.5967453423723416,0.2406403387292584,0.06562844679016408,0.638570668411495,0.23079816985599144,0.02642322283348747
