miniblock.thisRepN,miniblock.thisTrialN,miniblock.thisN,miniblock.thisIndex,day.thisRepN,day.thisTrialN,day.thisN,day.thisIndex,forest.started,fixation_forest.started,fixation_forest.stopped,key_resp.keys,key_resp.rt,key_resp.started,Subject_ID,weather_left.started,weather_left.stopped,weather_right.started,weather_right.stopped,foraging T/F,in_LP,p/r heuristic,good_weather.T/F,p_succ_correct,p_succ_uncorrected,r_threat,n_oponents,gain_if_succ,weather_entropy,OP_value_difference,action_outcome,forest_side_L=0_R=1,out_LP,fixation_day.started,fixation_day.stopped,participant,session,date,expName,psychopyVersion,frameRate,foraging T/F NaNs,fora_NR,forest_mean_p,mvt_cutoff_p,forest_mean_ev,mvt_cutoff_ev,mvt_policy_eg,mvt_policy_p,fora_response,logRT,optimal policy values,multi-heuristic policy,** $\mathit{p}$ success,* $\mathit{p}$ gain,* $\mathit{r}$ predator,expected gain naive,expected gain correct,expected state no bounds,expected state with bounds,weather type,gain magnitude,win stay lose shift,continuous energy state,** binary energy state,** wait when safe,$\mathit{p}$ success based MVT,marginal value,$\mathit{OP}$ values + cap,win stay lose shift fit,win stay lose shift_uncertain,win stay lose shift_uncertain_fit,** wait when safe fit,** wait when safe_uncertain,** wait when safe_uncertain_fit,** binary energy state fit,** binary energy state_uncertain,** binary energy state_uncertain_fit,weather type fit,weather type_uncertain,weather type_uncertain_fit,* $\mathit{r}$ predator fit,* $\mathit{r}$ predator_uncertain,* $\mathit{r}$ predator_uncertain_fit,* $\mathit{p}$ gain fit,* $\mathit{p}$ gain_uncertain,* $\mathit{p}$ gain_uncertain_fit,expected gain naive fit,expected gain naive_uncertain,expected gain naive_uncertain_fit,** $\mathit{p}$ success fit,** $\mathit{p}$ success_uncertain,** $\mathit{p}$ success_uncertain_fit,marginal value fit,marginal value_uncertain,marginal value_uncertain_fit,multi-heuristic policy fit,multi-heuristic policy_uncertain,multi-heuristic policy_uncertain_fit,optimal policy values fit,optimal policy values_uncertain,optimal policy values_uncertain_fit
0.0,0.0,0.0,0.0,0.0,0.0,0.0,0.0,27.819637099994,31.31999150000047,,left,0.931834600007278,34.061004500006675,or1,34.061004500006675,,27.819637099994,31.31999150000047,True,5.0,['r'],True,0.3333333333333333,0.5,0.3333333333333333,2.0,2.0,1.0,-0.0164991778692271,figh_cost,0.0,2.0,,,or1,1,2022-04-29_14h28.47.259,threat_forest,2021.2.3,60.12621695150609,True,2.0,0.45,0.45,-0.7,-0.7,0,0,1.0,-0.0705999478491695,-0.0164991778692271,0.3333333333333333,0.3333333333333333,0.5,0.3333333333333333,0.0,0.0,5.0,5.0,1.0,2.0,,5.0,0,1,0,0,-0.0164991778692271,,,,0.6047342661399505,0.23903073349612597,-0.17029529291661072,0.45602395488919756,0.2480661074564127,-0.21318465347038462,0.5333336288965432,0.24888886918458755,-0.18433110432229505,0.5637637996826763,0.24593417785002747,-0.21536294058103111,0.5665942113653147,0.24556521101263182,-0.2159700133647941,0.5132855453967211,0.24982349428351167,-0.18581234805809843,0.5004318454302389,0.2499998135095244,-0.17708567592510138,0.4181805801384378,0.24330558253351736,-0.18747674873034859,0.5369622992951432,0.2486337884308163,-0.11520492905691537,0.31123049295508076,0.21436607321001822,-0.1652532994055972
0.0,0.0,0.0,0.0,1.0,0.0,1.0,0.0,,,,left,1.31708599999547,39.19041900000593,or1,39.19041900000593,,27.819637099994,31.31999150000047,True,2.0,['r'],True,0.3333333333333333,0.5,0.3333333333333333,2.0,2.0,1.0,-0.000405596707819,figh_cost,0.0,0.0,37.03296739999496,,or1,1,2022-04-29_14h28.47.259,threat_forest,2021.2.3,60.12621695150609,True,2.0,0.45,0.45,-0.7,-0.7,0,0,1.0,0.2754217205498272,-0.000405596707819,0.3333333333333333,0.3333333333333333,0.5,0.3333333333333333,0.0,0.0,2.0,2.0,1.0,2.0,-1.0,2.0,0,1,0,0,-0.000405596707819,0.5587173304399229,0.24655227510600894,-0.222565736454404,0.6047342661399505,0.23903073349612597,-0.17029529291661072,0.45602395488919756,0.2480661074564127,-0.21318465347038462,0.5333336288965432,0.24888886918458755,-0.18433110432229505,0.5637637996826763,0.24593417785002747,-0.21536294058103111,0.5665942113653147,0.24556521101263182,-0.2159700133647941,0.5132855453967211,0.24982349428351167,-0.18581234805809843,0.5004318454302389,0.2499998135095244,-0.17708567592510138,0.4181805801384378,0.24330558253351736,-0.18747674873034859,0.5369622992951432,0.2486337884308163,-0.11520492905691537,0.39623687827600496,0.23923321457009142,-0.14044216087327607
1.0,0.0,1.0,0.0,0.0,0.0,0.0,0.0,44.86906349999481,48.36207899999863,,left,0.6815989000024274,51.1294923999958,or1,51.1294923999958,,44.86906349999481,48.36207899999863,True,4.0,['p'],True,0.4166666666666667,0.5,0.1666666666666666,1.0,1.0,0.9358932809493992,0.0414014973705713,unsucc_cost,0.0,2.0,,,or1,1,2022-04-29_14h28.47.259,threat_forest,2021.2.3,60.12621695150609,True,16.0,0.4,0.425,-1.1033333333333333,-0.9016666666666666,0,0,1.0,-0.3833139173145372,0.0414014973705713,0.4166666666666667,0.4166666666666667,0.5,0.1666666666666666,2.220446049250313e-16,0.0833333333333334,4.083333333333334,4.083333333333334,1.0,1.0,-1.0,4.0,0,1,0,0,0.0414014973705713,0.5587173304399229,0.24655227510600894,-0.222565736454404,0.6047342661399505,0.23903073349612597,-0.17029529291661072,0.45602395488919756,0.2480661074564127,-0.21318465347038462,0.5333336288965432,0.24888886918458755,-0.18433110432229505,0.5063907306253416,0.24995915856207426,-0.26157669302797126,0.5665942113653147,0.24556521101263182,-0.2159700133647941,0.5132855453967211,0.24982349428351164,-0.18581234805809865,0.5890686121307979,0.2420667823330935,-0.19755852897309378,0.4181805801384378,0.24330558253351736,-0.18747674873034859,0.7081436179673961,0.2066762342994426,-0.1617725023016944,0.6337454258060461,0.2321121610759594,-0.1475471771749351
1.0,0.0,1.0,0.0,1.0,0.0,1.0,0.0,,,,left,1.5655724000098417,55.67537909999373,or1,51.83622670000477,53.85061009999481,55.67537909999373,,False,2.0,['p'],False,0.27,0.3,0.1,1.0,1.0,0.7963326591781347,-0.000610685306858,wait_cost,1.0,1.0,53.85061009999481,,or1,1,2022-04-29_14h28.47.259,threat_forest,2021.2.3,60.12621695150609,False,16.0,0.4,0.425,-1.1033333333333333,-0.9016666666666666,0,0,0.0,0.4482515079266063,-0.000610685306858,0.27,0.27,0.3,0.1,-0.3999999999999999,-0.29,1.71,1.71,0.0,1.0,-1.0,2.0,0,1,0,0,-0.000610685306858,0.5587173304399229,0.24655227510600894,-0.222565736454404,0.6047342661399505,0.23903073349612597,-0.17029529291661072,0.45602395488919756,0.2480661074564127,-0.21318465347038462,0.5025377263008225,0.2499935599452221,-0.2449714372561953,0.4833085618506966,0.249721395892508,-0.2588467656224629,0.36530687316392024,0.23185776158311971,-0.21787357017552772,0.45885546374993946,0.24830712713676745,-0.19274761147499153,0.4327479513447334,0.2454771619516696,-0.18875732811856882,0.4181805801384378,0.24330558253351736,-0.18747674873034859,0.3982019809989037,0.23963716332745238,-0.12519004394576078,0.3950996685843063,0.23899592046887763,-0.1406789205688465
1.0,0.0,1.0,0.0,2.0,0.0,2.0,0.0,,,,left,0.6980422000051476,62.84015560000262,or1,62.84015560000262,,57.26475869999558,59.279054099999485,True,1.0,['p'],True,0.4166666666666667,0.5,0.1666666666666666,1.0,1.0,0.9358932809493992,0.0641175250771606,figh_cost,0.0,0.0,59.279054099999485,,or1,1,2022-04-29_14h28.47.259,threat_forest,2021.2.3,60.12621695150609,True,16.0,0.4,0.425,-1.1033333333333333,-0.9016666666666666,0,0,1.0,-0.3594757195872067,0.0641175250771606,1.0,0.4166666666666667,0.5,0.1666666666666666,2.220446049250313e-16,0.0833333333333334,1.0833333333333337,1.0833333333333337,1.0,1.0,-1.0,1.0,1,1,0,0,0.625,0.5587173304399229,0.24655227510600894,-0.222565736454404,0.6047342661399505,0.23903073349612597,-0.17029529291661072,0.9749981104217976,0.024376795095721864,-0.2615337543101996,0.5333336288965432,0.24888886918458755,-0.18433110432229505,0.5063907306253416,0.24995915856207426,-0.26157669302797126,0.5665942113653147,0.24556521101263182,-0.2159700133647941,0.5132855453967211,0.24982349428351164,-0.18581234805809865,0.5890686121307979,0.2420667823330935,-0.19755852897309378,0.4181805801384378,0.24330558253351736,-0.18747674873034859,0.9976576250802031,0.0023368881995319457,-0.3885633070398234,0.7455643585188996,0.18969814582520136,-0.18986567260876008
2.0,0.0,2.0,0.0,0.0,0.0,0.0,0.0,69.2357830999972,72.7351098999934,,left,1.2279720999940764,73.65873379999539,or1,69.2357830999972,72.7351098999934,73.65873379999539,,False,5.0,['r'],False,0.4,0.4,0.0,0.0,1.0,0.6126016192893442,0.0454165613168723,wait_cost,1.0,4.0,,,or1,1,2022-04-29_14h28.47.259,threat_forest,2021.2.3,60.12621695150609,False,7.0,0.45,0.425,-1.0666666666666669,-1.085,1,0,0.0,0.2053641095923198,0.0454165613168723,0.4,0.4,0.4,0.0,0.2,0.2,5.2,5.2,0.0,1.0,-1.0,5.0,0,1,0,1,0.0454165613168723,0.5587173304399229,0.24655227510600894,-0.222565736454404,0.6047342661399505,0.23903073349612597,-0.17029529291661072,0.45602395488919756,0.2480661074564127,-0.21318465347038462,0.5025377263008225,0.2499935599452221,-0.2449714372561953,0.4488488494605368,0.2473835597984892,-0.23200435661733643,0.46450543749429996,0.24874013603252895,-0.21552911076097475,0.5404632215683908,0.24836272770030735,-0.192493316494317,0.5716138335634855,0.2448714588423414,-0.19032047220211035,0.6043942355465707,0.23910184358464712,-0.24711744641378308,0.6767185062248814,0.2187705695576465,-0.14834932131216697,0.6550758025715139,0.22595149545680085,-0.15369396847333788
2.0,0.0,2.0,0.0,1.0,0.0,1.0,0.0,,,,left,1.446533599999384,78.49620419999701,or1,69.2357830999972,72.7351098999934,78.49620419999701,,False,4.0,['r'],False,0.4,0.4,0.0,0.0,1.0,0.6126016192893442,0.0610003292181069,wait_cost,1.0,3.0,76.92903250000381,,or1,1,2022-04-29_14h28.47.259,threat_forest,2021.2.3,60.12621695150609,False,7.0,0.45,0.425,-1.0666666666666669,-1.085,1,0,0.0,0.3691700736463939,0.0610003292181069,0.4,0.4,0.4,0.0,0.2,0.2,4.2,4.2,0.0,1.0,-1.0,4.0,0,1,0,1,0.0610003292181069,0.5587173304399229,0.24655227510600894,-0.222565736454404,0.6047342661399505,0.23903073349612597,-0.17029529291661072,0.45602395488919756,0.2480661074564127,-0.21318465347038462,0.5025377263008225,0.2499935599452221,-0.2449714372561953,0.4488488494605368,0.2473835597984892,-0.23200435661733643,0.46450543749429996,0.24874013603252895,-0.21552911076097475,0.5404632215683908,0.24836272770030735,-0.192493316494317,0.5716138335634855,0.2448714588423414,-0.19032047220211035,0.6043942355465707,0.23910184358464712,-0.24711744641378308,0.6767185062248814,0.2187705695576465,-0.14834932131216697,0.7316101328810293,0.196356746346832,-0.18322206779784195
2.0,0.0,2.0,0.0,2.0,0.0,2.0,0.0,,,,left,0.705447100001038,83.40569719999621,or1,83.40569719999621,,79.96018979999644,81.97433729999466,True,3.0,['r'],True,0.3333333333333333,0.5,0.3333333333333333,2.0,1.0,1.0,0.025732304526749,unsucc_cost,0.0,1.0,81.97433729999466,,or1,1,2022-04-29_14h28.47.259,threat_forest,2021.2.3,60.12621695150609,True,7.0,0.45,0.425,-1.0666666666666669,-1.085,0,0,1.0,-0.3489234927811782,0.025732304526749,0.3333333333333333,0.3333333333333333,0.5,0.3333333333333333,-0.5,-0.3333333333333335,2.6666666666666665,2.6666666666666665,1.0,1.0,-1.0,3.0,0,1,0,0,0.025732304526749,0.5587173304399229,0.24655227510600894,-0.222565736454404,0.6047342661399505,0.23903073349612597,-0.17029529291661072,0.45602395488919756,0.2480661074564127,-0.21318465347038462,0.5333336288965432,0.24888886918458755,-0.18433110432229505,0.5637637996826763,0.24593417785002747,-0.21536294058103111,0.5665942113653147,0.24556521101263182,-0.2159700133647941,0.44534980093965276,0.24701335574266448,-0.19866480998368385,0.5004318454302389,0.2499998135095244,-0.17708567592510138,0.4181805801384378,0.24330558253351736,-0.18747674873034859,0.5369622992951432,0.2486337884308163,-0.11520492905691537,0.5461078546630195,0.24787406573837392,-0.13182076960561512
2.0,0.0,2.0,0.0,3.0,0.0,3.0,0.0,,,,left,1.044953999997233,88.45631209999556,or1,88.45631209999556,,79.96018979999644,81.97433729999466,True,1.0,['r'],True,0.3333333333333333,0.5,0.3333333333333333,2.0,1.0,1.0,0.0657283950617283,unsucc_cost,0.0,0.0,86.1537815000047,,or1,1,2022-04-29_14h28.47.259,threat_forest,2021.2.3,60.12621695150609,True,7.0,0.45,0.425,-1.0666666666666669,-1.085,0,0,1.0,0.0439728653064997,0.0657283950617283,1.0,0.3333333333333333,0.5,0.3333333333333333,-0.5,-0.3333333333333335,0.6666666666666665,1.0,1.0,1.0,-1.0,1.0,1,1,0,0,0.625,0.5587173304399229,0.24655227510600894,-0.222565736454404,0.6047342661399505,0.23903073349612597,-0.17029529291661072,0.9749981104217976,0.024376795095721864,-0.2615337543101996,0.5333336288965432,0.24888886918458755,-0.18433110432229505,0.5637637996826763,0.24593417785002747,-0.21536294058103111,0.5665942113653147,0.24556521101263182,-0.2159700133647941,0.44534980093965276,0.24701335574266448,-0.19866480998368385,0.5004318454302389,0.2499998135095244,-0.17708567592510138,0.4181805801384378,0.24330558253351736,-0.18747674873034859,0.9976576250802031,0.0023368881995319457,-0.3885633070398234,0.7525853830761898,0.1862006242562544,-0.19335531747426338
3.0,0.0,3.0,0.0,0.0,0.0,0.0,0.0,94.24453419999918,97.75959390000207,,left,0.6489946000074269,101.38232089999656,or1,101.38232089999656,,94.24453419999918,97.75959390000207,True,4.0,['p'],True,0.4444444444444445,0.6666666666666666,0.3333333333333333,1.0,1.0,0.9656336071428248,0.0433478243421047,unsucc_cost,0.0,2.0,,,or1,1,2022-04-29_14h28.47.259,threat_forest,2021.2.3,60.12621695150609,True,13.0,0.4761904761904761,0.4630952380952381,-1.2040816326530612,-1.135374149659864,1,0,1.0,-0.432330882794285,0.0433478243421047,0.4444444444444445,0.4444444444444445,0.6666666666666666,0.3333333333333333,0.0,0.0,4.0,4.0,1.0,1.0,-1.0,4.0,0,1,0,1,0.0433478243421047,0.5587173304399229,0.24655227510600894,-0.222565736454404,0.6047342661399505,0.23903073349612597,-0.17029529291661072,0.45602395488919756,0.2480661074564127,-0.21318465347038462,0.5333336288965432,0.24888886918458755,-0.18433110432229505,0.5637637996826763,0.24593417785002747,-0.21536294058103111,0.7214394336750121,0.20096457721368993,-0.22216371414535094,0.5132855453967211,0.24982349428351167,-0.18581234805809843,0.6176485542611019,0.23615881768027258,-0.2128052725519275,0.6043942355465707,0.23910184358464712,-0.24711744641378308,0.7562951122387295,0.18431281544253705,-0.18659306601620107,0.6441570698805124,0.22921873920346506,-0.1504340828257056
3.0,0.0,3.0,0.0,1.0,0.0,1.0,0.0,,,,left,1.4796264999895357,106.46014399999694,or1,102.05594109999949,104.0703790999978,106.46014399999694,,False,2.0,['p'],False,0.2448979591836734,0.2857142857142857,0.1428571428571428,1.0,1.0,0.8400769154957735,-0.0086958514213356,wait_cost,1.0,1.0,104.0703790999978,,or1,1,2022-04-29_14h28.47.259,threat_forest,2021.2.3,60.12621695150609,False,13.0,0.4761904761904761,0.4630952380952381,-1.2040816326530612,-1.135374149659864,0,0,0.0,0.3917896910547155,-0.0086958514213356,0.2448979591836734,0.2448979591836734,0.2857142857142857,0.1428571428571428,-0.5714285714285712,-0.4081632653061224,1.5918367346938775,1.5918367346938775,0.0,1.0,-1.0,2.0,0,1,0,0,-0.0086958514213356,0.5587173304399229,0.24655227510600894,-0.222565736454404,0.6047342661399505,0.23903073349612597,-0.17029529291661072,0.45602395488919756,0.2480661074564127,-0.21318465347038462,0.5025377263008225,0.2499935599452221,-0.2449714372561953,0.4981451152593287,0.24999655940259888,-0.2620061194796657,0.35183067912050575,0.22804585235010952,-0.21840293093076585,0.4357509000411051,0.2458720531544719,-0.20388467649456965,0.4064636814023912,0.2412509571032066,-0.19966393731863785,0.4181805801384378,0.24330558253351736,-0.18747674873034859,0.3462992918104355,0.22637609230202635,-0.13990815392774808,0.3512800950970211,0.2278823898856489,-0.15176742257601344
3.0,0.0,3.0,0.0,2.0,0.0,2.0,0.0,,,,left,0.5207910000026459,112.35029519999809,or1,112.35029519999809,,107.96717920000084,109.98151260000304,True,1.0,['p'],True,0.4444444444444445,0.6666666666666666,0.3333333333333333,1.0,1.0,0.9656336071428248,0.073145190503127,succ_gain,0.0,2.0,109.98151260000304,,or1,1,2022-04-29_14h28.47.259,threat_forest,2021.2.3,60.12621695150609,True,13.0,0.4761904761904761,0.4630952380952381,-1.2040816326530612,-1.135374149659864,1,0,1.0,-0.6524064693380078,0.073145190503127,1.0,0.4444444444444445,0.6666666666666666,0.3333333333333333,0.0,0.0,1.0,1.0,1.0,1.0,-1.0,1.0,1,1,0,1,0.625,0.5587173304399229,0.24655227510600894,-0.222565736454404,0.6047342661399505,0.23903073349612597,-0.17029529291661072,0.9749981104217976,0.024376795095721864,-0.2615337543101996,0.5333336288965432,0.24888886918458755,-0.18433110432229505,0.5637637996826763,0.24593417785002747,-0.21536294058103111,0.7214394336750121,0.20096457721368993,-0.22216371414535094,0.5132855453967211,0.24982349428351167,-0.18581234805809843,0.6176485542611019,0.23615881768027258,-0.2128052725519275,0.6043942355465707,0.23910184358464712,-0.24711744641378308,0.9976576250802031,0.0023368881995319457,-0.3885633070398234,0.7832048171437437,0.1697950315465787,-0.2097239634529342
3.0,0.0,3.0,0.0,3.0,0.0,3.0,0.0,,,,left,0.6524647000042023,116.76099310000428,or1,116.76099310000428,,107.96717920000084,109.98151260000304,True,2.0,['p'],True,0.4444444444444445,0.6666666666666666,0.3333333333333333,1.0,1.0,0.9656336071428248,0.0571679190978761,unsucc_cost,0.0,0.0,114.91024219999964,,or1,1,2022-04-29_14h28.47.259,threat_forest,2021.2.3,60.12621695150609,True,13.0,0.4761904761904761,0.4630952380952381,-1.2040816326530612,-1.135374149659864,1,0,1.0,-0.4269982408591432,0.0571679190978761,0.4444444444444445,0.4444444444444445,0.6666666666666666,0.3333333333333333,0.0,0.0,2.0,2.0,1.0,1.0,1.0,2.0,0,1,0,1,0.0571679190978761,0.32307577588773617,0.21869781892227344,-0.20457641378891506,0.6047342661399505,0.23903073349612597,-0.17029529291661072,0.45602395488919756,0.2480661074564127,-0.21318465347038462,0.5333336288965432,0.24888886918458755,-0.18433110432229505,0.5637637996826763,0.24593417785002747,-0.21536294058103111,0.7214394336750121,0.20096457721368993,-0.22216371414535094,0.5132855453967211,0.24982349428351167,-0.18581234805809843,0.6176485542611019,0.23615881768027258,-0.2128052725519275,0.6043942355465707,0.23910184358464712,-0.24711744641378308,0.7562951122387295,0.18431281544253705,-0.18659306601620107,0.7138047475460944,0.20428752992675078,-0.17530914498850125
4.0,0.0,4.0,0.0,0.0,0.0,0.0,0.0,122.35402169999723,125.85481970000546,,right,1.4321978999942075,126.5516309999948,or1,126.5516309999948,,122.35402169999723,125.85481970000546,False,5.0,['p'],True,0.1728395061728395,0.2222222222222222,0.2222222222222222,2.0,2.0,0.8571721972794328,-0.0270759260606772,wait_cost,0.0,4.0,,,or1,1,2022-04-29_14h28.47.259,threat_forest,2021.2.3,60.12621695150609,False,59.0,0.3611111111111111,0.4186507936507936,-1.1404320987654322,-1.1722568657092467,0,0,0.0,0.3592102573099231,-0.0270759260606772,0.1728395061728395,0.1728395061728395,0.2222222222222222,0.2222222222222222,-0.7777777777777777,-0.5308641975308643,4.469135802469136,4.469135802469136,1.0,2.0,-1.0,5.0,0,1,0,0,-0.0270759260606772,0.5587173304399229,0.24655227510600894,-0.222565736454404,0.6047342661399505,0.23903073349612597,-0.17029529291661072,0.45602395488919756,0.2480661074564127,-0.21318465347038462,0.5333336288965432,0.24888886918458755,-0.18433110432229505,0.5256092506166777,0.24934416628285222,-0.2545155160976864,0.29495522778710825,0.20795664138816336,-0.22119272450582328,0.40831390747129054,0.241593660436817,-0.22345235214723824,0.33436609793776156,0.22256541048763687,-0.24788591470333765,0.4181805801384378,0.24330558253351736,-0.18747674873034859,0.218620158216797,0.17082538463805963,-0.20156240669570813,0.2612188595422824,0.19298356696171176,-0.18658765050824408
4.0,0.0,4.0,0.0,1.0,0.0,1.0,0.0,,,,right,0.8967374000058044,132.52188770000066,or1,128.01531770000292,130.02937699999893,132.52188770000066,,True,4.0,['p'],False,0.375,0.5,0.25,1.0,2.0,0.9850568223215076,0.0970212738436905,unsucc_cost,1.0,2.0,130.02937699999893,,or1,1,2022-04-29_14h28.47.259,threat_forest,2021.2.3,60.12621695150609,True,59.0,0.3611111111111111,0.4186507936507936,-1.1404320987654322,-1.1722568657092467,1,0,1.0,-0.1089922134007638,0.0970212738436905,0.375,0.375,0.5,0.25,0.25,0.25,4.25,4.25,0.0,2.0,-1.0,4.0,0,1,0,1,0.0970212738436905,0.5587173304399229,0.24655227510600894,-0.222565736454404,0.6047342661399505,0.23903073349612597,-0.17029529291661072,0.45602395488919756,0.2480661074564127,-0.21318465347038462,0.5025377263008225,0.2499935599452221,-0.2449714372561953,0.5351936860064566,0.24876140446527895,-0.24782440071115674,0.5665942113653147,0.24556521101263182,-0.2159700133647941,0.54722651168475,0.24776965659409017,-0.19520578910056896,0.5451074994913091,0.24796531348964157,-0.18233613051261732,0.6043942355465707,0.23910184358464712,-0.24711744641378308,0.6265050254416807,0.23399647853799965,-0.1314504899493837,0.8627258833510159,0.11842993354722527,-0.26097338306794604
4.0,0.0,4.0,0.0,2.0,0.0,2.0,0.0,,,,right,0.6842215999931796,138.77240760000132,or1,128.01531770000292,130.02937699999893,138.77240760000132,,True,2.0,['p'],False,0.375,0.5,0.25,1.0,2.0,0.9850568223215076,0.0630958301935729,unsucc_cost,1.0,0.0,135.45768459999815,,or1,1,2022-04-29_14h28.47.259,threat_forest,2021.2.3,60.12621695150609,True,59.0,0.3611111111111111,0.4186507936507936,-1.1404320987654322,-1.1722568657092467,1,0,1.0,-0.3794734372304568,0.0630958301935729,0.375,0.375,0.5,0.25,0.25,0.25,2.25,2.25,0.0,2.0,-1.0,2.0,0,1,0,1,0.0630958301935729,0.5587173304399229,0.24655227510600894,-0.222565736454404,0.6047342661399505,0.23903073349612597,-0.17029529291661072,0.45602395488919756,0.2480661074564127,-0.21318465347038462,0.5025377263008225,0.2499935599452221,-0.2449714372561953,0.5351936860064566,0.24876140446527895,-0.24782440071115674,0.5665942113653147,0.24556521101263182,-0.2159700133647941,0.54722651168475,0.24776965659409017,-0.19520578910056896,0.5451074994913091,0.24796531348964157,-0.18233613051261732,0.6043942355465707,0.23910184358464712,-0.24711744641378308,0.6265050254416807,0.23399647853799965,-0.1314504899493837,0.7410438150521961,0.19189787922508275,-0.18767089318766178
5.0,0.0,5.0,0.0,0.0,0.0,0.0,0.0,142.95567969999684,146.45033140000305,,right,0.7445169999991776,149.7559215999936,or1,142.95567969999684,146.45033140000305,149.7559215999936,,True,4.0,['r'],False,0.4081632653061224,0.5714285714285714,0.2857142857142857,2.0,2.0,0.9885754083994552,0.0102904310319958,unsucc_cost,1.0,2.0,,,or1,1,2022-04-29_14h28.47.259,threat_forest,2021.2.3,60.12621695150609,True,14.0,0.5357142857142857,0.4484126984126984,-0.326530612244898,-0.7334813555051651,1,0,1.0,-0.2950195930030154,0.0102904310319958,0.4081632653061224,0.4081632653061224,0.5714285714285714,0.2857142857142857,0.4285714285714285,0.346938775510204,4.346938775510204,4.346938775510204,0.0,2.0,-1.0,4.0,0,1,0,1,0.0102904310319958,0.5587173304399229,0.24655227510600894,-0.222565736454404,0.6047342661399505,0.23903073349612597,-0.17029529291661072,0.45602395488919756,0.2480661074564127,-0.21318465347038462,0.5025377263008225,0.2499935599452221,-0.2449714372561953,0.54747746872038,0.24774588996390529,-0.23616453470675713,0.6366744537089246,0.23132009370336704,-0.21794823624376158,0.5712222187889882,0.24492739555077353,-0.2082051666439939,0.5801882191155167,0.24356984951508193,-0.19367954843542323,0.6043942355465707,0.23910184358464712,-0.24711744641378308,0.6923336023168837,0.21300778541981083,-0.1547452821346747,0.4568244271500343,0.24813586990907727,-0.13155955503922792
5.0,0.0,5.0,0.0,1.0,0.0,1.0,0.0,,,,left,0.6743556000001263,155.92901279999933,or1,155.92901279999933,,150.52749170000607,152.54175760000362,True,2.0,['r'],True,0.5,0.5,0.0,0.0,2.0,0.6309297535714574,0.0536521501003592,unsucc_cost,0.0,0.0,152.54175760000362,,or1,1,2022-04-29_14h28.47.259,threat_forest,2021.2.3,60.12621695150609,True,14.0,0.5357142857142857,0.4484126984126984,-0.326530612244898,-0.7334813555051651,1,1,1.0,-0.3939977107605407,0.0536521501003592,0.5,0.5,0.5,0.0,1.0,1.0,3.0,3.0,1.0,2.0,-1.0,2.0,0,1,1,1,0.0536521501003592,0.5587173304399229,0.24655227510600894,-0.222565736454404,0.6047342661399505,0.23903073349612597,-0.17029529291661072,0.45602395488919756,0.2480661074564127,-0.21318465347038462,0.5333336288965432,0.24888886918458755,-0.18433110432229505,0.4488488494605368,0.2473835597984892,-0.23200435661733643,0.5665942113653147,0.24556521101263182,-0.2159700133647941,0.6452945793312079,0.22888948521696734,-0.2815562235171736,0.6722778172202519,0.22032035369382552,-0.253679755267163,0.6043942355465707,0.23910184358464712,-0.24711744641378308,0.8354355282683443,0.13748300637533672,-0.23856822541056663,0.6968634300520796,0.21124478990813,-0.16836755332326347
6.0,0.0,6.0,0.0,0.0,0.0,0.0,0.0,160.83475300000282,164.3353677999985,,right,0.924413499989896,167.08728690000137,or1,160.83475300000282,164.3353677999985,167.08728690000137,,True,5.0,['p'],False,0.4444444444444445,0.6666666666666666,0.3333333333333333,1.0,2.0,0.9656336071428248,0.0253010211857948,succ_gain,1.0,6.0,,,or1,1,2022-04-29_14h28.47.259,threat_forest,2021.2.3,60.12621695150609,True,25.0,0.4444444444444444,0.490079365079365,-0.8333333333333334,-0.5799319727891157,1,0,1.0,-0.0785957966319767,0.0253010211857948,0.4444444444444445,0.4444444444444445,0.6666666666666666,0.3333333333333333,0.6666666666666665,0.4444444444444444,5.444444444444445,5.444444444444445,0.0,2.0,-1.0,5.0,0,1,0,1,0.0253010211857948,0.5587173304399229,0.24655227510600894,-0.222565736454404,0.6047342661399505,0.23903073349612597,-0.17029529291661072,0.45602395488919756,0.2480661074564127,-0.21318465347038462,0.5025377263008225,0.2499935599452221,-0.2449714372561953,0.5637637996826763,0.24593417785002747,-0.21536294058103111,0.7214394336750121,0.20096457721368993,-0.22216371414535094,0.6026847995731145,0.23945583193662937,-0.23322993392931268,0.6176485542611019,0.23615881768027258,-0.2128052725519275,0.6043942355465707,0.23910184358464712,-0.24711744641378308,0.7562951122387295,0.18431281544253705,-0.18659306601620107,0.5436276751833151,0.24809662595809917,-0.13159871060963205
6.0,0.0,6.0,0.0,1.0,0.0,1.0,0.0,,,,left,1.4693463000003248,171.6930013999954,or1,160.83475300000282,164.3353677999985,171.6930013999954,,False,6.0,['p'],False,0.4444444444444445,0.6666666666666666,0.3333333333333333,1.0,2.0,0.9656336071428248,-0.0736168267032464,wait_cost,1.0,5.0,170.05869330000132,,or1,1,2022-04-29_14h28.47.259,threat_forest,2021.2.3,60.12621695150609,False,25.0,0.4444444444444444,0.490079365079365,-0.8333333333333334,-0.5799319727891157,1,0,0.0,0.3848176080076697,-0.0736168267032464,0.4444444444444445,0.4444444444444445,0.6666666666666666,0.3333333333333333,0.6666666666666665,0.4444444444444444,6.444444444444445,6.444444444444445,0.0,2.0,1.0,6.0,0,1,0,1,-0.0736168267032464,0.32307577588773617,0.21869781892227344,-0.20457641378891506,0.6047342661399505,0.23903073349612597,-0.17029529291661072,0.45602395488919756,0.2480661074564127,-0.21318465347038462,0.5025377263008225,0.2499935599452221,-0.2449714372561953,0.5637637996826763,0.24593417785002747,-0.21536294058103111,0.7214394336750121,0.20096457721368993,-0.22216371414535094,0.6026847995731145,0.23945583193662937,-0.23322993392931268,0.6176485542611019,0.23615881768027258,-0.2128052725519275,0.6043942355465707,0.23910184358464712,-0.24711744641378308,0.7562951122387295,0.18431281544253705,-0.18659306601620107,0.10727274832881212,0.09576530579479547,-0.2835869682326612
6.0,0.0,6.0,0.0,2.0,0.0,2.0,0.0,,,,right,0.9338312999898336,177.53877480000665,or1,160.83475300000282,164.3353677999985,177.53877480000665,,True,5.0,['p'],False,0.4444444444444445,0.6666666666666666,0.3333333333333333,1.0,2.0,0.9656336071428248,0.0565843621399177,succ_gain,1.0,6.0,175.20377259999805,,or1,1,2022-04-29_14h28.47.259,threat_forest,2021.2.3,60.12621695150609,True,25.0,0.4444444444444444,0.490079365079365,-0.8333333333333334,-0.5799319727891157,1,0,1.0,-0.0684594780631264,0.0565843621399177,0.4444444444444445,0.4444444444444445,0.6666666666666666,0.3333333333333333,0.6666666666666665,0.4444444444444444,5.444444444444445,5.444444444444445,0.0,2.0,-1.0,5.0,0,1,0,1,0.0565843621399177,0.5587173304399229,0.24655227510600894,-0.222565736454404,0.6047342661399505,0.23903073349612597,-0.17029529291661072,0.45602395488919756,0.2480661074564127,-0.21318465347038462,0.5025377263008225,0.2499935599452221,-0.2449714372561953,0.5637637996826763,0.24593417785002747,-0.21536294058103111,0.7214394336750121,0.20096457721368993,-0.22216371414535094,0.6026847995731145,0.23945583193662937,-0.23322993392931268,0.6176485542611019,0.23615881768027258,-0.2128052725519275,0.6043942355465707,0.23910184358464712,-0.24711744641378308,0.7562951122387295,0.18431281544253705,-0.18659306601620107,0.7110322608568689,0.2054653848776384,-0.1741339426628984
6.0,0.0,6.0,0.0,3.0,0.0,3.0,0.0,,,,right,1.392617199991946,181.1985112999973,or1,181.1985112999973,,178.50123530000565,180.51558819999627,False,6.0,['p'],True,0.2222222222222222,0.2222222222222222,0.0,0.0,2.0,0.4821593609696809,-0.324074074074074,wait_cost,0.0,5.0,180.51558819999627,,or1,1,2022-04-29_14h28.47.259,threat_forest,2021.2.3,60.12621695150609,False,25.0,0.4444444444444444,0.490079365079365,-0.8333333333333334,-0.5799319727891157,0,0,0.0,0.331184854442386,-0.324074074074074,0.0,0.2222222222222222,0.2222222222222222,0.0,-0.1111111111111111,-0.1111111111111111,5.888888888888889,5.888888888888889,1.0,2.0,1.0,6.0,0,0,0,0,-0.84,0.32307577588773617,0.21869781892227344,-0.20457641378891506,1.05761655505591e-06,1.0576154365031333e-06,-0.5000320016568474,0.45602395488919756,0.2480661074564127,-0.21318465347038462,0.5333336288965432,0.24888886918458755,-0.18433110432229505,0.4488488494605368,0.2473835597984892,-0.23200435661733643,0.29495522778710825,0.20795664138816336,-0.22119272450582328,0.4981424433678863,0.2499965494833585,-0.18502086203891266,0.38316764972426337,0.23635020192904763,-0.21231136530339523,0.4181805801384378,0.24330558253351736,-0.18747674873034859,0.05705763324957651,0.05380205973753334,-0.33144348214138064,0.0003607726910859679,0.00036064253415133465,-0.37877677242100727
6.0,0.0,6.0,0.0,4.0,0.0,4.0,0.0,,,,left,0.6123618999990867,185.703350900003,or1,182.6142384999985,184.6281904999924,185.703350900003,,False,5.0,['p'],False,0.4444444444444445,0.6666666666666666,0.3333333333333333,1.0,2.0,0.9656336071428248,-0.3148148148148148,wait_cost,1.0,4.0,184.6281904999924,,or1,1,2022-04-29_14h28.47.259,threat_forest,2021.2.3,60.12621695150609,False,25.0,0.4444444444444444,0.490079365079365,-0.8333333333333334,-0.5799319727891157,1,0,0.0,-0.4904318313745452,-0.3148148148148148,0.0,0.4444444444444445,0.6666666666666666,0.3333333333333333,0.6666666666666665,0.4444444444444444,5.444444444444445,5.444444444444445,0.0,2.0,-1.0,5.0,0,0,0,1,-0.84,0.5587173304399229,0.24655227510600894,-0.222565736454404,1.05761655505591e-06,1.0576154365031333e-06,-0.5000320016568474,0.45602395488919756,0.2480661074564127,-0.21318465347038462,0.5025377263008225,0.2499935599452221,-0.2449714372561953,0.5637637996826763,0.24593417785002747,-0.21536294058103111,0.7214394336750121,0.20096457721368993,-0.22216371414535094,0.6026847995731145,0.23945583193662937,-0.23322993392931268,0.6176485542611019,0.23615881768027258,-0.2128052725519275,0.6043942355465707,0.23910184358464712,-0.24711744641378308,0.05705763324957651,0.05380205973753334,-0.33144348214138064,0.00044714364841257233,0.0004469437109702568,-0.3786906656014677
6.0,0.0,6.0,0.0,5.0,0.0,5.0,0.0,,,,right,0.4794982000021264,191.1016144000023,or1,191.1016144000023,,186.3436159999983,188.35821000000576,False,4.0,['p'],True,0.2222222222222222,0.2222222222222222,0.0,0.0,2.0,0.4821593609696809,-0.4753086419753087,wait_cost,0.0,3.0,188.35821000000576,,or1,1,2022-04-29_14h28.47.259,threat_forest,2021.2.3,60.12621695150609,False,25.0,0.4444444444444444,0.490079365079365,-0.8333333333333334,-0.5799319727891157,0,0,0.0,-0.7350151385715787,-0.4753086419753087,0.0,0.2222222222222222,0.2222222222222222,0.0,-0.1111111111111111,-0.1111111111111111,3.888888888888889,3.888888888888889,1.0,2.0,-1.0,4.0,0,0,0,0,-0.84,0.5587173304399229,0.24655227510600894,-0.222565736454404,1.05761655505591e-06,1.0576154365031333e-06,-0.5000320016568474,0.45602395488919756,0.2480661074564127,-0.21318465347038462,0.5333336288965432,0.24888886918458755,-0.18433110432229505,0.4488488494605368,0.2473835597984892,-0.23200435661733643,0.29495522778710825,0.20795664138816336,-0.22119272450582328,0.4981424433678863,0.2499965494833585,-0.18502086203891266,0.38316764972426337,0.23635020192904763,-0.21231136530339523,0.4181805801384378,0.24330558253351736,-0.18747674873034859,0.05705763324957651,0.05380205973753334,-0.33144348214138064,1.0821489667151823e-05,1.0821372562513213e-05,-0.3791258057568475
6.0,0.0,6.0,0.0,6.0,0.0,6.0,0.0,,,,left,0.5234787999943364,195.3156924000068,or1,191.60596709999663,193.6198371000064,195.3156924000068,,False,3.0,['p'],False,0.4444444444444445,0.6666666666666666,0.3333333333333333,1.0,2.0,0.9656336071428248,-0.4814814814814815,wait_cost,1.0,2.0,193.6198371000064,,or1,1,2022-04-29_14h28.47.259,threat_forest,2021.2.3,60.12621695150609,False,25.0,0.4444444444444444,0.490079365079365,-0.8333333333333334,-0.5799319727891157,1,0,0.0,-0.6472587461594919,-0.4814814814814815,0.0,0.4444444444444445,0.6666666666666666,0.3333333333333333,0.6666666666666665,0.4444444444444444,3.4444444444444446,3.4444444444444446,0.0,2.0,-1.0,3.0,0,0,0,1,-0.84,0.5587173304399229,0.24655227510600894,-0.222565736454404,1.05761655505591e-06,1.0576154365031333e-06,-0.5000320016568474,0.45602395488919756,0.2480661074564127,-0.21318465347038462,0.5025377263008225,0.2499935599452221,-0.2449714372561953,0.5637637996826763,0.24593417785002747,-0.21536294058103111,0.7214394336750121,0.20096457721368993,-0.22216371414535094,0.6026847995731145,0.23945583193662937,-0.23322993392931268,0.6176485542611019,0.23615881768027258,-0.2128052725519275,0.6043942355465707,0.23910184358464712,-0.24711744641378308,0.05705763324957651,0.05380205973753334,-0.33144348214138064,9.378219329570558e-06,9.37813137857277e-06,-0.37912724574773476
6.0,0.0,6.0,0.0,7.0,0.0,7.0,0.0,,,,left,0.6142972999950871,200.81451870000456,or1,191.60596709999663,193.6198371000064,200.81451870000456,,False,2.0,['p'],False,0.4444444444444445,0.6666666666666666,0.3333333333333333,1.0,2.0,0.9656336071428248,-0.5555555555555556,wait_cost,1.0,1.0,197.88249489999723,,or1,1,2022-04-29_14h28.47.259,threat_forest,2021.2.3,60.12621695150609,False,25.0,0.4444444444444444,0.490079365079365,-0.8333333333333334,-0.5799319727891157,1,0,0.0,-0.4872762660765342,-0.5555555555555556,0.0,0.4444444444444445,0.6666666666666666,0.3333333333333333,0.6666666666666665,0.4444444444444444,2.4444444444444446,2.4444444444444446,0.0,2.0,-1.0,2.0,0,0,0,1,-0.84,0.5587173304399229,0.24655227510600894,-0.222565736454404,1.05761655505591e-06,1.0576154365031333e-06,-0.5000320016568474,0.45602395488919756,0.2480661074564127,-0.21318465347038462,0.5025377263008225,0.2499935599452221,-0.2449714372561953,0.5637637996826763,0.24593417785002747,-0.21536294058103111,0.7214394336750121,0.20096457721368993,-0.22216371414535094,0.6026847995731145,0.23945583193662937,-0.23322993392931268,0.6176485542611019,0.23615881768027258,-0.2128052725519275,0.6043942355465707,0.23910184358464712,-0.24711744641378308,0.05705763324957651,0.05380205973753334,-0.33144348214138064,1.6831244991620311e-06,1.6831216662539528e-06,-0.3791349234276585
7.0,0.0,7.0,0.0,0.0,0.0,0.0,0.0,205.29875669999456,208.7921508,,left,0.8267261000000872,210.6844677000045,or1,205.29875669999456,208.7921508,210.6844677000045,,False,4.0,['p'],False,0.2040816326530612,0.2857142857142857,0.2857142857142857,2.0,2.0,0.9335459102197724,-0.0053173066993206,wait_cost,1.0,3.0,,,or1,1,2022-04-29_14h28.47.259,threat_forest,2021.2.3,60.12621695150609,False,21.0,0.4761904761904761,0.4603174603174603,-1.012471655328798,-0.9229024943310656,0,0,0.0,-0.1902818359141563,-0.0053173066993206,0.2040816326530612,0.2040816326530612,0.2857142857142857,0.2857142857142857,-0.7142857142857144,-0.4693877551020406,3.5306122448979598,3.5306122448979598,0.0,2.0,-1.0,4.0,0,1,0,0,-0.0053173066993206,0.5587173304399229,0.24655227510600894,-0.222565736454404,0.6047342661399505,0.23903073349612597,-0.17029529291661072,0.45602395488919756,0.2480661074564127,-0.21318465347038462,0.5025377263008225,0.2499935599452221,-0.2449714372561953,0.54747746872038,0.24774588996390529,-0.23616453470675713,0.35183067912050575,0.22804585235010952,-0.21840293093076585,0.41670366624482097,0.2430617207829458,-0.21673802492499594,0.36490412907313424,0.23174910565851162,-0.22418546055291477,0.4181805801384378,0.24330558253351736,-0.18747674873034859,0.2695423523898356,0.19688927265798928,-0.1726347906909366,0.36933513268836365,0.23292669245043246,-0.14673448019146026
7.0,0.0,7.0,0.0,1.0,0.0,1.0,0.0,,,,left,0.6545926999970106,215.00535579999269,or1,205.29875669999456,208.7921508,215.00535579999269,,False,3.0,['p'],False,0.2040816326530612,0.2857142857142857,0.2857142857142857,2.0,2.0,0.9335459102197724,-0.0017432505178245,wait_cost,1.0,2.0,213.55138879999868,,or1,1,2022-04-29_14h28.47.259,threat_forest,2021.2.3,60.12621695150609,False,21.0,0.4761904761904761,0.4603174603174603,-1.012471655328798,-0.9229024943310656,0,0,0.0,-0.423742068830263,-0.0017432505178245,0.2040816326530612,0.2040816326530612,0.2857142857142857,0.2857142857142857,-0.7142857142857144,-0.4693877551020406,2.5306122448979598,2.5306122448979598,0.0,2.0,-1.0,3.0,0,1,0,0,-0.0017432505178245,0.5587173304399229,0.24655227510600894,-0.222565736454404,0.6047342661399505,0.23903073349612597,-0.17029529291661072,0.45602395488919756,0.2480661074564127,-0.21318465347038462,0.5025377263008225,0.2499935599452221,-0.2449714372561953,0.54747746872038,0.24774588996390529,-0.23616453470675713,0.35183067912050575,0.22804585235010952,-0.21840293093076585,0.41670366624482097,0.2430617207829458,-0.21673802492499594,0.36490412907313424,0.23174910565851162,-0.22418546055291477,0.4181805801384378,0.24330558253351736,-0.18747674873034859,0.2695423523898356,0.19688927265798928,-0.1726347906909366,0.3888403567750674,0.23764353371810568,-0.14202826163450488
7.0,0.0,7.0,0.0,2.0,0.0,2.0,0.0,,,,left,1.0258392999967327,220.65263769999729,or1,220.65263769999729,,215.68329390000144,217.6975364999962,True,2.0,['p'],True,0.4444444444444445,0.6666666666666666,0.3333333333333333,1.0,2.0,0.9656336071428248,0.0826028463262662,figh_cost,0.0,0.0,217.6975364999962,,or1,1,2022-04-29_14h28.47.259,threat_forest,2021.2.3,60.12621695150609,True,21.0,0.4761904761904761,0.4603174603174603,-1.012471655328798,-0.9229024943310656,1,0,1.0,0.0255111067976848,0.0826028463262662,0.4444444444444445,0.4444444444444445,0.6666666666666666,0.3333333333333333,0.6666666666666665,0.4444444444444444,2.4444444444444446,2.4444444444444446,1.0,2.0,-1.0,2.0,0,1,0,1,0.0826028463262662,0.5587173304399229,0.24655227510600894,-0.222565736454404,0.6047342661399505,0.23903073349612597,-0.17029529291661072,0.45602395488919756,0.2480661074564127,-0.21318465347038462,0.5333336288965432,0.24888886918458755,-0.18433110432229505,0.5637637996826763,0.24593417785002747,-0.21536294058103111,0.7214394336750121,0.20096457721368993,-0.22216371414535094,0.6026847995731145,0.23945583193662937,-0.23322993392931268,0.6176485542611019,0.23615881768027258,-0.2128052725519275,0.6043942355465707,0.23910184358464712,-0.24711744641378308,0.7562951122387295,0.18431281544253705,-0.18659306601620107,0.8181346177089404,0.14879036501518644,-0.2306813257644841
8.0,0.0,8.0,0.0,0.0,0.0,0.0,0.0,226.92193379999665,230.43564979999792,,right,1.1984711999975843,231.74486399999296,or1,226.92193379999665,230.43564979999792,231.74486399999296,,True,4.0,['r'],False,0.36,0.6,0.4,2.0,1.0,0.9801625908629508,0.0090639294214999,succ_gain,1.0,5.0,,,or1,1,2022-04-29_14h28.47.259,threat_forest,2021.2.3,60.12621695150609,True,24.0,0.55,0.513095238095238,-0.91,-0.9612358276643992,0,0,1.0,0.1810467445640134,0.0090639294214999,0.36,0.36,0.6,0.4,-0.4000000000000003,-0.3200000000000003,3.68,3.68,0.0,1.0,-1.0,4.0,0,1,0,0,0.0090639294214999,0.5587173304399229,0.24655227510600894,-0.222565736454404,0.6047342661399505,0.23903073349612597,-0.17029529291661072,0.45602395488919756,0.2480661074564127,-0.21318465347038462,0.5025377263008225,0.2499935599452221,-0.2449714372561953,0.5863281074969497,0.2425474578559951,-0.17647752705771413,0.6633268602434419,0.22332433672301916,-0.2190586089454943,0.45885546374993935,0.2483071271367674,-0.19274761147499175,0.5290701455626104,0.2491549266369686,-0.17926608394308619,0.4181805801384378,0.24330558253351736,-0.18747674873034859,0.5949253162988564,0.24098918432556207,-0.12368947180419082,0.44977606698310074,0.24747755655231402,-0.13221638582069264
8.0,0.0,8.0,0.0,1.0,0.0,1.0,0.0,,,,left,0.7579887000028975,235.6699541999988,or1,226.92193379999665,230.43564979999792,235.6699541999988,,False,5.0,['r'],False,0.36,0.6,0.4,2.0,1.0,0.9801625908629508,-0.0140858486999999,wait_cost,1.0,4.0,234.9814452999999,,or1,1,2022-04-29_14h28.47.259,threat_forest,2021.2.3,60.12621695150609,False,24.0,0.55,0.513095238095238,-0.91,-0.9612358276643992,0,0,0.0,-0.2770868010987779,-0.0140858486999999,0.36,0.36,0.6,0.4,-0.4000000000000003,-0.3200000000000003,4.68,4.68,0.0,1.0,1.0,5.0,0,1,0,0,-0.0140858486999999,0.32307577588773617,0.21869781892227344,-0.20457641378891506,0.6047342661399505,0.23903073349612597,-0.17029529291661072,0.45602395488919756,0.2480661074564127,-0.21318465347038462,0.5025377263008225,0.2499935599452221,-0.2449714372561953,0.5863281074969497,0.2425474578559951,-0.17647752705771413,0.6633268602434419,0.22332433672301916,-0.2190586089454943,0.45885546374993935,0.2483071271367674,-0.19274761147499175,0.5290701455626104,0.2491549266369686,-0.17926608394308619,0.4181805801384378,0.24330558253351736,-0.18747674873034859,0.5949253162988564,0.24098918432556207,-0.12368947180419082,0.32335218218050604,0.21879554845961086,-0.16083379969504394
8.0,0.0,8.0,0.0,2.0,0.0,2.0,0.0,,,,left,0.711148400005186,241.3812752999948,or1,226.92193379999665,230.43564979999792,241.3812752999948,,False,4.0,['r'],False,0.36,0.6,0.4,2.0,1.0,0.9801625908629508,-0.001790475,wait_cost,1.0,3.0,238.46155279999948,,or1,1,2022-04-29_14h28.47.259,threat_forest,2021.2.3,60.12621695150609,False,24.0,0.55,0.513095238095238,-0.91,-0.9612358276643992,0,0,0.0,-0.3408741508380984,-0.001790475,0.36,0.36,0.6,0.4,-0.4000000000000003,-0.3200000000000003,3.68,3.68,0.0,1.0,-1.0,4.0,0,1,0,0,-0.001790475,0.5587173304399229,0.24655227510600894,-0.222565736454404,0.6047342661399505,0.23903073349612597,-0.17029529291661072,0.45602395488919756,0.2480661074564127,-0.21318465347038462,0.5025377263008225,0.2499935599452221,-0.2449714372561953,0.5863281074969497,0.2425474578559951,-0.17647752705771413,0.6633268602434419,0.22332433672301916,-0.2190586089454943,0.45885546374993935,0.2483071271367674,-0.19274761147499175,0.5290701455626104,0.2491549266369686,-0.17926608394308619,0.4181805801384378,0.24330558253351736,-0.18747674873034859,0.5949253162988564,0.24098918432556207,-0.12368947180419082,0.38858014140771885,0.23758561511127613,-0.14208604980391443
8.0,0.0,8.0,0.0,3.0,0.0,3.0,0.0,,,,left,0.7506483000033768,245.6497799999925,or1,245.6497799999925,,242.1251684000017,244.13945560000136,True,3.0,['r'],True,0.5,0.5,0.0,0.0,1.0,0.6309297535714574,0.1769,unsucc_cost,0.0,1.0,244.13945560000136,,or1,1,2022-04-29_14h28.47.259,threat_forest,2021.2.3,60.12621695150609,True,24.0,0.55,0.513095238095238,-0.91,-0.9612358276643992,1,0,1.0,-0.2868180458258123,0.1769,0.5,0.5,0.5,0.0,0.5,0.5,3.5,3.5,1.0,1.0,-1.0,3.0,0,1,0,1,0.1769,0.5587173304399229,0.24655227510600894,-0.222565736454404,0.6047342661399505,0.23903073349612597,-0.17029529291661072,0.45602395488919756,0.2480661074564127,-0.21318465347038462,0.5333336288965432,0.24888886918458755,-0.18433110432229505,0.4488488494605368,0.2473835597984892,-0.23200435661733643,0.5665942113653147,0.24556521101263182,-0.2159700133647941,0.5807339341834823,0.24348203187125714,-0.21481568829251296,0.6722778172202519,0.22032035369382552,-0.253679755267163,0.6043942355465707,0.23910184358464712,-0.24711744641378308,0.8354355282683443,0.13748300637533672,-0.23856822541056663,0.975647582591686,0.023759377174685136,-0.35543073363669253
8.0,0.0,8.0,0.0,4.0,0.0,4.0,0.0,,,,left,0.5973629000072833,250.6694912999956,or1,250.6694912999956,,242.1251684000017,244.13945560000136,True,1.0,['r'],True,0.5,0.5,0.0,0.0,1.0,0.6309297535714574,0.2324999999999999,unsucc_cost,0.0,0.0,248.4355510000023,,or1,1,2022-04-29_14h28.47.259,threat_forest,2021.2.3,60.12621695150609,True,24.0,0.55,0.513095238095238,-0.91,-0.9612358276643992,1,0,1.0,-0.5152304775602955,0.2324999999999999,1.0,0.5,0.5,0.0,0.5,0.5,1.5,1.5,1.0,1.0,-1.0,1.0,1,1,0,1,0.625,0.5587173304399229,0.24655227510600894,-0.222565736454404,0.6047342661399505,0.23903073349612597,-0.17029529291661072,0.9749981104217976,0.024376795095721864,-0.2615337543101996,0.5333336288965432,0.24888886918458755,-0.18433110432229505,0.4488488494605368,0.2473835597984892,-0.23200435661733643,0.5665942113653147,0.24556521101263182,-0.2159700133647941,0.5807339341834823,0.24348203187125714,-0.21481568829251296,0.6722778172202519,0.22032035369382552,-0.253679755267163,0.6043942355465707,0.23910184358464712,-0.24711744641378308,0.9976576250802031,0.0023368881995319457,-0.3885633070398234,0.9931715808547207,0.006781791837255662,-0.3723700840691311
9.0,0.0,9.0,0.0,0.0,0.0,0.0,0.0,254.2653594000003,257.7678581999935,,left,0.924187199998414,260.08592399999907,or1,260.08592399999907,,254.2653594000003,257.7678581999935,True,5.0,['p'],True,0.4444444444444445,0.6666666666666666,0.3333333333333333,1.0,1.0,0.9656336071428248,0.0498748920388152,succ_gain,0.0,6.0,,,or1,1,2022-04-29_14h28.47.259,threat_forest,2021.2.3,60.12621695150609,True,56.0,0.4444444444444444,0.4972222222222222,-1.1666666666666667,-1.0383333333333336,1,0,1.0,-0.0788406304596538,0.0498748920388152,0.4444444444444445,0.4444444444444445,0.6666666666666666,0.3333333333333333,0.0,0.0,5.0,5.0,1.0,1.0,-1.0,5.0,0,1,0,1,0.0498748920388152,0.5587173304399229,0.24655227510600894,-0.222565736454404,0.6047342661399505,0.23903073349612597,-0.17029529291661072,0.45602395488919756,0.2480661074564127,-0.21318465347038462,0.5333336288965432,0.24888886918458755,-0.18433110432229505,0.5637637996826763,0.24593417785002747,-0.21536294058103111,0.7214394336750121,0.20096457721368993,-0.22216371414535094,0.5132855453967211,0.24982349428351167,-0.18581234805809843,0.6176485542611019,0.23615881768027258,-0.2128052725519275,0.6043942355465707,0.23910184358464712,-0.24711744641378308,0.7562951122387295,0.18431281544253705,-0.18659306601620107,0.678047438254512,0.21829910973100575,-0.1613291204031977
9.0,0.0,9.0,0.0,1.0,0.0,1.0,0.0,,,,left,0.6030503000074532,266.59963169999537,or1,261.0407678000047,263.05525900000066,266.59963169999537,,False,6.0,['p'],False,0.2222222222222222,0.2222222222222222,0.0,0.0,1.0,0.4821593609696809,-0.1595634557740182,wait_cost,1.0,5.0,263.05525900000066,,or1,1,2022-04-29_14h28.47.259,threat_forest,2021.2.3,60.12621695150609,False,56.0,0.4444444444444444,0.4972222222222222,-1.1666666666666667,-1.0383333333333336,0,0,0.0,-0.5057546694694616,-0.1595634557740182,0.2222222222222222,0.2222222222222222,0.2222222222222222,0.0,-0.3333333333333335,-0.3333333333333335,5.666666666666666,5.666666666666666,0.0,1.0,1.0,6.0,0,1,0,0,-0.1595634557740182,0.32307577588773617,0.21869781892227344,-0.20457641378891506,0.6047342661399505,0.23903073349612597,-0.17029529291661072,0.45602395488919756,0.2480661074564127,-0.21318465347038462,0.5025377263008225,0.2499935599452221,-0.2449714372561953,0.4488488494605368,0.2473835597984892,-0.23200435661733643,0.29495522778710825,0.20795664138816336,-0.22119272450582328,0.46789419272714156,0.24896921713935807,-0.18971947374230824,0.38316764972426337,0.23635020192904763,-0.21231136530339523,0.4181805801384378,0.24330558253351736,-0.18747674873034859,0.30232836502109545,0.21092592472476673,-0.15705588394188064,0.016111621793023775,0.01585203743622234,-0.3633202654020177
9.0,0.0,9.0,0.0,2.0,0.0,2.0,0.0,,,,left,0.5584965000016382,270.10493089999363,or1,261.0407678000047,263.05525900000066,270.10493089999363,,False,5.0,['p'],False,0.2222222222222222,0.2222222222222222,0.0,0.0,1.0,0.4821593609696809,-0.0638431641518062,wait_cost,1.0,4.0,269.2326984999964,,or1,1,2022-04-29_14h28.47.259,threat_forest,2021.2.3,60.12621695150609,False,56.0,0.4444444444444444,0.4972222222222222,-1.1666666666666667,-1.0383333333333336,0,0,0.0,-0.5825069272756188,-0.0638431641518062,0.2222222222222222,0.2222222222222222,0.2222222222222222,0.0,-0.3333333333333335,-0.3333333333333335,4.666666666666666,4.666666666666666,0.0,1.0,-1.0,5.0,0,1,0,0,-0.0638431641518062,0.5587173304399229,0.24655227510600894,-0.222565736454404,0.6047342661399505,0.23903073349612597,-0.17029529291661072,0.45602395488919756,0.2480661074564127,-0.21318465347038462,0.5025377263008225,0.2499935599452221,-0.2449714372561953,0.4488488494605368,0.2473835597984892,-0.23200435661733643,0.29495522778710825,0.20795664138816336,-0.22119272450582328,0.46789419272714156,0.24896921713935807,-0.18971947374230824,0.38316764972426337,0.23635020192904763,-0.21231136530339523,0.4181805801384378,0.24330558253351736,-0.18747674873034859,0.30232836502109545,0.21092592472476673,-0.15705588394188064,0.13098706185981726,0.11382945148514967,-0.2655635044697122
9.0,0.0,9.0,0.0,3.0,0.0,3.0,0.0,,,,left,1.1133754000038607,274.3364520000032,or1,274.3364520000032,,270.6819910000049,272.69617090000247,True,4.0,['p'],True,0.4444444444444445,0.6666666666666666,0.3333333333333333,1.0,1.0,0.9656336071428248,0.095679012345679,unsucc_cost,0.0,2.0,272.69617090000247,,or1,1,2022-04-29_14h28.47.259,threat_forest,2021.2.3,60.12621695150609,True,56.0,0.4444444444444444,0.4972222222222222,-1.1666666666666667,-1.0383333333333336,1,0,1.0,0.107396302041291,0.095679012345679,0.4444444444444445,0.4444444444444445,0.6666666666666666,0.3333333333333333,0.0,0.0,4.0,4.0,1.0,1.0,-1.0,4.0,0,1,0,1,0.095679012345679,0.5587173304399229,0.24655227510600894,-0.222565736454404,0.6047342661399505,0.23903073349612597,-0.17029529291661072,0.45602395488919756,0.2480661074564127,-0.21318465347038462,0.5333336288965432,0.24888886918458755,-0.18433110432229505,0.5637637996826763,0.24593417785002747,-0.21536294058103111,0.7214394336750121,0.20096457721368993,-0.22216371414535094,0.5132855453967211,0.24982349428351167,-0.18581234805809843,0.6176485542611019,0.23615881768027258,-0.2128052725519275,0.6043942355465707,0.23910184358464712,-0.24711744641378308,0.7562951122387295,0.18431281544253705,-0.18659306601620107,0.8589977877884324,0.12112058836301166,-0.25828878782595655
9.0,0.0,9.0,0.0,4.0,0.0,4.0,0.0,,,,left,0.6483573000004981,280.9343214999972,or1,275.477456099994,277.49172140000155,280.9343214999972,,False,2.0,['p'],False,0.2222222222222222,0.2222222222222222,0.0,0.0,1.0,0.4821593609696809,-0.0185185185185183,wait_cost,1.0,1.0,277.49172140000155,,or1,1,2022-04-29_14h28.47.259,threat_forest,2021.2.3,60.12621695150609,False,56.0,0.4444444444444444,0.4972222222222222,-1.1666666666666667,-1.0383333333333336,0,0,0.0,-0.4333133456992022,-0.0185185185185183,0.2222222222222222,0.2222222222222222,0.2222222222222222,0.0,-0.3333333333333335,-0.3333333333333335,1.6666666666666663,1.6666666666666663,0.0,1.0,-1.0,2.0,0,1,0,0,-0.0185185185185183,0.5587173304399229,0.24655227510600894,-0.222565736454404,0.6047342661399505,0.23903073349612597,-0.17029529291661072,0.45602395488919756,0.2480661074564127,-0.21318465347038462,0.5025377263008225,0.2499935599452221,-0.2449714372561953,0.4488488494605368,0.2473835597984892,-0.23200435661733643,0.29495522778710825,0.20795664138816336,-0.22119272450582328,0.46789419272714156,0.24896921713935807,-0.18971947374230824,0.38316764972426337,0.23635020192904763,-0.21231136530339523,0.4181805801384378,0.24330558253351736,-0.18747674873034859,0.30232836502109545,0.21092592472476673,-0.15705588394188064,0.3012819955008464,0.21051115468787437,-0.16909953633724908
9.0,0.0,9.0,0.0,5.0,0.0,5.0,0.0,,,,left,0.7568639000091935,284.61024320000433,or1,284.61024320000433,,281.6049037000048,283.61932319999323,True,1.0,['p'],True,0.4444444444444445,0.6666666666666666,0.3333333333333333,1.0,1.0,0.9656336071428248,0.1728395061728395,figh_cost,0.0,0.0,283.61932319999323,,or1,1,2022-04-29_14h28.47.259,threat_forest,2021.2.3,60.12621695150609,True,56.0,0.4444444444444444,0.4972222222222222,-1.1666666666666667,-1.0383333333333336,1,0,1.0,-0.2785718303358223,0.1728395061728395,1.0,0.4444444444444445,0.6666666666666666,0.3333333333333333,0.0,0.0,1.0,1.0,1.0,1.0,-1.0,1.0,1,1,0,1,0.625,0.5587173304399229,0.24655227510600894,-0.222565736454404,0.6047342661399505,0.23903073349612597,-0.17029529291661072,0.9749981104217976,0.024376795095721864,-0.2615337543101996,0.5333336288965432,0.24888886918458755,-0.18433110432229505,0.5637637996826763,0.24593417785002747,-0.21536294058103111,0.7214394336750121,0.20096457721368993,-0.22216371414535094,0.5132855453967211,0.24982349428351167,-0.18581234805809843,0.6176485542611019,0.23615881768027258,-0.2128052725519275,0.6043942355465707,0.23910184358464712,-0.24711744641378308,0.9976576250802031,0.0023368881995319457,-0.3885633070398234,0.9733072865273749,0.025980212520093516,-0.35321489979336734
10.0,0.0,10.0,0.0,0.0,0.0,0.0,0.0,290.6101544999983,294.1146191000007,,left,0.5500069999980042,296.2700205000001,or1,296.2700205000001,,290.6101544999983,294.1146191000007,True,4.0,['r'],True,0.5,0.5,0.0,0.0,1.0,0.6309297535714574,0.0773127614393294,unsucc_cost,0.0,2.0,,,or1,1,2022-04-29_14h28.47.259,threat_forest,2021.2.3,60.12621695150609,True,44.0,0.5357142857142857,0.490079365079365,-0.7806122448979592,-0.9736394557823128,1,1,1.0,-0.597824273567513,0.0773127614393294,0.5,0.5,0.5,0.0,0.5,0.5,4.5,4.5,1.0,1.0,-1.0,4.0,0,1,1,1,0.0773127614393294,0.5587173304399229,0.24655227510600894,-0.222565736454404,0.6047342661399505,0.23903073349612597,-0.17029529291661072,0.45602395488919756,0.2480661074564127,-0.21318465347038462,0.5333336288965432,0.24888886918458755,-0.18433110432229505,0.4488488494605368,0.2473835597984892,-0.23200435661733643,0.5665942113653147,0.24556521101263182,-0.2159700133647941,0.5807339341834823,0.24348203187125714,-0.21481568829251296,0.6722778172202519,0.22032035369382552,-0.253679755267163,0.6043942355465707,0.23910184358464712,-0.24711744641378308,0.8354355282683443,0.13748300637533672,-0.23856822541056663,0.7991652569221539,0.16050014905070165,-0.21899791311636965
10.0,0.0,10.0,0.0,1.0,0.0,1.0,0.0,,,,right,0.9553752999927384,300.3520584999933,or1,296.8407877999998,298.8549856000027,300.3520584999933,,True,2.0,['r'],False,0.4081632653061224,0.5714285714285714,0.2857142857142857,2.0,1.0,0.9885754083994552,0.0212233448176405,unsucc_cost,1.0,0.0,298.8549856000027,,or1,1,2022-04-29_14h28.47.259,threat_forest,2021.2.3,60.12621695150609,True,44.0,0.5357142857142857,0.490079365079365,-0.7806122448979592,-0.9736394557823128,0,0,1.0,-0.0456510314139167,0.0212233448176405,0.4081632653061224,0.4081632653061224,0.5714285714285714,0.2857142857142857,-0.1428571428571428,-0.0612244897959184,1.9387755102040816,1.9387755102040816,0.0,1.0,-1.0,2.0,0,1,0,0,0.0212233448176405,0.5587173304399229,0.24655227510600894,-0.222565736454404,0.6047342661399505,0.23903073349612597,-0.17029529291661072,0.45602395488919756,0.2480661074564127,-0.21318465347038462,0.5025377263008225,0.2499935599452221,-0.2449714372561953,0.54747746872038,0.24774588996390529,-0.23616453470675713,0.6366744537089246,0.23132009370336704,-0.21794823624376158,0.49381525355805417,0.24996174891144884,-0.18518002608686124,0.5801882191155167,0.24356984951508193,-0.19367954843542323,0.4181805801384378,0.24330558253351736,-0.18747674873034859,0.6923336023168837,0.21300778541981083,-0.1547452821346747,0.5200881970486402,0.24959646433933502,-0.1301022499865914
11.0,0.0,11.0,0.0,0.0,0.0,0.0,0.0,304.1996949000022,307.71365140000125,,right,0.6198424000031082,308.3761734,or1,304.1996949000022,307.71365140000125,308.3761734,,True,5.0,['r'],False,0.5,0.5,0.0,0.0,2.0,0.6309297535714574,0.0630973775,unsucc_cost,1.0,3.0,,,or1,1,2022-04-29_14h28.47.259,threat_forest,2021.2.3,60.12621695150609,True,18.0,0.55,0.5428571428571429,-0.4800000000000001,-0.6303061224489797,1,0,1.0,-0.4782900267990283,0.0630973775,0.5,0.5,0.5,0.0,1.0,1.0,6.0,6.0,0.0,2.0,-1.0,5.0,0,1,0,1,0.0630973775,0.5587173304399229,0.24655227510600894,-0.222565736454404,0.6047342661399505,0.23903073349612597,-0.17029529291661072,0.45602395488919756,0.2480661074564127,-0.21318465347038462,0.5025377263008225,0.2499935599452221,-0.2449714372561953,0.4488488494605368,0.2473835597984892,-0.23200435661733643,0.5665942113653147,0.24556521101263182,-0.2159700133647941,0.6452945793312079,0.22888948521696734,-0.2815562235171736,0.6722778172202519,0.22032035369382552,-0.253679755267163,0.6043942355465707,0.23910184358464712,-0.24711744641378308,0.8354355282683443,0.13748300637533672,-0.23856822541056663,0.7410507005507434,0.19189455976399578,-0.18767420517305203
11.0,0.0,11.0,0.0,1.0,0.0,1.0,0.0,,,,left,0.753050200000871,312.8547741999937,or1,312.8547741999937,,309.01253839999845,311.02694789999805,True,3.0,['r'],True,0.36,0.6,0.4,2.0,2.0,0.9801625908629508,0.02233521,succ_gain,0.0,5.0,311.02694789999805,,or1,1,2022-04-29_14h28.47.259,threat_forest,2021.2.3,60.12621695150609,True,18.0,0.55,0.5428571428571429,-0.4800000000000001,-0.6303061224489797,0,0,1.0,-0.2836233867365437,0.02233521,0.36,0.36,0.6,0.4,0.1999999999999997,0.0399999999999998,3.04,3.04,1.0,2.0,-1.0,3.0,0,1,0,0,0.02233521,0.5587173304399229,0.24655227510600894,-0.222565736454404,0.6047342661399505,0.23903073349612597,-0.17029529291661072,0.45602395488919756,0.2480661074564127,-0.21318465347038462,0.5333336288965432,0.24888886918458755,-0.18433110432229505,0.5863281074969497,0.2425474578559951,-0.17647752705771413,0.6633268602434419,0.22332433672301916,-0.2190586089454943,0.5404632215683906,0.24836272770030732,-0.192493316494317,0.5290701455626104,0.2491549266369686,-0.17926608394308619,0.4181805801384378,0.24330558253351736,-0.18747674873034859,0.5949253162988564,0.24098918432556207,-0.12368947180419082,0.5265200228335185,0.24929668838890962,-0.13040135081715992
11.0,0.0,11.0,0.0,2.0,0.0,2.0,0.0,,,,right,1.0201132000074722,316.87575130000187,or1,316.87575130000187,,309.01253839999845,311.02694789999805,False,5.0,['r'],True,0.36,0.6,0.4,2.0,2.0,0.9801625908629508,-0.050683,wait_cost,0.0,4.0,315.63936139999714,,or1,1,2022-04-29_14h28.47.259,threat_forest,2021.2.3,60.12621695150609,False,18.0,0.55,0.5428571428571429,-0.4800000000000001,-0.6303061224489797,0,0,0.0,0.0199136015377933,-0.050683,0.36,0.36,0.6,0.4,0.1999999999999997,0.0399999999999998,5.04,5.04,1.0,2.0,1.0,5.0,0,1,0,0,-0.050683,0.32307577588773617,0.21869781892227344,-0.20457641378891506,0.6047342661399505,0.23903073349612597,-0.17029529291661072,0.45602395488919756,0.2480661074564127,-0.21318465347038462,0.5333336288965432,0.24888886918458755,-0.18433110432229505,0.5863281074969497,0.2425474578559951,-0.17647752705771413,0.6633268602434419,0.22332433672301916,-0.2190586089454943,0.5404632215683906,0.24836272770030732,-0.192493316494317,0.5290701455626104,0.2491549266369686,-0.17926608394308619,0.4181805801384378,0.24330558253351736,-0.18747674873034859,0.5949253162988564,0.24098918432556207,-0.12368947180419082,0.1697949833601754,0.14096464698589317,-0.2384894196393768
11.0,0.0,11.0,0.0,3.0,0.0,3.0,0.0,,,,right,0.9177455000026384,322.88666560000274,or1,322.88666560000274,,309.01253839999845,311.02694789999805,False,4.0,['r'],True,0.36,0.6,0.4,2.0,2.0,0.9801625908629508,-0.0169199999999999,wait_cost,0.0,3.0,319.9354774999956,,or1,1,2022-04-29_14h28.47.259,threat_forest,2021.2.3,60.12621695150609,False,18.0,0.55,0.5428571428571429,-0.4800000000000001,-0.6303061224489797,0,0,0.0,-0.0858351599104442,-0.0169199999999999,0.36,0.36,0.6,0.4,0.1999999999999997,0.0399999999999998,4.04,4.04,1.0,2.0,-1.0,4.0,0,1,0,0,-0.0169199999999999,0.5587173304399229,0.24655227510600894,-0.222565736454404,0.6047342661399505,0.23903073349612597,-0.17029529291661072,0.45602395488919756,0.2480661074564127,-0.21318465347038462,0.5333336288965432,0.24888886918458755,-0.18433110432229505,0.5863281074969497,0.2425474578559951,-0.17647752705771413,0.6633268602434419,0.22332433672301916,-0.2190586089454943,0.5404632215683906,0.24836272770030732,-0.192493316494317,0.5290701455626104,0.2491549266369686,-0.17926608394308619,0.4181805801384378,0.24330558253351736,-0.18747674873034859,0.5949253162988564,0.24098918432556207,-0.12368947180419082,0.30914242547342496,0.21357338624583286,-0.16604420117417548
11.0,0.0,11.0,0.0,4.0,0.0,4.0,0.0,,,,right,0.7950928999925964,327.8667152999988,or1,327.8667152999988,,309.01253839999845,311.02694789999805,False,3.0,['r'],True,0.36,0.6,0.4,2.0,2.0,0.9801625908629508,-0.0017999999999999,wait_cost,0.0,2.0,325.8465271000023,,or1,1,2022-04-29_14h28.47.259,threat_forest,2021.2.3,60.12621695150609,False,18.0,0.55,0.5428571428571429,-0.4800000000000001,-0.6303061224489797,0,0,0.0,-0.2292963158182589,-0.0017999999999999,0.36,0.36,0.6,0.4,0.1999999999999997,0.0399999999999998,3.04,3.04,1.0,2.0,-1.0,3.0,0,1,0,0,-0.0017999999999999,0.5587173304399229,0.24655227510600894,-0.222565736454404,0.6047342661399505,0.23903073349612597,-0.17029529291661072,0.45602395488919756,0.2480661074564127,-0.21318465347038462,0.5333336288965432,0.24888886918458755,-0.18433110432229505,0.5863281074969497,0.2425474578559951,-0.17647752705771413,0.6633268602434419,0.22332433672301916,-0.2190586089454943,0.5404632215683906,0.24836272770030732,-0.192493316494317,0.5290701455626104,0.2491549266369686,-0.17926608394308619,0.4181805801384378,0.24330558253351736,-0.18747674873034859,0.5949253162988564,0.24098918432556207,-0.12368947180419082,0.3885276646397132,0.2375739184493238,-0.14209772012403135
11.0,0.0,11.0,0.0,5.0,0.0,5.0,0.0,,,,right,0.6633565999945858,331.9474862000061,or1,328.6942773000046,330.7085915000061,331.9474862000061,,True,2.0,['r'],False,0.5,0.5,0.0,0.0,2.0,0.6309297535714574,0.07,succ_gain,1.0,4.0,330.7085915000061,,or1,1,2022-04-29_14h28.47.259,threat_forest,2021.2.3,60.12621695150609,True,18.0,0.55,0.5428571428571429,-0.4800000000000001,-0.6303061224489797,1,0,1.0,-0.4104425751781126,0.07,0.5,0.5,0.5,0.0,1.0,1.0,3.0,3.0,0.0,2.0,-1.0,2.0,0,1,0,1,0.07,0.5587173304399229,0.24655227510600894,-0.222565736454404,0.6047342661399505,0.23903073349612597,-0.17029529291661072,0.45602395488919756,0.2480661074564127,-0.21318465347038462,0.5025377263008225,0.2499935599452221,-0.2449714372561953,0.4488488494605368,0.2473835597984892,-0.23200435661733643,0.5665942113653147,0.24556521101263182,-0.2159700133647941,0.6452945793312079,0.22888948521696734,-0.2815562235171736,0.6722778172202519,0.22032035369382552,-0.253679755267163,0.6043942355465707,0.23910184358464712,-0.24711744641378308,0.8354355282683443,0.13748300637533672,-0.23856822541056663,0.7705652366069595,0.17679445273982,-0.20274030552631744
11.0,0.0,11.0,0.0,6.0,0.0,6.0,0.0,,,,left,0.8403740999929141,336.50642089999747,or1,328.6942773000046,330.7085915000061,336.50642089999747,,False,4.0,['r'],False,0.5,0.5,0.0,0.0,2.0,0.6309297535714574,0.0,wait_cost,1.0,3.0,334.65498059999663,,or1,1,2022-04-29_14h28.47.259,threat_forest,2021.2.3,60.12621695150609,False,18.0,0.55,0.5428571428571429,-0.4800000000000001,-0.6303061224489797,1,0,0.0,-0.1739081291524101,0.0,0.0,0.5,0.5,0.0,1.0,1.0,5.0,5.0,0.0,2.0,1.0,4.0,0,0,0,1,-0.84,0.32307577588773617,0.21869781892227344,-0.20457641378891506,1.05761655505591e-06,1.0576154365031333e-06,-0.5000320016568474,0.45602395488919756,0.2480661074564127,-0.21318465347038462,0.5025377263008225,0.2499935599452221,-0.2449714372561953,0.4488488494605368,0.2473835597984892,-0.23200435661733643,0.5665942113653147,0.24556521101263182,-0.2159700133647941,0.6452945793312079,0.22888948521696734,-0.2815562235171736,0.6722778172202519,0.22032035369382552,-0.253679755267163,0.6043942355465707,0.23910184358464712,-0.24711744641378308,0.05705763324957651,0.05380205973753334,-0.33144348214138064,0.39848919465011606,0.23969555639721798,-0.13998086027760157
11.0,0.0,11.0,0.0,7.0,0.0,7.0,0.0,,,,left,0.5241590999939945,341.69894699999713,or1,328.6942773000046,330.7085915000061,341.69894699999713,,False,3.0,['r'],False,0.5,0.5,0.0,0.0,2.0,0.6309297535714574,0.0,wait_cost,1.0,2.0,339.3839158000046,,or1,1,2022-04-29_14h28.47.259,threat_forest,2021.2.3,60.12621695150609,False,18.0,0.55,0.5428571428571429,-0.4800000000000001,-0.6303061224489797,1,0,0.0,-0.6459600148033857,0.0,0.0,0.5,0.5,0.0,1.0,1.0,4.0,4.0,0.0,2.0,-1.0,3.0,0,0,0,1,-0.84,0.5587173304399229,0.24655227510600894,-0.222565736454404,1.05761655505591e-06,1.0576154365031333e-06,-0.5000320016568474,0.45602395488919756,0.2480661074564127,-0.21318465347038462,0.5025377263008225,0.2499935599452221,-0.2449714372561953,0.4488488494605368,0.2473835597984892,-0.23200435661733643,0.5665942113653147,0.24556521101263182,-0.2159700133647941,0.6452945793312079,0.22888948521696734,-0.2815562235171736,0.6722778172202519,0.22032035369382552,-0.253679755267163,0.6043942355465707,0.23910184358464712,-0.24711744641378308,0.05705763324957651,0.05380205973753334,-0.33144348214138064,0.39848919465011606,0.23969555639721798,-0.13998086027760157
12.0,0.0,12.0,0.0,0.0,0.0,0.0,0.0,347.4842553000053,350.9899041000026,,left,0.6943688000028487,353.3457746000058,or1,347.4842553000053,350.9899041000026,353.3457746000058,,False,4.0,['p'],False,0.2448979591836734,0.2857142857142857,0.1428571428571428,1.0,2.0,0.8400769154957735,0.0066793633871859,wait_cost,1.0,3.0,,,or1,1,2022-04-29_14h28.47.259,threat_forest,2021.2.3,60.12621695150609,False,29.0,0.4761904761904761,0.513095238095238,-0.8594104308390023,-0.6697052154195011,0,0,0.0,-0.3647520475168921,0.0066793633871859,0.2448979591836734,0.2448979591836734,0.2857142857142857,0.1428571428571428,-0.2857142857142856,-0.1632653061224489,3.836734693877551,3.836734693877551,0.0,2.0,-1.0,4.0,0,1,0,0,0.0066793633871859,0.5587173304399229,0.24655227510600894,-0.222565736454404,0.6047342661399505,0.23903073349612597,-0.17029529291661072,0.45602395488919756,0.2480661074564127,-0.21318465347038462,0.5025377263008225,0.2499935599452221,-0.2449714372561953,0.4981451152593287,0.24999655940259888,-0.2620061194796657,0.35183067912050575,0.22804585235010952,-0.21840293093076585,0.47436370324852206,0.24934278028887016,-0.18801094368725324,0.4064636814023912,0.2412509571032066,-0.19966393731863785,0.4181805801384378,0.24330558253351736,-0.18747674873034859,0.3462992918104355,0.22637609230202635,-0.13990815392774808,0.43613265444145244,0.24592096217130505,-0.1337694746243722
12.0,0.0,12.0,0.0,1.0,0.0,1.0,0.0,,,,left,0.5796558000001824,358.59140130000014,or1,347.4842553000053,350.9899041000026,358.59140130000014,,False,3.0,['p'],False,0.2448979591836734,0.2857142857142857,0.1428571428571428,1.0,2.0,0.8400769154957735,0.0286218062243927,wait_cost,1.0,2.0,356.0848776000057,,or1,1,2022-04-29_14h28.47.259,threat_forest,2021.2.3,60.12621695150609,False,29.0,0.4761904761904761,0.513095238095238,-0.8594104308390023,-0.6697052154195011,0,0,0.0,-0.5453207998773456,0.0286218062243927,0.2448979591836734,0.2448979591836734,0.2857142857142857,0.1428571428571428,-0.2857142857142856,-0.1632653061224489,2.836734693877551,2.836734693877551,0.0,2.0,-1.0,3.0,0,1,0,0,0.0286218062243927,0.5587173304399229,0.24655227510600894,-0.222565736454404,0.6047342661399505,0.23903073349612597,-0.17029529291661072,0.45602395488919756,0.2480661074564127,-0.21318465347038462,0.5025377263008225,0.2499935599452221,-0.2449714372561953,0.4981451152593287,0.24999655940259888,-0.2620061194796657,0.35183067912050575,0.22804585235010952,-0.21840293093076585,0.47436370324852206,0.24934278028887016,-0.18801094368725324,0.4064636814023912,0.2412509571032066,-0.19966393731863785,0.4181805801384378,0.24330558253351736,-0.18747674873034859,0.3462992918104355,0.22637609230202635,-0.13990815392774808,0.5626596476262329,0.24607376855935628,-0.1336170123687528
12.0,0.0,12.0,0.0,2.0,0.0,2.0,0.0,,,,left,0.5919997000019066,363.8343195000052,or1,347.4842553000053,350.9899041000026,363.8343195000052,,False,2.0,['p'],False,0.2448979591836734,0.2857142857142857,0.1428571428571428,1.0,2.0,0.8400769154957735,-0.0338226033646941,wait_cost,1.0,1.0,361.2133705000015,,or1,1,2022-04-29_14h28.47.259,threat_forest,2021.2.3,60.12621695150609,False,29.0,0.4761904761904761,0.513095238095238,-0.8594104308390023,-0.6697052154195011,0,0,0.0,-0.5242491508517959,-0.0338226033646941,0.2448979591836734,0.2448979591836734,0.2857142857142857,0.1428571428571428,-0.2857142857142856,-0.1632653061224489,1.836734693877551,1.836734693877551,0.0,2.0,-1.0,2.0,0,1,0,0,-0.0338226033646941,0.5587173304399229,0.24655227510600894,-0.222565736454404,0.6047342661399505,0.23903073349612597,-0.17029529291661072,0.45602395488919756,0.2480661074564127,-0.21318465347038462,0.5025377263008225,0.2499935599452221,-0.2449714372561953,0.4981451152593287,0.24999655940259888,-0.2620061194796657,0.35183067912050575,0.22804585235010952,-0.21840293093076585,0.47436370324852206,0.24934278028887016,-0.18801094368725324,0.4064636814023912,0.2412509571032066,-0.19966393731863785,0.4181805801384378,0.24330558253351736,-0.18747674873034859,0.3462992918104355,0.22637609230202635,-0.13990815392774808,0.23217050690945995,0.1782673626308644,-0.20127071274831504
12.0,0.0,12.0,0.0,3.0,0.0,3.0,0.0,,,,right,0.5952929999912158,368.5280517000065,or1,347.4842553000053,350.9899041000026,368.5280517000065,,True,1.0,['p'],False,0.2448979591836734,0.2857142857142857,0.1428571428571428,1.0,2.0,0.8400769154957735,0.1196276557733094,unsucc_cost,1.0,0.0,366.45864539999457,,or1,1,2022-04-29_14h28.47.259,threat_forest,2021.2.3,60.12621695150609,True,29.0,0.4761904761904761,0.513095238095238,-0.8594104308390023,-0.6697052154195011,0,0,1.0,-0.5187015576837709,0.1196276557733094,1.0,0.2448979591836734,0.2857142857142857,0.1428571428571428,-0.2857142857142856,-0.1632653061224489,0.8367346938775511,1.0,0.0,2.0,-1.0,1.0,1,1,0,0,0.625,0.5587173304399229,0.24655227510600894,-0.222565736454404,0.6047342661399505,0.23903073349612597,-0.17029529291661072,0.9749981104217976,0.024376795095721864,-0.2615337543101996,0.5025377263008225,0.2499935599452221,-0.2449714372561953,0.4981451152593287,0.24999655940259888,-0.2620061194796657,0.35183067912050575,0.22804585235010952,-0.21840293093076585,0.47436370324852206,0.24934278028887016,-0.18801094368725324,0.4064636814023912,0.2412509571032066,-0.19966393731863785,0.4181805801384378,0.24330558253351736,-0.18747674873034859,0.9976576250802031,0.0023368881995319457,-0.3885633070398234,0.9139108343538175,0.07867782120452657,-0.3006359704158706
13.0,0.0,13.0,0.0,0.0,0.0,0.0,0.0,373.5523033000063,377.05435299999954,,left,0.793245000008028,380.326272899998,or1,373.5523033000063,377.05435299999954,380.326272899998,,False,4.0,['p'],False,0.18,0.2,0.1,1.0,2.0,0.7058405977926203,-0.0041239600981238,wait_cost,1.0,3.0,,,or1,1,2022-04-29_14h28.47.259,threat_forest,2021.2.3,60.12621695150609,False,41.0,0.4333333333333333,0.4547619047619047,-0.9677777777777778,-0.91359410430839,0,0,0.0,-0.2316231517116842,-0.0041239600981238,0.18,0.18,0.2,0.1,-0.5000000000000002,-0.3800000000000001,3.62,3.62,0.0,2.0,-1.0,4.0,0,1,0,0,-0.0041239600981238,0.5587173304399229,0.24655227510600894,-0.222565736454404,0.6047342661399505,0.23903073349612597,-0.17029529291661072,0.45602395488919756,0.2480661074564127,-0.21318465347038462,0.5025377263008225,0.2499935599452221,-0.2449714372561953,0.4833085618506966,0.249721395892508,-0.2588467656224629,0.2763598804060142,0.19998509690798774,-0.22229973481181312,0.44534980093965276,0.24701335574266448,-0.19866480998368385,0.34125457095210143,0.22479988875639859,-0.24211937424510743,0.4181805801384378,0.24330558253351736,-0.18747674873034859,0.22964984253560847,0.1769107923589787,-0.19480837454023642,0.3758039353938523,0.2345753375363456,-0.14508954798856147
13.0,0.0,13.0,0.0,1.0,0.0,1.0,0.0,,,,right,0.8699805000069318,384.1038578000007,or1,373.5523033000063,377.05435299999954,384.1038578000007,,True,3.0,['p'],False,0.18,0.2,0.1,1.0,2.0,0.7058405977926203,0.0098185922261646,unsucc_cost,1.0,1.0,383.16199049999705,,or1,1,2022-04-29_14h28.47.259,threat_forest,2021.2.3,60.12621695150609,True,41.0,0.4333333333333333,0.4547619047619047,-0.9677777777777778,-0.91359410430839,0,0,1.0,-0.1392844813698361,0.0098185922261646,0.18,0.18,0.2,0.1,-0.5000000000000002,-0.3800000000000001,2.62,2.62,0.0,2.0,-1.0,3.0,0,1,0,0,0.0098185922261646,0.5587173304399229,0.24655227510600894,-0.222565736454404,0.6047342661399505,0.23903073349612597,-0.17029529291661072,0.45602395488919756,0.2480661074564127,-0.21318465347038462,0.5025377263008225,0.2499935599452221,-0.2449714372561953,0.4833085618506966,0.249721395892508,-0.2588467656224629,0.2763598804060142,0.19998509690798774,-0.22229973481181312,0.44534980093965276,0.24701335574266448,-0.19866480998368385,0.34125457095210143,0.22479988875639859,-0.24211937424510743,0.4181805801384378,0.24330558253351736,-0.18747674873034859,0.22964984253560847,0.1769107923589787,-0.19480837454023642,0.45411069863484915,0.24789417202021832,-0.13180070860475507
13.0,0.0,13.0,0.0,2.0,0.0,2.0,0.0,,,,left,0.6942508000065573,388.7280587999994,or1,373.5523033000063,377.05435299999954,388.7280587999994,,False,1.0,['p'],False,0.18,0.2,0.1,1.0,2.0,0.7058405977926203,0.0769181581344305,wait_cost,1.0,0.0,387.0061693000025,,or1,1,2022-04-29_14h28.47.259,threat_forest,2021.2.3,60.12621695150609,False,41.0,0.4333333333333333,0.4547619047619047,-0.9677777777777778,-0.91359410430839,0,0,0.0,-0.3649220004637966,0.0769181581344305,1.0,0.18,0.2,0.1,-0.5000000000000002,-0.3800000000000001,0.6199999999999999,1.0,0.0,2.0,-1.0,1.0,1,1,0,0,0.625,0.5587173304399229,0.24655227510600894,-0.222565736454404,0.6047342661399505,0.23903073349612597,-0.17029529291661072,0.9749981104217976,0.024376795095721864,-0.2615337543101996,0.5025377263008225,0.2499935599452221,-0.2449714372561953,0.4833085618506966,0.249721395892508,-0.2588467656224629,0.2763598804060142,0.19998509690798774,-0.22229973481181312,0.44534980093965276,0.24701335574266448,-0.19866480998368385,0.34125457095210143,0.22479988875639859,-0.24211937424510743,0.4181805801384378,0.24330558253351736,-0.18747674873034859,0.9976576250802031,0.0023368881995319457,-0.3885633070398234,0.797692550088305,0.1613791456219221,-0.21812089611702115
14.0,0.0,14.0,0.0,0.0,0.0,0.0,0.0,392.17498710000655,395.66908419999527,,left,0.8130820000078529,398.3263625999971,or1,392.17498710000655,395.66908419999527,398.3263625999971,,False,5.0,['p'],False,0.16,0.2,0.2,2.0,2.0,0.8198746470064713,-0.011066432,wait_cost,1.0,4.0,,,or1,1,2022-04-29_14h28.47.259,threat_forest,2021.2.3,60.12621695150609,False,65.0,0.3,0.3666666666666667,-1.5000000000000002,-1.233888888888889,0,0,0.0,-0.2069233135021877,-0.011066432,0.16,0.16,0.2,0.2,-0.8000000000000003,-0.5600000000000003,4.44,4.44,0.0,2.0,-1.0,5.0,0,1,0,0,-0.011066432,0.5587173304399229,0.24655227510600894,-0.222565736454404,0.6047342661399505,0.23903073349612597,-0.17029529291661072,0.45602395488919756,0.2480661074564127,-0.21318465347038462,0.5025377263008225,0.2499935599452221,-0.2449714372561953,0.5179277506819447,0.24967859575548604,-0.2583553458919017,0.2763598804060142,0.19998509690798774,-0.22229973481181312,0.40538980364178423,0.24104891074505985,-0.22594382172089555,0.3221908284817209,0.2183838985239832,-0.25867718452774524,0.4181805801384378,0.24330558253351736,-0.18747674873034859,0.19981145269660938,0.15988683606788,-0.21370281078452805,0.33885746626303137,0.2240330838208299,-0.1556080596900515
14.0,0.0,14.0,0.0,1.0,0.0,1.0,0.0,,,,left,0.6088713000062853,404.2694450999989,or1,392.17498710000655,395.66908419999527,404.2694450999989,,False,4.0,['p'],False,0.16,0.2,0.2,2.0,2.0,0.8198746470064713,0.0106207999999998,wait_cost,1.0,3.0,401.1761286999972,,or1,1,2022-04-29_14h28.47.259,threat_forest,2021.2.3,60.12621695150609,False,65.0,0.3,0.3666666666666667,-1.5000000000000002,-1.233888888888889,0,0,0.0,-0.4961483636445196,0.0106207999999998,0.16,0.16,0.2,0.2,-0.8000000000000003,-0.5600000000000003,3.4399999999999995,3.4399999999999995,0.0,2.0,-1.0,4.0,0,1,0,0,0.0106207999999998,0.5587173304399229,0.24655227510600894,-0.222565736454404,0.6047342661399505,0.23903073349612597,-0.17029529291661072,0.45602395488919756,0.2480661074564127,-0.21318465347038462,0.5025377263008225,0.2499935599452221,-0.2449714372561953,0.5179277506819447,0.24967859575548604,-0.2583553458919017,0.2763598804060142,0.19998509690798774,-0.22229973481181312,0.40538980364178423,0.24104891074505985,-0.22594382172089555,0.3221908284817209,0.2183838985239832,-0.25867718452774524,0.4181805801384378,0.24330558253351736,-0.18747674873034859,0.19981145269660938,0.15988683606788,-0.21370281078452805,0.4587260438840304,0.248296460546537,-0.13139932606496374
14.0,0.0,14.0,0.0,2.0,0.0,2.0,0.0,,,,left,1.0309180000040217,408.4157067000051,or1,408.4157067000051,,404.9011000000028,406.9041332000052,True,3.0,['p'],True,0.24,0.4,0.4,2.0,2.0,0.9801625908629508,0.0470399999999999,succ_gain,0.0,5.0,406.9041332000052,,or1,1,2022-04-29_14h28.47.259,threat_forest,2021.2.3,60.12621695150609,True,65.0,0.3,0.3666666666666667,-1.5000000000000002,-1.233888888888889,0,0,1.0,0.0304496674431035,0.0470399999999999,0.24,0.24,0.4,0.4,-0.6000000000000001,-0.4400000000000001,2.56,2.56,1.0,2.0,-1.0,3.0,0,1,0,0,0.0470399999999999,0.5587173304399229,0.24655227510600894,-0.222565736454404,0.6047342661399505,0.23903073349612597,-0.17029529291661072,0.45602395488919756,0.2480661074564127,-0.21318465347038462,0.5333336288965432,0.24888886918458755,-0.18433110432229505,0.5863281074969497,0.2425474578559951,-0.17647752705771413,0.46450543749429996,0.24874013603252895,-0.21552911076097475,0.4319243697296174,0.2453657085632902,-0.20620049633220172,0.4013920313569283,0.24027646852008697,-0.20217880976971658,0.4181805801384378,0.24330558253351736,-0.18747674873034859,0.33654299274425414,0.22328180677899503,-0.14334241912068207,0.6635317967094351,0.22325735146498402,-0.15638204503344924
14.0,0.0,14.0,0.0,3.0,0.0,3.0,0.0,,,,left,0.5349162999918917,414.929022700002,or1,409.4688739999983,411.4831547000067,414.929022700002,,False,5.0,['p'],False,0.16,0.2,0.2,2.0,2.0,0.8198746470064713,0.026,wait_cost,1.0,4.0,411.4831547000067,,or1,1,2022-04-29_14h28.47.259,threat_forest,2021.2.3,60.12621695150609,False,65.0,0.3,0.3666666666666667,-1.5000000000000002,-1.233888888888889,0,0,0.0,-0.6256449929387778,0.026,0.16,0.16,0.2,0.2,-0.8000000000000003,-0.5600000000000003,4.44,4.44,0.0,2.0,1.0,5.0,0,1,0,0,0.026,0.32307577588773617,0.21869781892227344,-0.20457641378891506,0.6047342661399505,0.23903073349612597,-0.17029529291661072,0.45602395488919756,0.2480661074564127,-0.21318465347038462,0.5025377263008225,0.2499935599452221,-0.2449714372561953,0.5179277506819447,0.24967859575548604,-0.2583553458919017,0.2763598804060142,0.19998509690798774,-0.22229973481181312,0.40538980364178423,0.24104891074505985,-0.22594382172089555,0.3221908284817209,0.2183838985239832,-0.25867718452774524,0.4181805801384378,0.24330558253351736,-0.18747674873034859,0.19981145269660938,0.15988683606788,-0.21370281078452805,0.5476461477117507,0.24772984460823003,-0.13196466593802722
14.0,0.0,14.0,0.0,4.0,0.0,4.0,0.0,,,,left,0.4736530000081984,419.86777209999855,or1,409.4688739999983,411.4831547000067,419.86777209999855,,False,4.0,['p'],False,0.16,0.2,0.2,2.0,2.0,0.8198746470064713,0.0407999999999998,wait_cost,1.0,3.0,417.5108573000034,,or1,1,2022-04-29_14h28.47.259,threat_forest,2021.2.3,60.12621695150609,False,65.0,0.3,0.3666666666666667,-1.5000000000000002,-1.233888888888889,0,0,0.0,-0.7472802928725694,0.0407999999999998,0.16,0.16,0.2,0.2,-0.8000000000000003,-0.5600000000000003,3.4399999999999995,3.4399999999999995,0.0,2.0,-1.0,4.0,0,1,0,0,0.0407999999999998,0.5587173304399229,0.24655227510600894,-0.222565736454404,0.6047342661399505,0.23903073349612597,-0.17029529291661072,0.45602395488919756,0.2480661074564127,-0.21318465347038462,0.5025377263008225,0.2499935599452221,-0.2449714372561953,0.5179277506819447,0.24967859575548604,-0.2583553458919017,0.2763598804060142,0.19998509690798774,-0.22229973481181312,0.40538980364178423,0.24104891074505985,-0.22594382172089555,0.3221908284817209,0.2183838985239832,-0.25867718452774524,0.4181805801384378,0.24330558253351736,-0.18747674873034859,0.19981145269660938,0.15988683606788,-0.21370281078452805,0.6305018192596252,0.23296927516992819,-0.14669199337171718
14.0,0.0,14.0,0.0,5.0,0.0,5.0,0.0,,,,left,1.6507308000000194,423.3468742999976,or1,423.3468742999976,,420.3587123000034,422.3729788000055,True,3.0,['p'],True,0.24,0.4,0.4,2.0,2.0,0.9801625908629508,0.092,figh_cost,0.0,0.0,422.3729788000055,,or1,1,2022-04-29_14h28.47.259,threat_forest,2021.2.3,60.12621695150609,True,65.0,0.3,0.3666666666666667,-1.5000000000000002,-1.233888888888889,0,0,1.0,0.5012180989481306,0.092,0.24,0.24,0.4,0.4,-0.6000000000000001,-0.4400000000000001,2.56,2.56,1.0,2.0,-1.0,3.0,0,1,0,0,0.092,0.5587173304399229,0.24655227510600894,-0.222565736454404,0.6047342661399505,0.23903073349612597,-0.17029529291661072,0.45602395488919756,0.2480661074564127,-0.21318465347038462,0.5333336288965432,0.24888886918458755,-0.18433110432229505,0.5863281074969497,0.2425474578559951,-0.17647752705771413,0.46450543749429996,0.24874013603252895,-0.21552911076097475,0.4319243697296174,0.2453657085632902,-0.20620049633220172,0.4013920313569283,0.24027646852008697,-0.20217880976971658,0.4181805801384378,0.24330558253351736,-0.18747674873034859,0.33654299274425414,0.22328180677899503,-0.14334241912068207,0.848344597900678,0.12865604111341497,-0.2507703055289039
15.0,0.0,15.0,0.0,0.0,0.0,0.0,0.0,428.5465861999983,432.0474014000065,,left,1.2043249999987893,435.4358262000024,or1,435.4358262000024,,428.5465861999983,432.0474014000065,True,5.0,['r'],True,0.25,0.25,0.0,0.0,2.0,0.5118595071429148,0.0218437876829995,unsucc_cost,0.0,3.0,,,or1,1,2022-04-29_14h28.47.259,threat_forest,2021.2.3,60.12621695150609,True,34.0,0.4583333333333333,0.3791666666666666,-1.3888888888888888,-1.4444444444444446,1,0,1.0,0.1859192440149341,0.0218437876829995,0.25,0.25,0.25,0.0,0.0,0.0,5.0,5.0,1.0,2.0,-1.0,5.0,0,1,0,1,0.0218437876829995,0.5587173304399229,0.24655227510600894,-0.222565736454404,0.6047342661399505,0.23903073349612597,-0.17029529291661072,0.45602395488919756,0.2480661074564127,-0.21318465347038462,0.5333336288965432,0.24888886918458755,-0.18433110432229505,0.4488488494605368,0.2473835597984892,-0.23200435661733643,0.3191899265411931,0.21730771733582085,-0.21989413833197777,0.5132855453967211,0.24982349428351167,-0.18581234805809843,0.4117679281279073,0.24221510149315784,-0.1971757602305203,0.6043942355465707,0.23910184358464712,-0.24711744641378308,0.35660129428825366,0.22943681120019596,-0.1365111434388641,0.5236782418893823,0.24943934086102793,-0.13025901961002775
15.0,0.0,15.0,0.0,1.0,0.0,1.0,0.0,,,,left,0.7738297000032617,442.3881066000031,or1,442.3881066000031,,428.5465861999983,432.0474014000065,True,3.0,['r'],True,0.25,0.25,0.0,0.0,2.0,0.5118595071429148,0.0633364704901298,unsucc_cost,0.0,1.0,438.6743155000004,,or1,1,2022-04-29_14h28.47.259,threat_forest,2021.2.3,60.12621695150609,True,34.0,0.4583333333333333,0.3791666666666666,-1.3888888888888888,-1.4444444444444446,1,0,1.0,-0.2564034554372245,0.0633364704901298,0.25,0.25,0.25,0.0,0.0,0.0,3.0,3.0,1.0,2.0,-1.0,3.0,0,1,0,1,0.0633364704901298,0.5587173304399229,0.24655227510600894,-0.222565736454404,0.6047342661399505,0.23903073349612597,-0.17029529291661072,0.45602395488919756,0.2480661074564127,-0.21318465347038462,0.5333336288965432,0.24888886918458755,-0.18433110432229505,0.4488488494605368,0.2473835597984892,-0.23200435661733643,0.3191899265411931,0.21730771733582085,-0.21989413833197777,0.5132855453967211,0.24982349428351167,-0.18581234805809843,0.4117679281279073,0.24221510149315784,-0.1971757602305203,0.6043942355465707,0.23910184358464712,-0.24711744641378308,0.35660129428825366,0.22943681120019596,-0.1365111434388641,0.7421132300393798,0.19138118383989836,-0.1881864249327543
15.0,0.0,15.0,0.0,2.0,0.0,2.0,0.0,,,,right,0.5817057999956887,445.8911479999952,or1,443.1871822999965,445.2015800999943,445.8911479999952,,True,1.0,['r'],False,0.2222222222222222,0.6666666666666666,0.6666666666666666,2.0,2.0,0.77250688571426,0.0614298893318472,unsucc_cost,1.0,0.0,445.2015800999943,,or1,1,2022-04-29_14h28.47.259,threat_forest,2021.2.3,60.12621695150609,True,34.0,0.4583333333333333,0.3791666666666666,-1.3888888888888888,-1.4444444444444446,0,0,1.0,-0.5417904573472268,0.0614298893318472,1.0,0.2222222222222222,0.6666666666666666,0.6666666666666666,-0.3333333333333335,-0.7777777777777779,0.2222222222222221,1.0,0.0,2.0,-1.0,1.0,1,1,0,0,0.625,0.5587173304399229,0.24655227510600894,-0.222565736454404,0.6047342661399505,0.23903073349612597,-0.17029529291661072,0.9749981104217976,0.024376795095721864,-0.2615337543101996,0.5025377263008225,0.2499935599452221,-0.2449714372561953,0.6722162408834321,0.2203415663759797,0.07848458211452858,0.7214394336750121,0.20096457721368993,-0.22216371414535094,0.46789419272714156,0.24896921713935807,-0.18971947374230824,0.38316764972426337,0.23635020192904763,-0.21231136530339523,0.4181805801384378,0.24330558253351736,-0.18747674873034859,0.9976576250802031,0.0023368881995319457,-0.3885633070398234,0.7335615854997974,0.1954489857788208,-0.1841277840151176
16.0,0.0,16.0,0.0,0.0,0.0,0.0,0.0,450.2796203000034,453.7707189000066,,right,0.8086502000078326,455.1079079000047,or1,450.2796203000034,453.7707189000066,455.1079079000047,,True,4.0,['p'],False,0.2592592592592592,0.3333333333333333,0.2222222222222222,2.0,2.0,0.9327883776363324,0.0060894858457368,unsucc_cost,1.0,2.0,,,or1,1,2022-04-29_14h28.47.259,threat_forest,2021.2.3,60.12621695150609,True,31.0,0.4166666666666666,0.4375,-0.9675925925925928,-1.178240740740741,0,0,1.0,-0.2123888410809042,0.0060894858457368,0.2592592592592592,0.2592592592592592,0.3333333333333333,0.2222222222222222,-0.3333333333333335,-0.1851851851851855,3.8148148148148144,3.8148148148148144,0.0,2.0,-1.0,4.0,0,1,0,0,0.0060894858457368,0.5587173304399229,0.24655227510600894,-0.222565736454404,0.6047342661399505,0.23903073349612597,-0.17029529291661072,0.45602395488919756,0.2480661074564127,-0.21318465347038462,0.5025377263008225,0.2499935599452221,-0.2449714372561953,0.5256092506166777,0.24934416628285222,-0.2545155160976864,0.3975521297964618,0.23950443389075898,-0.2168116749465498,0.46789419272714156,0.24896921713935807,-0.18971947374230824,0.421445900915791,0.24382925351706827,-0.19301010192820345,0.4181805801384378,0.24330558253351736,-0.18747674873034859,0.3756351072758887,0.23453337345772027,-0.13085460455957865,0.43277168908934616,0.2454803542121004,-0.13420909029856554
16.0,0.0,16.0,0.0,1.0,0.0,1.0,0.0,,,,left,0.6689036000025226,460.16389609999896,or1,460.16389609999896,,455.94225809999625,457.9564750999998,True,2.0,['p'],True,0.375,0.5,0.25,1.0,2.0,0.9850568223215076,0.0391823915591187,unsucc_cost,0.0,0.0,457.9564750999998,,or1,1,2022-04-29_14h28.47.259,threat_forest,2021.2.3,60.12621695150609,True,31.0,0.4166666666666666,0.4375,-0.9675925925925928,-1.178240740740741,1,0,1.0,-0.402115324898087,0.0391823915591187,0.375,0.375,0.5,0.25,0.25,0.25,2.25,2.25,1.0,2.0,-1.0,2.0,0,1,0,1,0.0391823915591187,0.5587173304399229,0.24655227510600894,-0.222565736454404,0.6047342661399505,0.23903073349612597,-0.17029529291661072,0.45602395488919756,0.2480661074564127,-0.21318465347038462,0.5333336288965432,0.24888886918458755,-0.18433110432229505,0.5351936860064566,0.24876140446527895,-0.24782440071115674,0.5665942113653147,0.24556521101263182,-0.2159700133647941,0.54722651168475,0.24776965659409017,-0.19520578910056896,0.5451074994913091,0.24796531348964157,-0.18233613051261732,0.6043942355465707,0.23910184358464712,-0.24711744641378308,0.6265050254416807,0.23399647853799965,-0.1314504899493837,0.6217208033796903,0.23518404602460277,-0.14448221036139866
17.0,0.0,17.0,0.0,0.0,0.0,0.0,0.0,465.2947756000067,468.7963403000031,,left,0.9691972000000532,470.9726003999968,or1,465.2947756000067,468.7963403000031,470.9726003999968,,False,5.0,['r'],False,0.25,0.25,0.0,0.0,1.0,0.5118595071429148,0.0161331298904485,wait_cost,1.0,4.0,,,or1,1,2022-04-29_14h28.47.259,threat_forest,2021.2.3,60.12621695150609,False,20.0,0.4583333333333333,0.4375,-1.625,-1.2962962962962965,1,0,0.0,-0.0312871790244872,0.0161331298904485,0.25,0.25,0.25,0.0,-0.25,-0.25,4.75,4.75,0.0,1.0,-1.0,5.0,0,1,0,1,0.0161331298904485,0.5587173304399229,0.24655227510600894,-0.222565736454404,0.6047342661399505,0.23903073349612597,-0.17029529291661072,0.45602395488919756,0.2480661074564127,-0.21318465347038462,0.5025377263008225,0.2499935599452221,-0.2449714372561953,0.4488488494605368,0.2473835597984892,-0.23200435661733643,0.3191899265411931,0.21730771733582085,-0.21989413833197777,0.47922161025505167,0.249568258519607,-0.186979695464623,0.4117679281279073,0.24221510149315784,-0.1971757602305203,0.6043942355465707,0.23910184358464712,-0.24711744641378308,0.35660129428825366,0.22943681120019596,-0.1365111434388641,0.4905901568587424,0.24991145485205687,-0.1297879688581599
17.0,0.0,17.0,0.0,1.0,0.0,1.0,0.0,,,,left,0.7390766000025906,476.2731602999993,or1,465.2947756000067,468.7963403000031,476.2731602999993,,False,4.0,['r'],False,0.25,0.25,0.0,0.0,1.0,0.5118595071429148,0.0222806905508626,wait_cost,1.0,3.0,473.9746943999926,,or1,1,2022-04-29_14h28.47.259,threat_forest,2021.2.3,60.12621695150609,False,20.0,0.4583333333333333,0.4375,-1.625,-1.2962962962962965,1,0,0.0,-0.3023537098161649,0.0222806905508626,0.25,0.25,0.25,0.0,-0.25,-0.25,3.75,3.75,0.0,1.0,-1.0,4.0,0,1,0,1,0.0222806905508626,0.5587173304399229,0.24655227510600894,-0.222565736454404,0.6047342661399505,0.23903073349612597,-0.17029529291661072,0.45602395488919756,0.2480661074564127,-0.21318465347038462,0.5025377263008225,0.2499935599452221,-0.2449714372561953,0.4488488494605368,0.2473835597984892,-0.23200435661733643,0.3191899265411931,0.21730771733582085,-0.21989413833197777,0.47922161025505167,0.249568258519607,-0.186979695464623,0.4117679281279073,0.24221510149315784,-0.1971757602305203,0.6043942355465707,0.23910184358464712,-0.24711744641378308,0.35660129428825366,0.22943681120019596,-0.1365111434388641,0.5262048308850663,0.2493133068382851,-0.130384769793886
17.0,0.0,17.0,0.0,2.0,0.0,2.0,0.0,,,,left,1.2830690999981016,481.4182743999991,or1,465.2947756000067,468.7963403000031,481.4182743999991,,False,3.0,['r'],False,0.25,0.25,0.0,0.0,1.0,0.5118595071429148,0.0232278910774843,wait_cost,1.0,2.0,479.05342270000256,,or1,1,2022-04-29_14h28.47.259,threat_forest,2021.2.3,60.12621695150609,False,20.0,0.4583333333333333,0.4375,-1.625,-1.2962962962962965,1,0,0.0,0.2492549423266947,0.0232278910774843,0.25,0.25,0.25,0.0,-0.25,-0.25,2.75,2.75,0.0,1.0,-1.0,3.0,0,1,0,1,0.0232278910774843,0.5587173304399229,0.24655227510600894,-0.222565736454404,0.6047342661399505,0.23903073349612597,-0.17029529291661072,0.45602395488919756,0.2480661074564127,-0.21318465347038462,0.5025377263008225,0.2499935599452221,-0.2449714372561953,0.4488488494605368,0.2473835597984892,-0.23200435661733643,0.3191899265411931,0.21730771733582085,-0.21989413833197777,0.47922161025505167,0.249568258519607,-0.186979695464623,0.4117679281279073,0.24221510149315784,-0.1971757602305203,0.6043942355465707,0.23910184358464712,-0.24711744641378308,0.35660129428825366,0.22943681120019596,-0.1365111434388641,0.5316776699427209,0.24899652522700005,-0.1307008379871808
17.0,0.0,17.0,0.0,3.0,0.0,3.0,0.0,,,,right,0.4676529999997001,486.58153630000015,or1,465.2947756000067,468.7963403000031,486.58153630000015,,True,2.0,['r'],False,0.25,0.25,0.0,0.0,1.0,0.5118595071429148,0.0096239631558642,succ_gain,1.0,3.0,484.7480836000032,,or1,1,2022-04-29_14h28.47.259,threat_forest,2021.2.3,60.12621695150609,True,20.0,0.4583333333333333,0.4375,-1.625,-1.2962962962962965,1,0,1.0,-0.7600287110688013,0.0096239631558642,0.25,0.25,0.25,0.0,-0.25,-0.25,1.75,1.75,0.0,1.0,-1.0,2.0,0,1,0,1,0.0096239631558642,0.5587173304399229,0.24655227510600894,-0.222565736454404,0.6047342661399505,0.23903073349612597,-0.17029529291661072,0.45602395488919756,0.2480661074564127,-0.21318465347038462,0.5025377263008225,0.2499935599452221,-0.2449714372561953,0.4488488494605368,0.2473835597984892,-0.23200435661733643,0.3191899265411931,0.21730771733582085,-0.21989413833197777,0.47922161025505167,0.249568258519607,-0.186979695464623,0.4117679281279073,0.24221510149315784,-0.1971757602305203,0.6043942355465707,0.23910184358464712,-0.24711744641378308,0.35660129428825366,0.22943681120019596,-0.1365111434388641,0.45299209560662984,0.2477902569245437,-0.1319043896751704
17.0,0.0,17.0,0.0,5.0,0.0,5.0,0.0,,,,left,1.090206799999578,498.8233176000067,or1,495.6049401000055,497.6192802000005,498.8233176000067,,False,2.0,['r'],False,0.25,0.25,0.0,0.0,1.0,0.5118595071429148,0.0138888888888888,wait_cost,1.0,1.0,497.6192802000005,,or1,1,2022-04-29_14h28.47.259,threat_forest,2021.2.3,60.12621695150609,False,20.0,0.4583333333333333,0.4375,-1.625,-1.2962962962962965,1,0,0.0,0.0863674030158391,0.0138888888888888,0.25,0.25,0.25,0.0,-0.25,-0.25,1.75,1.75,0.0,1.0,-1.0,2.0,0,1,0,1,0.0138888888888888,0.5587173304399229,0.24655227510600894,-0.222565736454404,0.6047342661399505,0.23903073349612597,-0.17029529291661072,0.45602395488919756,0.2480661074564127,-0.21318465347038462,0.5025377263008225,0.2499935599452221,-0.2449714372561953,0.4488488494605368,0.2473835597984892,-0.23200435661733643,0.3191899265411931,0.21730771733582085,-0.21989413833197777,0.47922161025505167,0.249568258519607,-0.186979695464623,0.4117679281279073,0.24221510149315784,-0.1971757602305203,0.6043942355465707,0.23910184358464712,-0.24711744641378308,0.35660129428825366,0.22943681120019596,-0.1365111434388641,0.4775933187441834,0.24949794063510025,-0.13020055180741955
17.0,0.0,17.0,0.0,6.0,0.0,6.0,0.0,,,,left,0.6627696000068681,505.68790669999726,or1,505.68790669999726,,499.9339626000001,501.9486165999988,True,1.0,['r'],True,0.2222222222222222,0.6666666666666666,0.6666666666666666,2.0,1.0,0.77250688571426,0.2222222222222222,figh_cost,0.0,0.0,501.9486165999988,,or1,1,2022-04-29_14h28.47.259,threat_forest,2021.2.3,60.12621695150609,True,20.0,0.4583333333333333,0.4375,-1.625,-1.2962962962962965,0,0,1.0,-0.4113278604941776,0.2222222222222222,1.0,0.2222222222222222,0.6666666666666666,0.6666666666666666,-1.0,-1.0,0.0,1.0,1.0,1.0,-1.0,1.0,1,1,0,0,0.625,0.5587173304399229,0.24655227510600894,-0.222565736454404,0.6047342661399505,0.23903073349612597,-0.17029529291661072,0.9749981104217976,0.024376795095721864,-0.2615337543101996,0.5333336288965432,0.24888886918458755,-0.18433110432229505,0.6722162408834321,0.2203415663759797,0.07848458211452858,0.7214394336750121,0.20096457721368993,-0.22216371414535094,0.37939665671059336,0.2354548335874175,-0.2515289174847899,0.38316764972426337,0.23635020192904763,-0.21231136530339523,0.4181805801384378,0.24330558253351736,-0.18747674873034859,0.9976576250802031,0.0023368881995319457,-0.3885633070398234,0.991349697312012,0.008575474951394237,-0.3705804404754596
0.0,0.0,0.0,0.0,0.0,0.0,0.0,0.0,18.441119600000093,21.956226000009337,,left,0.6738314999965951,24.48634139999922,or1,24.48634139999922,,18.441119600000093,21.956226000009337,True,4.0,['p'],True,0.2777777777777778,0.3333333333333333,0.1666666666666666,1.0,2.0,0.8929352898779304,0.0216341378184502,unsucc_cost,0.0,2.0,,,or1,2,2022-04-29_14h41.06.608,threat_forest,2021.2.3,59.928038409441314,True,37.0,0.2666666666666666,0.3625,-1.1277777777777778,-1.3763888888888889,1,0,1.0,-0.3947751993300924,0.0216341378184502,0.2777777777777778,0.2777777777777778,0.3333333333333333,0.1666666666666666,-0.1666666666666665,-0.0555555555555555,3.9444444444444446,3.9444444444444446,1.0,2.0,-1.0,4.0,0,1,0,1,0.0216341378184502,0.5587173304399229,0.24655227510600894,-0.222565736454404,0.6047342661399505,0.23903073349612597,-0.17029529291661072,0.45602395488919756,0.2480661074564127,-0.21318465347038462,0.5333336288965432,0.24888886918458755,-0.18433110432229505,0.5063907306253416,0.24995915856207426,-0.26157669302797126,0.3975521297964618,0.23950443389075898,-0.2168116749465498,0.49057043372202175,0.24991108327980927,-0.18541175064140458,0.44097681862476457,0.24651626406034602,-0.1860757068946418,0.6043942355465707,0.23910184358464712,-0.24711744641378308,0.4148241488882602,0.24274507438739068,-0.12174065613185775,0.5224654080081166,0.24949530544302886,-0.13020318106482376
0.0,0.0,0.0,0.0,1.0,0.0,1.0,0.0,,,,left,1.1449813000072029,29.360082500003045,or1,25.179310799998348,27.19378770000185,29.360082500003045,,False,2.0,['p'],False,0.2,0.2,0.0,0.0,2.0,0.4554859150035951,-0.0068111376780299,wait_cost,1.0,1.0,27.19378770000185,,or1,2,2022-04-29_14h41.06.608,threat_forest,2021.2.3,59.928038409441314,False,37.0,0.2666666666666666,0.3625,-1.1277777777777778,-1.3763888888888889,1,0,0.0,0.1353883050013979,-0.0068111376780299,0.2,0.2,0.2,0.0,-0.2000000000000001,-0.2000000000000001,1.7999999999999998,1.7999999999999998,0.0,2.0,-1.0,2.0,0,1,0,1,-0.0068111376780299,0.5587173304399229,0.24655227510600894,-0.222565736454404,0.6047342661399505,0.23903073349612597,-0.17029529291661072,0.45602395488919756,0.2480661074564127,-0.21318465347038462,0.5025377263008225,0.2499935599452221,-0.2449714372561953,0.4488488494605368,0.2473835597984892,-0.23200435661733643,0.2763598804060142,0.19998509690798774,-0.22229973481181312,0.48602908161353653,0.24980481343943878,-0.18589778684828429,0.36084579196713146,0.23063610638674512,-0.22705778892609663,0.6043942355465707,0.23910184358464712,-0.24711744641378308,0.26248244765226025,0.1935854123267387,-0.17630165738874984,0.3613034086622082,0.23076325555127758,-0.14889304485450802
0.0,0.0,0.0,0.0,2.0,0.0,2.0,0.0,,,,right,0.5987012999976287,34.46362809999846,or1,25.179310799998348,27.19378770000185,34.46362809999846,,True,1.0,['p'],False,0.2,0.2,0.0,0.0,2.0,0.4554859150035951,0.0607568503276938,unsucc_cost,1.0,0.0,32.53897350000625,,or1,2,2022-04-29_14h41.06.608,threat_forest,2021.2.3,59.928038409441314,True,37.0,0.2666666666666666,0.3625,-1.1277777777777778,-1.3763888888888889,1,0,1.0,-0.5129924696858444,0.0607568503276938,1.0,0.2,0.2,0.0,-0.2000000000000001,-0.2000000000000001,0.7999999999999998,1.0,0.0,2.0,-1.0,1.0,1,1,0,1,0.625,0.5587173304399229,0.24655227510600894,-0.222565736454404,0.6047342661399505,0.23903073349612597,-0.17029529291661072,0.9749981104217976,0.024376795095721864,-0.2615337543101996,0.5025377263008225,0.2499935599452221,-0.2449714372561953,0.4488488494605368,0.2473835597984892,-0.23200435661733643,0.2763598804060142,0.19998509690798774,-0.22229973481181312,0.48602908161353653,0.24980481343943878,-0.18589778684828429,0.36084579196713146,0.23063610638674512,-0.22705778892609663,0.6043942355465707,0.23910184358464712,-0.24711744641378308,0.9976576250802031,0.0023368881995319457,-0.3885633070398234,0.7305000205380331,0.19686974053196638,-0.18271022891739547
1.0,0.0,1.0,0.0,0.0,0.0,0.0,0.0,39.60248510001111,43.09833590000926,,right,0.7393545999948401,45.36748250000528,or1,39.60248510001111,43.09833590000926,45.36748250000528,,True,5.0,['r'],False,0.6,0.6,0.0,0.0,2.0,0.6126016192893442,0.0610993227861605,unsucc_cost,1.0,3.0,,,or1,2,2022-04-29_14h41.06.608,threat_forest,2021.2.3,59.928038409441314,True,47.0,0.6333333333333333,0.4499999999999999,-0.0777777777777778,-0.6027777777777779,1,1,1.0,-0.3019776355077676,0.0610993227861605,0.6,0.6,0.6,0.0,1.4,1.4,6.4,6.4,0.0,2.0,-1.0,5.0,0,1,1,1,0.0610993227861605,0.5587173304399229,0.24655227510600894,-0.222565736454404,0.6047342661399505,0.23903073349612597,-0.17029529291661072,0.45602395488919756,0.2480661074564127,-0.21318465347038462,0.5025377263008225,0.2499935599452221,-0.2449714372561953,0.4488488494605368,0.2473835597984892,-0.23200435661733643,0.6633268602434419,0.22332433672301916,-0.2190586089454943,0.693498221123859,0.21255843842190225,-0.35624797059212354,0.7592500369182197,0.1827894183579018,-0.3505362161580377,0.6043942355465707,0.23910184358464712,-0.24711744641378308,0.9248794725216621,0.06947743382971425,-0.31404580140690913,0.7320606532272199,0.19614785322375602,-0.18343049047659057
