miniblock.thisRepN,miniblock.thisTrialN,miniblock.thisN,miniblock.thisIndex,day.thisRepN,day.thisTrialN,day.thisN,day.thisIndex,forest.started,fixation_forest.started,fixation_forest.stopped,key_resp.keys,key_resp.rt,key_resp.started,Subject_ID,weather_left.started,weather_left.stopped,weather_right.started,weather_right.stopped,foraging T/F,in_LP,p/r heuristic,good_weather.T/F,p_succ_correct,p_succ_uncorrected,r_threat,n_oponents,gain_if_succ,weather_entropy,OP_value_difference,action_outcome,forest_side_L=0_R=1,out_LP,fixation_day.started,fixation_day.stopped,participant,session,date,expName,psychopyVersion,frameRate,foraging T/F NaNs,fora_NR,forest_mean_p,mvt_cutoff_p,forest_mean_ev,mvt_cutoff_ev,mvt_policy_eg,mvt_policy_p,fora_response,logRT,optimal policy,$\mathit{p}$ success cor + cap,$\mathit{p}$ success cor,$\mathit{p}$ success,risk threat encounter,expected gain naive,expected gain correct,expected state no bounds,expected state with bounds,weather type,gain magnitude,win stay lose shift,continuous energy state,binary energy state,$\mathit{p}$ success based MVT,expected gain based MVT,weather type fit,weather type_uncertain,weather type_uncertain_fit,risk threat encounter fit,risk threat encounter_uncertain,risk threat encounter_uncertain_fit,win stay lose shift fit,win stay lose shift_uncertain,win stay lose shift_uncertain_fit,$\mathit{p}$ success fit,$\mathit{p}$ success_uncertain,$\mathit{p}$ success_uncertain_fit,expected gain naive fit,expected gain naive_uncertain,expected gain naive_uncertain_fit,expected gain based MVT fit,expected gain based MVT_uncertain,expected gain based MVT_uncertain_fit,$\mathit{p}$ success cor fit,$\mathit{p}$ success cor_uncertain,$\mathit{p}$ success cor_uncertain_fit,binary energy state fit,binary energy state_uncertain,binary energy state_uncertain_fit,$\mathit{p}$ success cor + cap fit,$\mathit{p}$ success cor + cap_uncertain,$\mathit{p}$ success cor + cap_uncertain_fit,optimal policy fit,optimal policy_uncertain,optimal policy_uncertain_fit
0.0,0.0,0.0,0.0,0.0,0.0,0.0,0.0,74.77420830004849,78.27653100003954,None,left,2.629465200006962,79.32604070007801,tb12,79.32604070007801,None,74.77420830004849,78.27653100003954,True,4.0,['p'],True,0.2777777777777778,0.3333333333333333,0.1666666666666666,1.0,2.0,0.8929352898779304,0.0253296004142655,succ_gain,0.0,6.0,,,tb12,1,2022-04-08_11h57.49.347,threat_forest,2021.2.3,60.01734500504118,True,54.0,0.2777777777777778,0.2777777777777778,-1.1882716049382718,-1.1882716049382718,1,0,1,0.9667804795071137,0.0253296004142655,0.2777777777777778,0.2777777777777778,0.3333333333333333,0.8333333333333334,-1.1666666666666663,-1.0555555555555556,2.9444444444444446,2.9444444444444446,1.0,2.0,,4.0,0,0,1,0.4067781627216465,0.2413096890544482,0.48960427810433726,0.42793852955329387,0.24480714447705845,0.5223396037564085,,,,0.324124685066403,0.21906787359700808,0.5076649054965338,0.39863228943779055,0.23972458725537618,0.556028523119841,0.607374266651035,0.23847076686115243,0.561959987989086,0.3570242214952867,0.22955792676097117,0.5249115969893994,0.3144887209740747,0.2155855653541653,0.5570140577938701,0.2567696820654342,0.19083901243745002,0.5490854126161575,0.3995956752097004,0.23991897156340403,0.5408188020982516
0.0,0.0,0.0,0.0,1.0,0.0,1.0,0.0,,,,left,1.3089862000197172,87.18017810001038,tb12,81.97682570002507,83.97655410005245,87.18017810001038,None,False,6.0,['p'],False,0.1975308641975308,0.2222222222222222,0.1111111111111111,1.0,2.0,0.7461067557824965,-0.0870428740192486,wait_cost,1.0,5.0,83.97655410005245,None,tb12,1,2022-04-08_11h57.49.347,threat_forest,2021.2.3,60.01734500504118,False,54.0,0.2777777777777778,0.2777777777777778,-1.1882716049382718,-1.1882716049382718,0,0,0,0.2692529444884767,-0.0870428740192486,0.1975308641975308,0.1975308641975308,0.2222222222222222,0.8888888888888888,-1.4444444444444444,-1.3209876543209875,4.679012345679013,4.679012345679013,0.0,2.0,1.0,6.0,0,0,0,0.46591120608739056,0.24883795412958365,0.5475860240475894,0.41854216931946786,0.24336462182082172,0.5425939950960466,0.423070999871104,0.24408192893916833,0.49960326987193326,0.2375908687860329,0.181141447855531,0.4483329112350656,0.33057086386765494,0.2212937678294473,0.5106591404711985,0.2894772402988616,0.20568016764781677,0.4812401021822241,0.2696192328812757,0.19692470214178812,0.44320786785926086,0.3144887209740747,0.2155855653541653,0.5570140577938701,0.18667965167561365,0.1518303593258852,0.4941997068638414,0.23614252676238046,0.18037923381665885,0.4728068787934806
0.0,0.0,0.0,0.0,2.0,0.0,2.0,0.0,,,,right,1.5988177000544963,92.1272393000545,tb12,92.1272393000545,None,88.51028560008854,90.51002460008021,False,5.0,['p'],True,0.2777777777777778,0.3333333333333333,0.1666666666666666,1.0,2.0,0.8929352898779304,0.0481283927074388,wait_cost,0.0,4.0,90.5100246000802,None,tb12,1,2022-04-08_11h57.49.347,threat_forest,2021.2.3,60.01734500504118,False,54.0,0.2777777777777778,0.2777777777777778,-1.1882716049382718,-1.1882716049382718,1,0,0,0.4692644186309382,0.0481283927074388,0.2777777777777778,0.2777777777777778,0.3333333333333333,0.8333333333333334,-1.1666666666666663,-1.0555555555555556,3.9444444444444446,3.9444444444444446,1.0,2.0,-1.0,5.0,0,0,1,0.4067781627216465,0.2413096890544482,0.48960427810433726,0.42793852955329387,0.24480714447705845,0.5223396037564085,0.43666613153153394,0.24598882110481904,0.5202964898133184,0.324124685066403,0.21906787359700808,0.5076649054965338,0.39863228943779055,0.23972458725537618,0.556028523119841,0.607374266651035,0.23847076686115243,0.561959987989086,0.3570242214952867,0.22955792676097117,0.5249115969893994,0.3144887209740747,0.2155855653541653,0.5570140577938701,0.2567696820654342,0.19083901243745002,0.5490854126161575,0.4374351243829325,0.24608563633902092,0.5478629502191159
0.0,0.0,0.0,0.0,3.0,0.0,3.0,0.0,,,,right,1.866705600055866,98.09396590001415,tb12,98.09396590001415,None,88.51028560008854,90.51002460008021,False,4.0,['p'],True,0.2777777777777778,0.3333333333333333,0.1666666666666666,1.0,2.0,0.8929352898779304,0.0504138649288755,wait_cost,0.0,3.0,95.7434149000328,None,tb12,1,2022-04-08_11h57.49.347,threat_forest,2021.2.3,60.01734500504118,False,54.0,0.2777777777777778,0.2777777777777778,-1.1882716049382718,-1.1882716049382718,1,0,0,0.6241751660282714,0.0504138649288755,0.2777777777777778,0.2777777777777778,0.3333333333333333,0.8333333333333334,-1.1666666666666663,-1.0555555555555556,2.9444444444444446,2.9444444444444446,1.0,2.0,-1.0,4.0,0,0,1,0.4067781627216465,0.2413096890544482,0.48960427810433726,0.42793852955329387,0.24480714447705845,0.5223396037564085,0.43666613153153394,0.24598882110481904,0.5202964898133184,0.324124685066403,0.21906787359700808,0.5076649054965338,0.39863228943779055,0.23972458725537618,0.556028523119841,0.607374266651035,0.23847076686115243,0.561959987989086,0.3570242214952867,0.22955792676097117,0.5249115969893994,0.3144887209740747,0.2155855653541653,0.5570140577938701,0.2567696820654342,0.19083901243745002,0.5490854126161575,0.44127659062900054,0.24655156119184599,0.5483951736812164
0.0,0.0,0.0,0.0,4.0,0.0,4.0,0.0,,,,right,1.8519413999747485,105.26082180009688,tb12,105.26082180009688,None,88.51028560008854,90.51002460008021,False,3.0,['p'],True,0.2777777777777778,0.3333333333333333,0.1666666666666666,1.0,2.0,0.8929352898779304,0.1520919067215363,wait_cost,0.0,2.0,101.9768492000876,None,tb12,1,2022-04-08_11h57.49.347,threat_forest,2021.2.3,60.01734500504118,False,54.0,0.2777777777777778,0.2777777777777778,-1.1882716049382718,-1.1882716049382718,1,0,0,0.6162344942410681,0.1520919067215363,0.2777777777777778,0.2777777777777778,0.3333333333333333,0.8333333333333334,-1.1666666666666663,-1.0555555555555556,1.9444444444444444,1.9444444444444444,1.0,2.0,-1.0,3.0,0,0,1,0.4067781627216465,0.2413096890544482,0.48960427810433726,0.42793852955329387,0.24480714447705845,0.5223396037564085,0.43666613153153394,0.24598882110481904,0.5202964898133184,0.324124685066403,0.21906787359700808,0.5076649054965338,0.39863228943779055,0.23972458725537618,0.556028523119841,0.607374266651035,0.23847076686115243,0.561959987989086,0.3570242214952867,0.22955792676097117,0.5249115969893994,0.3144887209740747,0.2155855653541653,0.5570140577938701,0.2567696820654342,0.19083901243745002,0.5490854126161575,0.6125010095231026,0.23734352285628277,0.5378768808440944
0.0,0.0,0.0,0.0,5.0,0.0,5.0,0.0,,,,right,2.318957299925387,110.11068670009264,tb12,110.11068670009264,None,88.51028560008854,90.51002460008021,False,2.0,['p'],True,0.2777777777777778,0.3333333333333333,0.1666666666666666,1.0,2.0,0.8929352898779304,0.0401234567901234,wait_cost,0.0,1.0,109.14365300000644,None,tb12,1,2022-04-08_11h57.49.347,threat_forest,2021.2.3,60.01734500504118,False,54.0,0.2777777777777778,0.2777777777777778,-1.1882716049382718,-1.1882716049382718,1,0,0,0.8411176449625972,0.0401234567901234,0.2777777777777778,0.2777777777777778,0.3333333333333333,0.8333333333333334,-1.1666666666666663,-1.0555555555555556,0.9444444444444444,0.9444444444444444,1.0,2.0,-1.0,2.0,0,0,1,0.4067781627216465,0.2413096890544482,0.48960427810433726,0.42793852955329387,0.24480714447705845,0.5223396037564085,0.43666613153153394,0.24598882110481904,0.5202964898133184,0.324124685066403,0.21906787359700808,0.5076649054965338,0.39863228943779055,0.23972458725537618,0.556028523119841,0.607374266651035,0.23847076686115243,0.561959987989086,0.3570242214952867,0.22955792676097117,0.5249115969893994,0.3144887209740747,0.2155855653541653,0.5570140577938701,0.2567696820654342,0.19083901243745002,0.5490854126161575,0.42404222764699734,0.24423041681916943,0.5457437429052653
0.0,0.0,0.0,0.0,6.0,0.0,6.0,0.0,,,,left,2.376938499975949,116.02751010004432,tb12,116.02751010004432,None,88.51028560008854,90.51002460008021,True,1.0,['p'],True,0.2777777777777778,0.3333333333333333,0.1666666666666666,1.0,2.0,0.8929352898779304,0.2777777777777777,unsucc_cost,0.0,0.0,114.460485800053,None,tb12,1,2022-04-08_11h57.49.347,threat_forest,2021.2.3,60.01734500504118,True,54.0,0.2777777777777778,0.2777777777777778,-1.1882716049382718,-1.1882716049382718,1,0,1,0.8658133150841324,0.2777777777777777,1.0,0.2777777777777778,0.3333333333333333,0.8333333333333334,-1.1666666666666663,-1.0555555555555556,-0.0555555555555555,0.0,1.0,2.0,-1.0,1.0,1,0,1,0.4067781627216465,0.2413096890544482,0.48960427810433726,0.42793852955329387,0.24480714447705845,0.5223396037564085,0.43666613153153394,0.24598882110481904,0.5202964898133184,0.324124685066403,0.21906787359700808,0.5076649054965338,0.39863228943779055,0.23972458725537618,0.556028523119841,0.607374266651035,0.23847076686115243,0.561959987989086,0.3570242214952867,0.22955792676097117,0.5249115969893994,0.9285755291639817,0.06632301580181317,0.3628588443025457,0.9319676211384369,0.06340397428799982,0.36978257982154616,0.7884286310040365,0.16680892481713738,0.4573055875579821
1.0,0.0,1.0,0.0,0.0,0.0,0.0,0.0,121.69325000001118,125.19387800002004,None,right,1.7663077000761405,126.56318700010888,tb12,121.69325000001118,125.19387800002005,126.56318700010888,None,True,5.0,['r'],False,0.345679012345679,0.4444444444444444,0.2222222222222222,2.0,2.0,0.9685033186841367,-0.0052446797245716,unsucc_cost,1.0,3.0,,,tb12,1,2022-04-08_11h57.49.347,threat_forest,2021.2.3,60.01734500504118,True,52.0,0.4365079365079364,0.3571428571428571,-0.5626102292768962,-0.875440917107584,1,0,1,0.568891322608212,-0.0052446797245716,0.345679012345679,0.345679012345679,0.4444444444444444,0.7777777777777778,-0.888888888888889,-0.8395061728395062,4.160493827160494,4.160493827160494,0.0,2.0,-1.0,5.0,0,0,1,0.46591120608739056,0.24883795412958365,0.5475860240475894,0.43738715797648386,0.24607963201373817,0.5044726673646012,0.43666613153153394,0.24598882110481904,0.5202964898133184,0.42462208436363624,0.24431816983431726,0.5471663982463236,0.47085057370280076,0.2491503109465442,0.5792309242178282,0.607374266651035,0.23847076686115243,0.561959987989086,0.43958178032831435,0.246349638731704,0.5669529674790807,0.3144887209740747,0.2155855653541653,0.5570140577938701,0.32809134676484925,0.22044741494287667,0.5907448378483299,0.3507419075008042,0.22772202182350149,0.526886291784033
1.0,0.0,1.0,0.0,1.0,0.0,1.0,0.0,,,,right,1.613425699993968,133.79424620000646,tb12,121.69325000001118,125.19387800002005,133.79424620000646,None,True,3.0,['r'],False,0.345679012345679,0.4444444444444444,0.2222222222222222,2.0,2.0,0.9685033186841367,0.0688188688757238,figh_cost,1.0,0.0,130.3605525000021,None,tb12,1,2022-04-08_11h57.49.347,threat_forest,2021.2.3,60.01734500504118,True,52.0,0.4365079365079364,0.3571428571428571,-0.5626102292768962,-0.875440917107584,1,0,1,0.4783596824839707,0.0688188688757238,0.345679012345679,0.345679012345679,0.4444444444444444,0.7777777777777778,-0.888888888888889,-0.8395061728395062,2.1604938271604937,2.1604938271604937,0.0,2.0,-1.0,3.0,0,0,1,0.46591120608739056,0.24883795412958365,0.5475860240475894,0.43738715797648386,0.24607963201373817,0.5044726673646012,0.43666613153153394,0.24598882110481904,0.5202964898133184,0.42462208436363624,0.24431816983431726,0.5471663982463236,0.47085057370280076,0.2491503109465442,0.5792309242178282,0.607374266651035,0.23847076686115243,0.561959987989086,0.43958178032831435,0.246349638731704,0.5669529674790807,0.3144887209740747,0.2155855653541653,0.5570140577938701,0.32809134676484925,0.22044741494287667,0.5907448378483299,0.4724298586207774,0.24923988730432967,0.5514660341905147
2.0,0.0,2.0,0.0,0.0,0.0,0.0,0.0,138.56607610010542,142.0773786000209,None,left,1.4704790000105277,143.12808180006687,tb12,143.12808180006687,None,138.56607610010542,142.0773786000209,True,4.0,['p'],True,0.4444444444444445,0.6666666666666666,0.3333333333333333,1.0,2.0,0.9656336071428248,0.0662691154803637,succ_gain,0.0,6.0,,,tb12,1,2022-04-08_11h57.49.347,threat_forest,2021.2.3,60.01734500504118,True,25.0,0.4444444444444444,0.4404761904761904,-0.8333333333333334,-0.6979717813051147,1,1,1,0.3855881980602482,0.0662691154803637,0.4444444444444445,0.4444444444444445,0.6666666666666666,0.6666666666666667,-0.3333333333333335,-0.5555555555555556,3.4444444444444446,3.4444444444444446,1.0,2.0,-1.0,4.0,0,1,1,0.4067781627216465,0.2413096890544482,0.48960427810433726,0.45641461788043086,0.24810031446549116,0.4761003621020161,0.43666613153153394,0.24598882110481904,0.5202964898133184,0.636054044965845,0.23148929684843184,0.5270969452594254,0.6158911154222031,0.23656924936619755,0.5482613300953947,0.607374266651035,0.23847076686115243,0.561959987989086,0.564539010345413,0.24583471614363472,0.5656637569842689,0.3144887209740747,0.2155855653541653,0.5570140577938701,0.44681120112450107,0.2471709516741817,0.6283452176794597,0.46809558662266126,0.24898210840704785,0.5511715747378028
2.0,0.0,2.0,0.0,1.0,0.0,1.0,0.0,,,,left,0.7870961000444368,149.22780710004736,tb12,149.22780710004736,None,138.56607610010542,142.0773786000209,True,6.0,['p'],True,0.4444444444444445,0.6666666666666666,0.3333333333333333,1.0,2.0,0.9656336071428248,-0.0736168267032464,figh_cost,0.0,3.0,146.62789010000415,None,tb12,1,2022-04-08_11h57.49.347,threat_forest,2021.2.3,60.01734500504118,True,25.0,0.4444444444444444,0.4404761904761904,-0.8333333333333334,-0.6979717813051147,1,1,1,-0.2394049286872774,-0.0736168267032464,0.4444444444444445,0.4444444444444445,0.6666666666666666,0.6666666666666667,-0.3333333333333335,-0.5555555555555556,5.444444444444445,5.444444444444445,1.0,2.0,1.0,6.0,0,1,1,0.4067781627216465,0.2413096890544482,0.48960427810433726,0.45641461788043086,0.24810031446549116,0.4761003621020161,0.423070999871104,0.24408192893916833,0.49960326987193326,0.636054044965845,0.23148929684843184,0.5270969452594254,0.6158911154222031,0.23656924936619755,0.5482613300953947,0.607374266651035,0.23847076686115243,0.561959987989086,0.564539010345413,0.24583471614363472,0.5656637569842689,0.3144887209740747,0.2155855653541653,0.5570140577938701,0.44681120112450107,0.2471709516741817,0.6283452176794597,0.25306526251606376,0.18902323542373953,0.48268087549880245
2.0,0.0,2.0,0.0,2.0,0.0,2.0,0.0,,,,left,0.8999748000642285,155.044940300053,tb12,155.044940300053,None,138.56607610010542,142.0773786000209,True,3.0,['p'],True,0.4444444444444445,0.6666666666666666,0.3333333333333333,1.0,2.0,0.9656336071428248,0.1121399176954732,unsucc_cost,0.0,1.0,152.04431970010046,None,tb12,1,2022-04-08_11h57.49.347,threat_forest,2021.2.3,60.01734500504118,True,25.0,0.4444444444444444,0.4404761904761904,-0.8333333333333334,-0.6979717813051147,1,1,1,-0.1053885159784666,0.1121399176954732,0.4444444444444445,0.4444444444444445,0.6666666666666666,0.6666666666666667,-0.3333333333333335,-0.5555555555555556,2.4444444444444446,2.4444444444444446,1.0,2.0,-1.0,3.0,0,1,1,0.4067781627216465,0.2413096890544482,0.48960427810433726,0.45641461788043086,0.24810031446549116,0.4761003621020161,0.43666613153153394,0.24598882110481904,0.5202964898133184,0.636054044965845,0.23148929684843184,0.5270969452594254,0.6158911154222031,0.23656924936619755,0.5482613300953947,0.607374266651035,0.23847076686115243,0.561959987989086,0.564539010345413,0.24583471614363472,0.5656637569842689,0.3144887209740747,0.2155855653541653,0.5570140577938701,0.44681120112450107,0.2471709516741817,0.6283452176794597,0.5461723598315952,0.24786811318758167,0.5498990639694401
2.0,0.0,2.0,0.0,3.0,0.0,3.0,0.0,,,,left,1.076657099998556,160.87813130009454,tb12,160.87813130009454,None,138.56607610010542,142.0773786000209,True,1.0,['p'],True,0.4444444444444445,0.6666666666666666,0.3333333333333333,1.0,2.0,0.9656336071428248,0.2222222222222222,figh_cost,0.0,0.0,157.96102510008495,None,tb12,1,2022-04-08_11h57.49.347,threat_forest,2021.2.3,60.01734500504118,True,25.0,0.4444444444444444,0.4404761904761904,-0.8333333333333334,-0.6979717813051147,1,1,1,0.0738609630767221,0.2222222222222222,1.0,0.4444444444444445,0.6666666666666666,0.6666666666666667,-0.3333333333333335,-0.5555555555555556,0.4444444444444444,0.4444444444444444,1.0,2.0,-1.0,1.0,1,1,1,0.4067781627216465,0.2413096890544482,0.48960427810433726,0.45641461788043086,0.24810031446549116,0.4761003621020161,0.43666613153153394,0.24598882110481904,0.5202964898133184,0.636054044965845,0.23148929684843184,0.5270969452594254,0.6158911154222031,0.23656924936619755,0.5482613300953947,0.607374266651035,0.23847076686115243,0.561959987989086,0.564539010345413,0.24583471614363472,0.5656637569842689,0.9285755291639817,0.06632301580181317,0.3628588443025457,0.9319676211384369,0.06340397428799982,0.36978257982154616,0.7183689251739812,0.20231501251836015,0.4978640012322185
3.0,0.0,3.0,0.0,0.0,0.0,0.0,0.0,164.54800990002695,168.06112970004324,None,right,1.6978186999913305,168.89524810004514,tb12,164.54800990002695,168.06112970004324,168.89524810004514,None,True,5.0,['r'],False,0.2222222222222222,0.6666666666666666,0.6666666666666666,2.0,2.0,0.77250688571426,-0.023281607963558,figh_cost,1.0,2.0,,,tb12,1,2022-04-08_11h57.49.347,threat_forest,2021.2.3,60.01734500504118,True,34.0,0.4583333333333333,0.4513888888888888,-1.3888888888888888,-1.1111111111111112,0,0,1,0.5293443095097078,-0.023281607963558,0.2222222222222222,0.2222222222222222,0.6666666666666666,0.3333333333333333,-1.3333333333333337,-1.777777777777778,3.2222222222222223,3.2222222222222223,0.0,2.0,-1.0,5.0,0,0,0,0.46591120608739056,0.24883795412958365,0.5475860240475894,0.5140408931009445,0.24980285332092786,0.4521950957965868,0.43666613153153394,0.24598882110481904,0.5202964898133184,0.636054044965845,0.23148929684843184,0.5270969452594254,0.35713303990170564,0.22958903171227235,0.5310787969484301,0.2894772402988616,0.20568016764781677,0.4812401021822241,0.2950588852737677,0.2079991394947693,0.4709349110894531,0.3144887209740747,0.2155855653541653,0.5570140577938701,0.20653914800631162,0.16388072834713852,0.5111547400564961,0.32325387861500976,0.21876080857536231,0.516649945921333
3.0,0.0,3.0,0.0,1.0,0.0,1.0,0.0,,,,right,1.5723442999878898,173.9284625001019,tb12,173.9284625001019,None,170.6116503000958,172.6112095999997,False,2.0,['r'],True,0.25,0.25,0.0,0.0,2.0,0.5118595071429148,0.0110650198467983,wait_cost,0.0,1.0,172.6112095999997,None,tb12,1,2022-04-08_11h57.49.347,threat_forest,2021.2.3,60.01734500504118,False,34.0,0.4583333333333333,0.4513888888888888,-1.3888888888888888,-1.1111111111111112,1,0,0,0.4525676903740902,0.0110650198467983,0.25,0.25,0.25,1.0,-1.0,-1.0,1.0,1.0,1.0,2.0,-1.0,2.0,0,0,1,0.4067781627216465,0.2413096890544482,0.48960427810433726,0.39993195607963783,0.23998638658595245,0.59002763379043,0.43666613153153394,0.24598882110481904,0.5202964898133184,0.257659331966216,0.19127100061693933,0.46417955521907395,0.4416409705177855,0.246594223677894,0.57293884904229,0.607374266651035,0.23847076686115243,0.561959987989086,0.32527781914828646,0.2194721595184211,0.4996598848318908,0.3144887209740747,0.2155855653541653,0.5570140577938701,0.23069866756796428,0.1774767923503302,0.5302845871223412,0.3764867320028007,0.23474447262865206,0.5349079996995594
3.0,0.0,3.0,0.0,2.0,0.0,2.0,0.0,,,,right,1.2885002000257373,179.77846770000178,tb12,175.52819880004972,177.52811260009184,179.77846770000178,None,True,1.0,['r'],False,0.2222222222222222,0.6666666666666666,0.6666666666666666,2.0,2.0,0.77250688571426,0.0614298893318472,figh_cost,1.0,0.0,177.52811260009184,None,tb12,1,2022-04-08_11h57.49.347,threat_forest,2021.2.3,60.01734500504118,True,34.0,0.4583333333333333,0.4513888888888888,-1.3888888888888888,-1.1111111111111112,0,0,1,0.2534789063494924,0.0614298893318472,1.0,0.2222222222222222,0.6666666666666666,0.3333333333333333,-1.3333333333333337,-1.777777777777778,-0.7777777777777779,0.0,0.0,2.0,-1.0,1.0,1,0,0,0.46591120608739056,0.24883795412958365,0.5475860240475894,0.5140408931009445,0.24980285332092786,0.4521950957965868,0.43666613153153394,0.24598882110481904,0.5202964898133184,0.636054044965845,0.23148929684843184,0.5270969452594254,0.35713303990170564,0.22958903171227235,0.5310787969484301,0.2894772402988616,0.20568016764781677,0.4812401021822241,0.2950588852737677,0.2079991394947693,0.4709349110894531,0.9285755291639817,0.06632301580181317,0.3628588443025457,0.9319676211384369,0.06340397428799982,0.36978257982154616,0.45988324512516576,0.2483906459783125,0.550495950375601
4.0,0.0,4.0,0.0,0.0,0.0,0.0,0.0,184.0498308000388,187.561450600042,None,right,1.549255899968557,188.54528630001005,tb12,184.0498308000388,187.561450600042,188.54528630001005,None,True,4.0,['r'],False,0.4081632653061224,0.5714285714285714,0.2857142857142857,2.0,2.0,0.9885754083994552,0.0102904310319958,succ_gain,1.0,6.0,,,tb12,1,2022-04-08_11h57.49.347,threat_forest,2021.2.3,60.01734500504118,True,14.0,0.5357142857142857,0.4970238095238095,-0.326530612244898,-0.8577097505668934,1,0,1,0.4377747511268687,0.0102904310319958,0.4081632653061224,0.4081632653061224,0.5714285714285714,0.7142857142857143,-0.5714285714285715,-0.653061224489796,3.346938775510204,3.346938775510204,0.0,2.0,-1.0,4.0,0,0,1,0.46591120608739056,0.24883795412958365,0.5475860240475894,0.44824109736857304,0.24732101599839046,0.48704245445307537,0.43666613153153394,0.24598882110481904,0.5202964898133184,0.5470613577114658,0.2477852286103534,0.5525902552901205,0.5547222930250909,0.24700547064607611,0.5739511763095356,0.607374266651035,0.23847076686115243,0.561959987989086,0.5187476379391202,0.24964852607170368,0.5752123840952288,0.3144887209740747,0.2155855653541653,0.5570140577938701,0.40168796129257117,0.24033474304518904,0.6187265791122876,0.3752467887280087,0.23443663627732597,0.5345563598853924
4.0,0.0,4.0,0.0,1.0,0.0,1.0,0.0,,,,right,1.2773116999305785,194.32881210010964,tb12,184.0498308000388,187.561450600042,194.32881210010964,None,True,6.0,['r'],False,0.4081632653061224,0.5714285714285714,0.2857142857142857,2.0,2.0,0.9885754083994552,-0.0789184913550894,unsucc_cost,1.0,4.0,192.11153320001904,None,tb12,1,2022-04-08_11h57.49.347,threat_forest,2021.2.3,60.01734500504118,True,14.0,0.5357142857142857,0.4970238095238095,-0.326530612244898,-0.8577097505668934,1,0,1,0.244757634917055,-0.0789184913550894,0.4081632653061224,0.4081632653061224,0.5714285714285714,0.7142857142857143,-0.5714285714285715,-0.653061224489796,5.346938775510204,5.346938775510204,0.0,2.0,1.0,6.0,0,0,1,0.46591120608739056,0.24883795412958365,0.5475860240475894,0.44824109736857304,0.24732101599839046,0.48704245445307537,0.423070999871104,0.24408192893916833,0.49960326987193326,0.5470613577114658,0.2477852286103534,0.5525902552901205,0.5547222930250909,0.24700547064607611,0.5739511763095356,0.607374266651035,0.23847076686115243,0.561959987989086,0.5187476379391202,0.24964852607170368,0.5752123840952288,0.3144887209740747,0.2155855653541653,0.5570140577938701,0.40168796129257117,0.24033474304518904,0.6187265791122876,0.24628825933061976,0.18563035264651312,0.478805203687678
4.0,0.0,4.0,0.0,2.0,0.0,2.0,0.0,,,,right,1.0457118999911472,199.96220720000565,tb12,184.0498308000388,187.561450600042,199.96220720000565,None,True,4.0,['r'],False,0.4081632653061224,0.5714285714285714,0.2857142857142857,2.0,2.0,0.9885754083994552,0.0189972956406039,unsucc_cost,1.0,2.0,197.6284020000603,None,tb12,1,2022-04-08_11h57.49.347,threat_forest,2021.2.3,60.01734500504118,True,14.0,0.5357142857142857,0.4970238095238095,-0.326530612244898,-0.8577097505668934,1,0,1,0.0446978974860736,0.0189972956406039,0.4081632653061224,0.4081632653061224,0.5714285714285714,0.7142857142857143,-0.5714285714285715,-0.653061224489796,3.346938775510204,3.346938775510204,0.0,2.0,-1.0,4.0,0,0,1,0.46591120608739056,0.24883795412958365,0.5475860240475894,0.44824109736857304,0.24732101599839046,0.48704245445307537,0.43666613153153394,0.24598882110481904,0.5202964898133184,0.5470613577114658,0.2477852286103534,0.5525902552901205,0.5547222930250909,0.24700547064607611,0.5739511763095356,0.607374266651035,0.23847076686115243,0.561959987989086,0.5187476379391202,0.24964852607170368,0.5752123840952288,0.3144887209740747,0.2155855653541653,0.5570140577938701,0.40168796129257117,0.24033474304518904,0.6187265791122876,0.38927522356191774,0.2377400238827367,0.5383298018414315
4.0,0.0,4.0,0.0,3.0,0.0,3.0,0.0,,,,right,1.938621300039813,203.9122977000661,tb12,184.0498308000388,187.561450600042,203.9122977000661,None,True,2.0,['r'],False,0.4081632653061224,0.5714285714285714,0.2857142857142857,2.0,2.0,0.9885754083994552,0.00099939757244,figh_cost,1.0,0.0,203.0284755000612,None,tb12,1,2022-04-08_11h57.49.347,threat_forest,2021.2.3,60.01734500504118,True,14.0,0.5357142857142857,0.4970238095238095,-0.326530612244898,-0.8577097505668934,1,0,1,0.6619770503469774,0.00099939757244,0.4081632653061224,0.4081632653061224,0.5714285714285714,0.7142857142857143,-0.5714285714285715,-0.653061224489796,1.346938775510204,1.346938775510204,0.0,2.0,-1.0,2.0,0,0,1,0.46591120608739056,0.24883795412958365,0.5475860240475894,0.44824109736857304,0.24732101599839046,0.48704245445307537,0.43666613153153394,0.24598882110481904,0.5202964898133184,0.5470613577114658,0.2477852286103534,0.5525902552901205,0.5547222930250909,0.24700547064607611,0.5739511763095356,0.607374266651035,0.23847076686115243,0.561959987989086,0.5187476379391202,0.24964852607170368,0.5752123840952288,0.3144887209740747,0.2155855653541653,0.5570140577938701,0.40168796129257117,0.24033474304518904,0.6187265791122876,0.36050522880630337,0.2305412088096182,0.5301066339678893
5.0,0.0,5.0,0.0,1.0,0.0,1.0,0.0,,,,right,1.5617458000779152,224.1461380000692,tb12,210.0622581000207,213.56189760006964,224.1461380000692,None,True,3.0,['r'],False,0.5,0.5,0.0,0.0,2.0,0.6309297535714574,0.1821844993141289,unsucc_cost,1.0,1.0,220.96200830000453,None,tb12,1,2022-04-08_11h57.49.347,threat_forest,2021.2.3,60.01734500504118,True,49.0,0.5833333333333333,0.5595238095238095,-0.888888888888889,-0.6077097505668935,1,0,1,0.4458042981469562,0.1821844993141289,0.5,0.5,0.5,1.0,0.0,0.0,3.0,3.0,0.0,2.0,-1.0,3.0,0,0,1,0.46591120608739056,0.24883795412958365,0.5475860240475894,0.39993195607963783,0.23998638658595245,0.59002763379043,0.43666613153153394,0.24598882110481904,0.5202964898133184,0.4779390590378092,0.24951331488386275,0.5552936686189185,0.6953959452329069,0.21182042458653877,0.4873395188842821,0.607374266651035,0.23847076686115243,0.561959987989086,0.6323333843947624,0.232487875374628,0.532247302568269,0.3144887209740747,0.2155855653541653,0.5570140577938701,0.5173741367904221,0.24969813937078772,0.6319010051582041,0.6599743796577049,0.22440819785313246,0.5231009284242394
5.0,0.0,5.0,0.0,2.0,0.0,2.0,0.0,,,,right,1.7701838999055326,230.89601160003804,tb12,210.0622581000207,213.56189760006964,230.89601160003804,None,True,1.0,['r'],False,0.5,0.5,0.0,0.0,2.0,0.6309297535714574,0.257716049382716,succ_gain,1.0,3.0,227.72897920000835,None,tb12,1,2022-04-08_11h57.49.347,threat_forest,2021.2.3,60.01734500504118,True,49.0,0.5833333333333333,0.5595238095238095,-0.888888888888889,-0.6077097505668935,1,0,1,0.5710834394404016,0.257716049382716,1.0,0.5,0.5,1.0,0.0,0.0,1.0,1.0,0.0,2.0,-1.0,1.0,1,0,1,0.46591120608739056,0.24883795412958365,0.5475860240475894,0.39993195607963783,0.23998638658595245,0.59002763379043,0.43666613153153394,0.24598882110481904,0.5202964898133184,0.4779390590378092,0.24951331488386275,0.5552936686189185,0.6953959452329069,0.21182042458653877,0.4873395188842821,0.607374266651035,0.23847076686115243,0.561959987989086,0.6323333843947624,0.232487875374628,0.532247302568269,0.9285755291639817,0.06632301580181317,0.3628588443025457,0.9319676211384369,0.06340397428799982,0.36978257982154616,0.7646931748230833,0.17993752320207665,0.47230231512594056
5.0,0.0,5.0,0.0,3.0,0.0,3.0,0.0,,,,right,2.432587899966165,235.44624740001743,tb12,210.0622581000207,213.56189760006964,235.44624740001743,None,True,3.0,['r'],False,0.5,0.5,0.0,0.0,2.0,0.6309297535714574,0.169753086419753,unsucc_cost,1.0,1.0,234.69546190008987,None,tb12,1,2022-04-08_11h57.49.347,threat_forest,2021.2.3,60.01734500504118,True,49.0,0.5833333333333333,0.5595238095238095,-0.888888888888889,-0.6077097505668935,1,0,1,0.8889556700741349,0.169753086419753,0.5,0.5,0.5,1.0,0.0,0.0,3.0,3.0,0.0,2.0,1.0,3.0,0,0,1,0.46591120608739056,0.24883795412958365,0.5475860240475894,0.39993195607963783,0.23998638658595245,0.59002763379043,0.423070999871104,0.24408192893916833,0.49960326987193326,0.4779390590378092,0.24951331488386275,0.5552936686189185,0.6953959452329069,0.21182042458653877,0.4873395188842821,0.607374266651035,0.23847076686115243,0.561959987989086,0.6323333843947624,0.232487875374628,0.532247302568269,0.3144887209740747,0.2155855653541653,0.5570140577938701,0.5173741367904221,0.24969813937078772,0.6319010051582041,0.6406880826213321,0.23020686340833327,0.5297247130080385
5.0,0.0,5.0,0.0,4.0,0.0,4.0,0.0,,,,left,1.1175753000425177,242.02947960002348,tb12,242.02947960002348,None,237.8956382001052,239.8958598000463,True,1.0,['r'],True,0.2222222222222222,0.6666666666666666,0.6666666666666666,2.0,2.0,0.77250688571426,0.1234567901234567,figh_cost,0.0,0.0,239.8958598000463,None,tb12,1,2022-04-08_11h57.49.347,threat_forest,2021.2.3,60.01734500504118,True,49.0,0.5833333333333333,0.5595238095238095,-0.888888888888889,-0.6077097505668935,0,0,1,0.1111614278238649,0.1234567901234567,1.0,0.2222222222222222,0.6666666666666666,0.3333333333333333,-1.3333333333333337,-1.777777777777778,-0.7777777777777779,0.0,1.0,2.0,-1.0,1.0,1,0,0,0.4067781627216465,0.2413096890544482,0.48960427810433726,0.5140408931009445,0.24980285332092786,0.4521950957965868,0.43666613153153394,0.24598882110481904,0.5202964898133184,0.636054044965845,0.23148929684843184,0.5270969452594254,0.35713303990170564,0.22958903171227235,0.5310787969484301,0.2894772402988616,0.20568016764781677,0.4812401021822241,0.2950588852737677,0.2079991394947693,0.4709349110894531,0.9285755291639817,0.06632301580181317,0.3628588443025457,0.9319676211384369,0.06340397428799982,0.36978257982154616,0.5652360079271468,0.24574426326972923,0.5474730015917684
6.0,0.0,6.0,0.0,1.0,0.0,1.0,0.0,,,,right,1.5770074999891222,261.6963465000736,tb12,261.6963465000736,None,247.7183327000821,251.22912450006697,False,4.0,['r'],True,0.5,0.5,0.0,0.0,1.0,0.6309297535714574,0.0899569925716803,wait_cost,0.0,3.0,258.1458645000821,None,tb12,1,2022-04-08_11h57.49.347,threat_forest,2021.2.3,60.01734500504118,False,35.0,0.5357142857142857,0.5595238095238095,-0.7806122448979592,-0.8347505668934241,1,0,0,0.4555290638282619,0.0899569925716803,0.5,0.5,0.5,1.0,-0.5,-0.5,3.5,3.5,1.0,1.0,-1.0,4.0,0,0,1,0.4067781627216465,0.2413096890544482,0.48960427810433726,0.39993195607963783,0.23998638658595245,0.59002763379043,0.43666613153153394,0.24598882110481904,0.5202964898133184,0.4779390590378092,0.24951331488386275,0.5552936686189185,0.5733376510804141,0.24462158893400743,0.568083003056653,0.607374266651035,0.23847076686115243,0.561959987989086,0.6323333843947624,0.232487875374628,0.532247302568269,0.3144887209740747,0.2155855653541653,0.5570140577938701,0.5173741367904221,0.24969813937078772,0.6319010051582041,0.5084610897138458,0.24992840996085422,0.5522525299306928
6.0,0.0,6.0,0.0,2.0,0.0,2.0,0.0,,,,right,1.873112500063144,269.0967702000635,tb12,263.2961014000466,265.29599810007494,269.0967702000635,None,True,3.0,['r'],False,0.4081632653061224,0.5714285714285714,0.2857142857142857,2.0,1.0,0.9885754083994552,0.0393590164311949,figh_cost,1.0,0.0,265.29599810007494,None,tb12,1,2022-04-08_11h57.49.347,threat_forest,2021.2.3,60.01734500504118,True,35.0,0.5357142857142857,0.5595238095238095,-0.7806122448979592,-0.8347505668934241,0,0,1,0.6276014857602278,0.0393590164311949,0.4081632653061224,0.4081632653061224,0.5714285714285714,0.7142857142857143,-1.1428571428571428,-1.0612244897959184,1.9387755102040816,1.9387755102040816,0.0,1.0,-1.0,3.0,0,0,0,0.46591120608739056,0.24883795412958365,0.5475860240475894,0.44824109736857304,0.24732101599839046,0.48704245445307537,0.43666613153153394,0.24598882110481904,0.5202964898133184,0.5470613577114658,0.2477852286103534,0.5525902552901205,0.4046975249595957,0.24091743825117312,0.5589648501501514,0.2894772402988616,0.20568016764781677,0.4812401021822241,0.5187476379391202,0.24964852607170368,0.5752123840952288,0.3144887209740747,0.2155855653541653,0.5570140577938701,0.40168796129257117,0.24033474304518904,0.6187265791122876,0.4227687539051438,0.24403533462663574,0.545520901562343
7.0,0.0,7.0,0.0,0.0,0.0,0.0,0.0,274.6546240000753,278.1627836000407,None,left,1.7935437000123784,278.8979595000856,tb12,274.6546240000753,278.1627836000407,278.8979595000856,None,False,4.0,['p'],False,0.2592592592592592,0.3333333333333333,0.2222222222222222,2.0,2.0,0.9327883776363324,0.0085887169934886,wait_cost,1.0,3.0,,,tb12,1,2022-04-08_11h57.49.347,threat_forest,2021.2.3,60.01734500504118,False,53.0,0.5,0.5178571428571428,-0.8703703703703706,-0.8254913076341649,0,0,0,0.5841933834655249,0.0085887169934886,0.2592592592592592,0.2592592592592592,0.3333333333333333,0.7777777777777778,-1.3333333333333337,-1.1851851851851856,2.8148148148148144,2.8148148148148144,0.0,2.0,-1.0,4.0,0,0,0,0.46591120608739056,0.24883795412958365,0.5475860240475894,0.43738715797648386,0.24607963201373817,0.5044726673646012,0.43666613153153394,0.24598882110481904,0.5202964898133184,0.324124685066403,0.21906787359700808,0.5076649054965338,0.35713303990170564,0.22958903171227235,0.5310787969484301,0.2894772402988616,0.20568016764781677,0.4812401021822241,0.3357001242165391,0.2230055508175393,0.508506428469023,0.3144887209740747,0.2155855653541653,0.5570140577938701,0.23917842263042774,0.18197210477844822,0.5366095528802916,0.37252848378422654,0.23375101255365185,0.5337731755806714
7.0,0.0,7.0,0.0,1.0,0.0,1.0,0.0,,,,left,1.2567764999112114,284.21311250003055,tb12,284.21311250003055,None,280.7131067001028,282.7129556,True,3.0,['p'],True,0.4444444444444445,0.6666666666666666,0.3333333333333333,1.0,2.0,0.9656336071428248,0.0862014495831168,unsucc_cost,0.0,1.0,282.7129556,None,tb12,1,2022-04-08_11h57.49.347,threat_forest,2021.2.3,60.01734500504118,True,53.0,0.5,0.5178571428571428,-0.8703703703703706,-0.8254913076341649,1,0,1,0.2285501094324619,0.0862014495831168,0.4444444444444445,0.4444444444444445,0.6666666666666666,0.6666666666666667,-0.3333333333333335,-0.5555555555555556,2.4444444444444446,2.4444444444444446,1.0,2.0,-1.0,3.0,0,0,1,0.4067781627216465,0.2413096890544482,0.48960427810433726,0.45641461788043086,0.24810031446549116,0.4761003621020161,0.43666613153153394,0.24598882110481904,0.5202964898133184,0.636054044965845,0.23148929684843184,0.5270969452594254,0.6158911154222031,0.23656924936619755,0.5482613300953947,0.607374266651035,0.23847076686115243,0.561959987989086,0.564539010345413,0.24583471614363472,0.5656637569842689,0.3144887209740747,0.2155855653541653,0.5570140577938701,0.44681120112450107,0.2471709516741817,0.6283452176794597,0.5020552151220941,0.24999577609080192,0.5523294818998606
7.0,0.0,7.0,0.0,2.0,0.0,2.0,0.0,,,,left,1.294476900016889,288.73031990008894,tb12,288.73031990008894,None,280.7131067001028,282.7129556,True,1.0,['p'],True,0.4444444444444445,0.6666666666666666,0.3333333333333333,1.0,2.0,0.9656336071428248,0.1956206490152873,succ_gain,0.0,3.0,287.4963269000873,None,tb12,1,2022-04-08_11h57.49.347,threat_forest,2021.2.3,60.01734500504118,True,53.0,0.5,0.5178571428571428,-0.8703703703703706,-0.8254913076341649,1,0,1,0.258106675335589,0.1956206490152873,1.0,0.4444444444444445,0.6666666666666666,0.6666666666666667,-0.3333333333333335,-0.5555555555555556,0.4444444444444444,0.4444444444444444,1.0,2.0,-1.0,1.0,1,0,1,0.4067781627216465,0.2413096890544482,0.48960427810433726,0.45641461788043086,0.24810031446549116,0.4761003621020161,0.43666613153153394,0.24598882110481904,0.5202964898133184,0.636054044965845,0.23148929684843184,0.5270969452594254,0.6158911154222031,0.23656924936619755,0.5482613300953947,0.607374266651035,0.23847076686115243,0.561959987989086,0.564539010345413,0.24583471614363472,0.5656637569842689,0.9285755291639817,0.06632301580181317,0.3628588443025457,0.9319676211384369,0.06340397428799982,0.36978257982154616,0.680237668989921,0.2175143826770797,0.5152261602983654
7.0,0.0,7.0,0.0,3.0,0.0,3.0,0.0,,,,left,1.5522524999687448,294.24793890002184,tb12,290.0466786000179,292.046419100021,294.24793890002184,None,False,3.0,['p'],False,0.2592592592592592,0.3333333333333333,0.2222222222222222,2.0,2.0,0.9327883776363324,-0.0509214569444209,wait_cost,1.0,2.0,292.046419100021,None,tb12,1,2022-04-08_11h57.49.347,threat_forest,2021.2.3,60.01734500504118,False,53.0,0.5,0.5178571428571428,-0.8703703703703706,-0.8254913076341649,0,0,0,0.4397071018067412,-0.0509214569444209,0.2592592592592592,0.2592592592592592,0.3333333333333333,0.7777777777777778,-1.3333333333333337,-1.1851851851851856,1.8148148148148144,1.8148148148148144,0.0,2.0,1.0,3.0,0,0,0,0.46591120608739056,0.24883795412958365,0.5475860240475894,0.43738715797648386,0.24607963201373817,0.5044726673646012,0.423070999871104,0.24408192893916833,0.49960326987193326,0.324124685066403,0.21906787359700808,0.5076649054965338,0.35713303990170564,0.22958903171227235,0.5310787969484301,0.2894772402988616,0.20568016764781677,0.4812401021822241,0.3357001242165391,0.2230055508175393,0.508506428469023,0.3144887209740747,0.2155855653541653,0.5570140577938701,0.23917842263042774,0.18197210477844822,0.5366095528802916,0.2834394758787846,0.2031015393923445,0.49876244666471437
7.0,0.0,7.0,0.0,4.0,0.0,4.0,0.0,,,,left,1.5195273999124763,299.2137810999993,tb12,290.0466786000179,292.046419100021,299.2137810999993,None,False,2.0,['p'],False,0.2592592592592592,0.3333333333333333,0.2222222222222222,2.0,2.0,0.9327883776363324,-0.0925925925925926,wait_cost,1.0,1.0,297.82979550003074,None,tb12,1,2022-04-08_11h57.49.347,threat_forest,2021.2.3,60.01734500504118,False,53.0,0.5,0.5178571428571428,-0.8703703703703706,-0.8254913076341649,0,0,0,0.4183993654019822,-0.0925925925925926,0.2592592592592592,0.2592592592592592,0.3333333333333333,0.7777777777777778,-1.3333333333333337,-1.1851851851851856,0.8148148148148144,0.8148148148148144,0.0,2.0,-1.0,2.0,0,0,0,0.46591120608739056,0.24883795412958365,0.5475860240475894,0.43738715797648386,0.24607963201373817,0.5044726673646012,0.43666613153153394,0.24598882110481904,0.5202964898133184,0.324124685066403,0.21906787359700808,0.5076649054965338,0.35713303990170564,0.22958903171227235,0.5310787969484301,0.2894772402988616,0.20568016764781677,0.4812401021822241,0.3357001242165391,0.2230055508175393,0.508506428469023,0.3144887209740747,0.2155855653541653,0.5570140577938701,0.23917842263042774,0.18197210477844822,0.5366095528802916,0.22938001914298303,0.1767648259609478,0.46867816007254165
7.0,0.0,7.0,0.0,5.0,0.0,5.0,0.0,,,,right,1.380406800075434,306.5307292001089,tb12,290.0466786000179,292.046419100021,306.5307292001089,None,True,1.0,['p'],False,0.2592592592592592,0.3333333333333333,0.2222222222222222,2.0,2.0,0.9327883776363324,0.2592592592592592,succ_gain,1.0,3.0,302.7632065000944,None,tb12,1,2022-04-08_11h57.49.347,threat_forest,2021.2.3,60.01734500504118,True,53.0,0.5,0.5178571428571428,-0.8703703703703706,-0.8254913076341649,0,0,1,0.3223782383925986,0.2592592592592592,1.0,0.2592592592592592,0.3333333333333333,0.7777777777777778,-1.3333333333333337,-1.1851851851851856,-0.1851851851851855,0.0,0.0,2.0,-1.0,1.0,1,0,0,0.46591120608739056,0.24883795412958365,0.5475860240475894,0.43738715797648386,0.24607963201373817,0.5044726673646012,0.43666613153153394,0.24598882110481904,0.5202964898133184,0.324124685066403,0.21906787359700808,0.5076649054965338,0.35713303990170564,0.22958903171227235,0.5310787969484301,0.2894772402988616,0.20568016764781677,0.4812401021822241,0.3357001242165391,0.2230055508175393,0.508506428469023,0.9285755291639817,0.06632301580181317,0.3628588443025457,0.9319676211384369,0.06340397428799982,0.36978257982154616,0.766582703803313,0.1789336620329151,0.47115560989294036
7.0,0.0,7.0,0.0,6.0,0.0,6.0,0.0,,,,left,1.0988800000632182,311.19688160007354,tb12,311.19688160007354,None,307.9301871000789,309.92996650002897,True,3.0,['p'],True,0.4444444444444445,0.6666666666666666,0.3333333333333333,1.0,2.0,0.9656336071428248,-0.4773662551440329,succ_gain,0.0,5.0,309.92996650002897,None,tb12,1,2022-04-08_11h57.49.347,threat_forest,2021.2.3,60.01734500504118,True,53.0,0.5,0.5178571428571428,-0.8703703703703706,-0.8254913076341649,1,0,1,0.0942914793444486,-0.4773662551440329,0.0,0.4444444444444445,0.6666666666666666,0.6666666666666667,-0.3333333333333335,-0.5555555555555556,2.4444444444444446,2.4444444444444446,1.0,2.0,1.0,3.0,0,0,1,0.4067781627216465,0.2413096890544482,0.48960427810433726,0.45641461788043086,0.24810031446549116,0.4761003621020161,0.423070999871104,0.24408192893916833,0.49960326987193326,0.636054044965845,0.23148929684843184,0.5270969452594254,0.6158911154222031,0.23656924936619755,0.5482613300953947,0.607374266651035,0.23847076686115243,0.561959987989086,0.564539010345413,0.24583471614363472,0.5656637569842689,0.3144887209740747,0.2155855653541653,0.5570140577938701,0.07739598305683812,0.07140584486350375,0.3810413206096258,0.02109509998566785,0.020650096742262532,0.29034914163566156
7.0,0.0,7.0,0.0,7.0,0.0,7.0,0.0,,,,left,1.369501799927093,316.8320567000192,tb12,312.3137285000412,314.31345250003505,316.8320567000192,None,False,5.0,['p'],False,0.2592592592592592,0.3333333333333333,0.2222222222222222,2.0,2.0,0.9327883776363324,0.0,wait_cost,1.0,4.0,314.31345250003505,None,tb12,1,2022-04-08_11h57.49.347,threat_forest,2021.2.3,60.01734500504118,False,53.0,0.5,0.5178571428571428,-0.8703703703703706,-0.8254913076341649,0,0,0,0.3144470240151982,0.0,0.0,0.2592592592592592,0.3333333333333333,0.7777777777777778,-1.3333333333333337,-1.1851851851851856,3.8148148148148144,3.8148148148148144,0.0,2.0,1.0,5.0,0,0,0,0.46591120608739056,0.24883795412958365,0.5475860240475894,0.43738715797648386,0.24607963201373817,0.5044726673646012,0.423070999871104,0.24408192893916833,0.49960326987193326,0.324124685066403,0.21906787359700808,0.5076649054965338,0.35713303990170564,0.22958903171227235,0.5310787969484301,0.2894772402988616,0.20568016764781677,0.4812401021822241,0.3357001242165391,0.2230055508175393,0.508506428469023,0.3144887209740747,0.2155855653541653,0.5570140577938701,0.07739598305683812,0.07140584486350375,0.3810413206096258,0.3589345337006091,0.23010053421773544,0.5296032537435258
8.0,0.0,8.0,0.0,0.0,0.0,0.0,0.0,322.1908409000607,325.6801661000354,None,right,1.2194203999824822,328.84883360005915,tb12,328.84883360005915,None,322.1908409000607,325.6801661000354,False,4.0,['p'],True,0.16,0.2,0.2,2.0,2.0,0.8198746470064713,0.0018667197674524,wait_cost,0.0,3.0,,,tb12,1,2022-04-08_11h57.49.347,threat_forest,2021.2.3,60.01734500504118,False,63.0,0.2666666666666666,0.3833333333333333,-1.5022222222222226,-1.1862962962962966,0,0,0,0.1983756638763934,0.0018667197674524,0.16,0.16,0.2,0.8,-1.8000000000000005,-1.5600000000000005,2.4399999999999995,2.4399999999999995,1.0,2.0,-1.0,4.0,0,0,0,0.4067781627216465,0.2413096890544482,0.48960427810433726,0.4336018547826568,0.24559128631169658,0.5113295059143574,0.43666613153153394,0.24598882110481904,0.5202964898133184,0.22232926779714288,0.17289896447792918,0.4354383933125583,0.2530362785912337,0.18900892030793326,0.4311866239700595,0.2894772402988616,0.20568016764781677,0.4812401021822241,0.23370787309138086,0.1790885031464839,0.39855141761784224,0.3144887209740747,0.2155855653541653,0.5570140577938701,0.15936337577783946,0.1339666902385306,0.46906528137160064,0.36187077410618135,0.23092031695397439,0.5305396871692292
8.0,0.0,8.0,0.0,1.0,0.0,1.0,0.0,,,,right,0.820908399997279,332.61426640010905,tb12,332.61426640010905,None,322.1908409000607,325.6801661000354,False,3.0,['p'],True,0.16,0.2,0.2,2.0,2.0,0.8198746470064713,0.0173973197132958,wait_cost,0.0,2.0,332.0973657000577,None,tb12,1,2022-04-08_11h57.49.347,threat_forest,2021.2.3,60.01734500504118,False,63.0,0.2666666666666666,0.3833333333333333,-1.5022222222222226,-1.1862962962962966,0,0,0,-0.1973437470121264,0.0173973197132958,0.16,0.16,0.2,0.8,-1.8000000000000005,-1.5600000000000005,1.4399999999999995,1.4399999999999995,1.0,2.0,-1.0,3.0,0,0,0,0.4067781627216465,0.2413096890544482,0.48960427810433726,0.4336018547826568,0.24559128631169658,0.5113295059143574,0.43666613153153394,0.24598882110481904,0.5202964898133184,0.22232926779714288,0.17289896447792918,0.4354383933125583,0.2530362785912337,0.18900892030793326,0.4311866239700595,0.2894772402988616,0.20568016764781677,0.4812401021822241,0.23370787309138086,0.1790885031464839,0.39855141761784224,0.3144887209740747,0.2155855653541653,0.5570140577938701,0.15936337577783946,0.1339666902385306,0.46906528137160064,0.3866827972686331,0.23715921156513828,0.5376663430440987
8.0,0.0,8.0,0.0,2.0,0.0,2.0,0.0,,,,left,1.3558113999897614,336.114729700028,tb12,333.4640650000656,335.46371530008037,336.114729700028,None,False,2.0,['p'],False,0.2222222222222222,0.3333333333333333,0.3333333333333333,2.0,2.0,0.9656336071428248,0.0143818200071127,wait_cost,1.0,1.0,335.4637153000804,None,tb12,1,2022-04-08_11h57.49.347,threat_forest,2021.2.3,60.01734500504118,False,63.0,0.2666666666666666,0.3833333333333333,-1.5022222222222226,-1.1862962962962966,0,0,0,0.304400094291638,0.0143818200071127,0.2222222222222222,0.2222222222222222,0.3333333333333333,0.6666666666666667,-1.666666666666667,-1.4444444444444446,0.5555555555555554,0.5555555555555554,0.0,2.0,-1.0,2.0,0,0,0,0.46591120608739056,0.24883795412958365,0.5475860240475894,0.45641461788043086,0.24810031446549116,0.4761003621020161,0.43666613153153394,0.24598882110481904,0.5202964898133184,0.324124685066403,0.21906787359700808,0.5076649054965338,0.2806673110195627,0.20189317154461073,0.46290255102622213,0.2894772402988616,0.20568016764781677,0.4812401021822241,0.2950588852737677,0.2079991394947693,0.4709349110894531,0.3144887209740747,0.2155855653541653,0.5570140577938701,0.20653914800631162,0.16388072834713852,0.5111547400564961,0.3818143306967097,0.2360321475713333,0.5363789038848553
8.0,0.0,8.0,0.0,3.0,0.0,3.0,0.0,,,,right,1.0033624999923632,342.3331562000094,tb12,342.3331562000094,None,337.4973196000792,339.49726980004925,False,1.0,['p'],True,0.16,0.2,0.2,2.0,2.0,0.8198746470064713,0.0471577283950616,wait_cost,0.0,0.0,339.49726980004925,None,tb12,1,2022-04-08_11h57.49.347,threat_forest,2021.2.3,60.01734500504118,False,63.0,0.2666666666666666,0.3833333333333333,-1.5022222222222226,-1.1862962962962966,0,0,0,0.0033568594299877,0.0471577283950616,1.0,0.16,0.2,0.8,-1.8000000000000005,-1.5600000000000005,-0.5600000000000003,0.0,1.0,2.0,-1.0,1.0,1,0,0,0.4067781627216465,0.2413096890544482,0.48960427810433726,0.4336018547826568,0.24559128631169658,0.5113295059143574,0.43666613153153394,0.24598882110481904,0.5202964898133184,0.22232926779714288,0.17289896447792918,0.4354383933125583,0.2530362785912337,0.18900892030793326,0.4311866239700595,0.2894772402988616,0.20568016764781677,0.4812401021822241,0.23370787309138086,0.1790885031464839,0.39855141761784224,0.9285755291639817,0.06632301580181317,0.3628588443025457,0.9319676211384369,0.06340397428799982,0.36978257982154616,0.4358058528523204,0.24587911147198208,0.5476270379704373
9.0,0.0,9.0,0.0,0.0,0.0,0.0,0.0,346.4028151000384,349.9139228001004,None,left,1.4922144000884143,350.9476827000035,tb12,350.9476827000035,None,346.4028151000384,349.9139228001004,True,4.0,['p'],True,0.4444444444444445,0.6666666666666666,0.3333333333333333,1.0,1.0,0.9656336071428248,0.0517531804924914,figh_cost,0.0,1.0,,,tb12,1,2022-04-08_11h57.49.347,threat_forest,2021.2.3,60.01734500504118,True,57.0,0.4583333333333333,0.3625,-1.34375,-1.4229861111111113,1,1,1,0.4002611912489055,0.0517531804924914,0.4444444444444445,0.4444444444444445,0.6666666666666666,0.6666666666666667,-1.0,-1.0,3.0,3.0,1.0,1.0,-1.0,4.0,0,1,1,0.4067781627216465,0.2413096890544482,0.48960427810433726,0.45641461788043086,0.24810031446549116,0.4761003621020161,0.43666613153153394,0.24598882110481904,0.5202964898133184,0.636054044965845,0.23148929684843184,0.5270969452594254,0.4416409705177855,0.246594223677894,0.57293884904229,0.607374266651035,0.23847076686115243,0.561959987989086,0.564539010345413,0.24583471614363472,0.5656637569842689,0.3144887209740747,0.2155855653541653,0.5570140577938701,0.44681120112450107,0.2471709516741817,0.6283452176794597,0.4435310398057043,0.24681125653457506,0.5486918222792909
9.0,0.0,9.0,0.0,1.0,0.0,1.0,0.0,,,,left,1.8208502000197768,357.39787970006,tb12,352.4643731000833,354.46391869999934,357.39787970006,None,False,1.0,['p'],False,0.1875,0.25,0.25,2.0,1.0,0.895754137500101,0.0133795237835542,wait_cost,1.0,0.0,354.46391869999934,None,tb12,1,2022-04-08_11h57.49.347,threat_forest,2021.2.3,60.01734500504118,False,57.0,0.4583333333333333,0.3625,-1.34375,-1.4229861111111113,0,0,0,0.5993035348794521,0.0133795237835542,1.0,0.1875,0.25,0.75,-2.0,-1.6875,-0.6875,0.0,0.0,1.0,-1.0,1.0,1,0,0,0.46591120608739056,0.24883795412958365,0.5475860240475894,0.44212901020150497,0.24665094853974248,0.4964508394602256,0.43666613153153394,0.24598882110481904,0.5202964898133184,0.257659331966216,0.19127100061693933,0.46417955521907395,0.21509575044858092,0.16882956858754275,0.3815130468682212,0.2894772402988616,0.20568016764781677,0.4812401021822241,0.25968877761699394,0.19225051639678542,0.43150511980201983,0.9285755291639817,0.06632301580181317,0.3628588443025457,0.9319676211384369,0.06340397428799982,0.36978257982154616,0.3802013308811602,0.23564827887735473,0.5359404127331975
10.0,0.0,10.0,0.0,0.0,0.0,0.0,0.0,364.40509440004826,367.914170700009,None,right,1.0474179999437183,370.1826458000578,tb12,370.1826458000578,None,364.40509440004826,367.914170700009,False,4.0,['p'],True,0.18,0.2,0.1,1.0,1.0,0.7058405977926203,-0.0012447101888581,wait_cost,0.0,3.0,,,tb12,1,2022-04-08_11h57.49.347,threat_forest,2021.2.3,60.01734500504118,False,11.0,0.35,0.4041666666666667,-1.3425000000000002,-1.343125,0,0,0,0.0463280880733441,-0.0012447101888581,0.18,0.18,0.2,0.9,-1.7000000000000002,-1.5600000000000005,2.4399999999999995,2.4399999999999995,1.0,1.0,-1.0,4.0,0,0,0,0.4067781627216465,0.2413096890544482,0.48960427810433726,0.4166697414227582,0.24305606800545004,0.5469263843995047,0.43666613153153394,0.24598882110481904,0.5202964898133184,0.22232926779714288,0.17289896447792918,0.4354383933125583,0.27358951642728563,0.19873829292836964,0.4551364885499713,0.2894772402988616,0.20568016764781677,0.4812401021822241,0.2524208201079796,0.18870454968399464,0.4226270911307117,0.3144887209740747,0.2155855653541653,0.5570140577938701,0.1734944642535572,0.14339413512692836,0.4823298246169396,0.35698251986884816,0.2295460003769356,0.5289698127093916
10.0,0.0,10.0,0.0,1.0,0.0,1.0,0.0,,,,right,0.8002914000535384,375.93149510002695,tb12,375.93149510002695,None,364.40509440004826,367.914170700009,False,3.0,['p'],True,0.18,0.2,0.1,1.0,1.0,0.7058405977926203,0.0095213043566894,wait_cost,0.0,2.0,373.24760900007095,None,tb12,1,2022-04-08_11h57.49.347,threat_forest,2021.2.3,60.01734500504118,False,11.0,0.35,0.4041666666666667,-1.3425000000000002,-1.343125,0,0,0,-0.2227793675702374,0.0095213043566894,0.18,0.18,0.2,0.9,-1.7000000000000002,-1.5600000000000005,1.4399999999999995,1.4399999999999995,1.0,1.0,-1.0,3.0,0,0,0,0.4067781627216465,0.2413096890544482,0.48960427810433726,0.4166697414227582,0.24305606800545004,0.5469263843995047,0.43666613153153394,0.24598882110481904,0.5202964898133184,0.22232926779714288,0.17289896447792918,0.4354383933125583,0.27358951642728563,0.19873829292836964,0.4551364885499713,0.2894772402988616,0.20568016764781677,0.4812401021822241,0.2524208201079796,0.18870454968399464,0.4226270911307117,0.3144887209740747,0.2155855653541653,0.5570140577938701,0.1734944642535572,0.14339413512692836,0.4823298246169396,0.3740172059706211,0.23412833560855106,0.5342041896838925
10.0,0.0,10.0,0.0,2.0,0.0,2.0,0.0,,,,right,1.6110111000016332,380.21464290004224,tb12,380.21464290004224,None,364.40509440004826,367.914170700009,False,2.0,['p'],True,0.18,0.2,0.1,1.0,1.0,0.7058405977926203,-0.0022718469726562,wait_cost,0.0,1.0,378.764342200011,None,tb12,1,2022-04-08_11h57.49.347,threat_forest,2021.2.3,60.01734500504118,False,11.0,0.35,0.4041666666666667,-1.3425000000000002,-1.343125,0,0,0,0.476861994302468,-0.0022718469726562,0.18,0.18,0.2,0.9,-1.7000000000000002,-1.5600000000000005,0.4399999999999997,0.4399999999999997,1.0,1.0,-1.0,2.0,0,0,0,0.4067781627216465,0.2413096890544482,0.48960427810433726,0.4166697414227582,0.24305606800545004,0.5469263843995047,0.43666613153153394,0.24598882110481904,0.5202964898133184,0.22232926779714288,0.17289896447792918,0.4354383933125583,0.27358951642728563,0.19873829292836964,0.4551364885499713,0.2894772402988616,0.20568016764781677,0.4812401021822241,0.2524208201079796,0.18870454968399464,0.4226270911307117,0.3144887209740747,0.2155855653541653,0.5570140577938701,0.1734944642535572,0.14339413512692836,0.4823298246169396,0.3553752796781976,0.22908369027184045,0.5284417183542487
10.0,0.0,10.0,0.0,3.0,0.0,3.0,0.0,,,,left,1.8342563000041991,387.247974100057,tb12,381.8481557000196,383.8478081000503,387.247974100057,None,False,1.0,['p'],False,0.375,0.5,0.25,1.0,1.0,0.9850568223215076,0.0471695800781249,wait_cost,1.0,0.0,383.8478081000503,None,tb12,1,2022-04-08_11h57.49.347,threat_forest,2021.2.3,60.01734500504118,False,11.0,0.35,0.4041666666666667,-1.3425000000000002,-1.343125,1,0,0,0.6066391132546707,0.0471695800781249,1.0,0.375,0.5,0.75,-1.25,-1.125,-0.125,0.0,0.0,1.0,-1.0,1.0,1,0,1,0.46591120608739056,0.24883795412958365,0.5475860240475894,0.44212901020150497,0.24665094853974248,0.4964508394602256,0.43666613153153394,0.24598882110481904,0.5202964898133184,0.4779390590378092,0.24951331488386275,0.5552936686189185,0.37765857837205663,0.2350325765540538,0.5444786498352954,0.607374266651035,0.23847076686115243,0.561959987989086,0.47659446768038266,0.24945218105683534,0.5747207955348563,0.9285755291639817,0.06632301580181317,0.3628588443025457,0.9319676211384369,0.06340397428799982,0.36978257982154616,0.4358257377600821,0.24588166406596224,0.5476299537848592
11.0,0.0,11.0,0.0,1.0,0.0,1.0,0.0,,,,left,2.7970208000624552,406.53164730011486,tb12,406.53164730011486,None,403.031649600016,405.0314180999994,True,3.0,['r'],True,0.36,0.6,0.4,2.0,1.0,0.9801625908629508,0.0196917849999999,figh_cost,0.0,0.0,405.0314180999994,None,tb12,1,2022-04-08_11h57.49.347,threat_forest,2021.2.3,60.01734500504118,True,0.0,0.55,0.45,-0.91,-1.1262500000000002,0,0,1,1.02855485075365,0.0196917849999999,0.36,0.36,0.6,0.6,-1.4000000000000004,-1.3200000000000005,1.6799999999999995,1.6799999999999995,1.0,1.0,-1.0,3.0,0,0,0,0.4067781627216465,0.2413096890544482,0.48960427810433726,0.4678961151656264,0.24896934057854125,0.4638984081833164,0.43666613153153394,0.24598882110481904,0.5202964898133184,0.5743560876308859,0.24447117223222806,0.5474057547693114,0.34107792099094525,0.22474377280343977,0.5191516872314681,0.2894772402988616,0.20568016764781677,0.4812401021822241,0.4576014893208952,0.2482023662921939,0.5715916371943996,0.3144887209740747,0.2155855653541653,0.5570140577938701,0.3443752706076337,0.22578094360155276,0.5982491852490058,0.3904024591493126,0.2379883790394819,0.5386134966058381
12.0,0.0,12.0,0.0,0.0,0.0,0.0,0.0,412.7850758000277,416.2982018000912,None,left,1.522205600049347,418.3656550000888,tb12,418.3656550000888,None,412.7850758000277,416.2982018000912,True,5.0,['r'],True,0.24,0.4,0.4,2.0,2.0,0.9801625908629508,-0.0217856454141892,figh_cost,0.0,2.0,,,tb12,1,2022-04-08_11h57.49.347,threat_forest,2021.2.3,60.01734500504118,True,46.0,0.3666666666666667,0.4583333333333333,-1.0533333333333337,-0.9816666666666668,0,0,1,0.4201603357626282,-0.0217856454141892,0.24,0.24,0.4,0.6,-1.6,-1.4400000000000002,3.56,3.56,1.0,2.0,-1.0,5.0,0,0,0,0.4067781627216465,0.2413096890544482,0.48960427810433726,0.4678961151656264,0.24896934057854125,0.4638984081833164,0.43666613153153394,0.24598882110481904,0.5202964898133184,0.38313834415754233,0.23634335339375898,0.5346906177308397,0.2951525537735666,0.20803752377450846,0.47802751432840157,0.2894772402988616,0.20568016764781677,0.4812401021822241,0.31421303128949707,0.21548320225736262,0.4896727417477336,0.3144887209740747,0.2155855653541653,0.5570140577938701,0.22177951888923314,0.17259336389049348,0.5234135368263333,0.3254910043685102,0.21954661044368867,0.5175475631837516
12.0,0.0,12.0,0.0,1.0,0.0,1.0,0.0,,,,right,2.7158972000470385,424.1151992001105,tb12,419.9151944000041,421.9151267000707,424.1151992001105,None,True,2.0,['r'],False,0.3333333333333333,0.3333333333333333,0.0,0.0,2.0,0.5793801642856949,0.0282073652674897,succ_gain,1.0,4.0,421.9151267000707,None,tb12,1,2022-04-08_11h57.49.347,threat_forest,2021.2.3,60.01734500504118,True,46.0,0.3666666666666667,0.4583333333333333,-1.0533333333333337,-0.9816666666666668,1,0,1,0.9991223592183616,0.0282073652674897,0.3333333333333333,0.3333333333333333,0.3333333333333333,1.0,-0.6666666666666669,-0.6666666666666669,1.333333333333333,1.333333333333333,0.0,2.0,-1.0,2.0,0,0,1,0.46591120608739056,0.24883795412958365,0.5475860240475894,0.39993195607963783,0.23998638658595245,0.59002763379043,0.43666613153153394,0.24598882110481904,0.5202964898133184,0.324124685066403,0.21906787359700808,0.5076649054965338,0.5296700026915744,0.24911969094028202,0.5791555498815761,0.607374266651035,0.23847076686115243,0.561959987989086,0.42417259690047904,0.24425020493918273,0.5616966199402602,0.3144887209740747,0.2155855653541653,0.5570140577938701,0.3143762000874901,0.2155438049060405,0.5838453917988558,0.4043161174903014,0.24084459462787017,0.5418761363636018
12.0,0.0,12.0,0.0,2.0,0.0,2.0,0.0,,,,right,2.200477799982764,431.5989683000371,tb12,419.9151944000041,421.9151267000707,431.5989683000371,None,True,4.0,['r'],False,0.3333333333333333,0.3333333333333333,0.0,0.0,2.0,0.5793801642856949,0.0675703703703702,unsucc_cost,1.0,2.0,428.8485647001071,None,tb12,1,2022-04-08_11h57.49.347,threat_forest,2021.2.3,60.01734500504118,True,46.0,0.3666666666666667,0.4583333333333333,-1.0533333333333337,-0.9816666666666668,1,0,1,0.7886745185940621,0.0675703703703702,0.3333333333333333,0.3333333333333333,0.3333333333333333,1.0,-0.6666666666666669,-0.6666666666666669,3.333333333333333,3.333333333333333,0.0,2.0,1.0,4.0,0,0,1,0.46591120608739056,0.24883795412958365,0.5475860240475894,0.39993195607963783,0.23998638658595245,0.59002763379043,0.423070999871104,0.24408192893916833,0.49960326987193326,0.324124685066403,0.21906787359700808,0.5076649054965338,0.5296700026915744,0.24911969094028202,0.5791555498815761,0.607374266651035,0.23847076686115243,0.561959987989086,0.42417259690047904,0.24425020493918273,0.5616966199402602,0.3144887209740747,0.2155855653541653,0.5570140577938701,0.3143762000874901,0.2155438049060405,0.5838453917988558,0.47030700223837707,0.2491183258839283,0.5513271752315396
12.0,0.0,12.0,0.0,3.0,0.0,3.0,0.0,,,,left,2.070349599933252,438.098733000108,tb12,419.9151944000041,421.9151267000707,438.098733000108,None,False,2.0,['r'],False,0.3333333333333333,0.3333333333333333,0.0,0.0,2.0,0.5793801642856949,0.0433487407407408,wait_cost,1.0,1.0,435.8321100000758,None,tb12,1,2022-04-08_11h57.49.347,threat_forest,2021.2.3,60.01734500504118,False,46.0,0.3666666666666667,0.4583333333333333,-1.0533333333333337,-0.9816666666666668,1,0,0,0.7277174818738039,0.0433487407407408,0.3333333333333333,0.3333333333333333,0.3333333333333333,1.0,-0.6666666666666669,-0.6666666666666669,1.333333333333333,1.333333333333333,0.0,2.0,-1.0,2.0,0,0,1,0.46591120608739056,0.24883795412958365,0.5475860240475894,0.39993195607963783,0.23998638658595245,0.59002763379043,0.43666613153153394,0.24598882110481904,0.5202964898133184,0.324124685066403,0.21906787359700808,0.5076649054965338,0.5296700026915744,0.24911969094028202,0.5791555498815761,0.607374266651035,0.23847076686115243,0.561959987989086,0.42417259690047904,0.24425020493918273,0.5616966199402602,0.3144887209740747,0.2155855653541653,0.5570140577938701,0.3143762000874901,0.2155438049060405,0.5838453917988558,0.4294261207669389,0.24501932756999728,0.5466449114275023
12.0,0.0,12.0,0.0,4.0,0.0,4.0,0.0,,,,left,1.4547094000736251,444.0824560000328,tb12,444.0824560000328,None,440.1988126001088,442.1985979001038,True,1.0,['r'],True,0.24,0.4,0.4,2.0,2.0,0.9801625908629508,0.1041173333333332,succ_gain,0.0,3.0,442.1985979001038,None,tb12,1,2022-04-08_11h57.49.347,threat_forest,2021.2.3,60.01734500504118,True,46.0,0.3666666666666667,0.4583333333333333,-1.0533333333333337,-0.9816666666666668,0,0,1,0.3748061556404457,0.1041173333333332,1.0,0.24,0.4,0.6,-1.6,-1.4400000000000002,-0.4400000000000001,0.0,1.0,2.0,-1.0,1.0,1,0,0,0.4067781627216465,0.2413096890544482,0.48960427810433726,0.4678961151656264,0.24896934057854125,0.4638984081833164,0.43666613153153394,0.24598882110481904,0.5202964898133184,0.38313834415754233,0.23634335339375898,0.5346906177308397,0.2951525537735666,0.20803752377450846,0.47802751432840157,0.2894772402988616,0.20568016764781677,0.4812401021822241,0.31421303128949707,0.21548320225736262,0.4896727417477336,0.9285755291639817,0.06632301580181317,0.3628588443025457,0.9319676211384369,0.06340397428799982,0.36978257982154616,0.5325721680853883,0.2489390538662172,0.5511223937665772
12.0,0.0,12.0,0.0,5.0,0.0,5.0,0.0,,,,right,1.7740442999638617,449.83271340001374,tb12,445.56574920006096,447.5653144000098,449.83271340001374,None,True,3.0,['r'],False,0.3333333333333333,0.3333333333333333,0.0,0.0,2.0,0.5793801642856949,0.2144444444444444,unsucc_cost,1.0,1.0,447.5653144000098,None,tb12,1,2022-04-08_11h57.49.347,threat_forest,2021.2.3,60.01734500504118,True,46.0,0.3666666666666667,0.4583333333333333,-1.0533333333333337,-0.9816666666666668,1,0,1,0.5732618553703337,0.2144444444444444,0.3333333333333333,0.3333333333333333,0.3333333333333333,1.0,-0.6666666666666669,-0.6666666666666669,2.333333333333333,2.333333333333333,0.0,2.0,1.0,3.0,0,0,1,0.46591120608739056,0.24883795412958365,0.5475860240475894,0.39993195607963783,0.23998638658595245,0.59002763379043,0.423070999871104,0.24408192893916833,0.49960326987193326,0.324124685066403,0.21906787359700808,0.5076649054965338,0.5296700026915744,0.24911969094028202,0.5791555498815761,0.607374266651035,0.23847076686115243,0.561959987989086,0.42417259690047904,0.24425020493918273,0.5616966199402602,0.3144887209740747,0.2155855653541653,0.5570140577938701,0.3143762000874901,0.2155438049060405,0.5838453917988558,0.7075080993733834,0.20694038869444606,0.5031475436468954
12.0,0.0,12.0,0.0,6.0,0.0,6.0,0.0,,,,left,2.40915139997378,455.432616300066,tb12,455.432616300066,None,451.6323200000916,453.6323380001122,True,1.0,['r'],True,0.24,0.4,0.4,2.0,2.0,0.9801625908629508,0.24,unsucc_cost,0.0,0.0,453.6323380001122,None,tb12,1,2022-04-08_11h57.49.347,threat_forest,2021.2.3,60.01734500504118,True,46.0,0.3666666666666667,0.4583333333333333,-1.0533333333333337,-0.9816666666666668,0,0,1,0.8792745693016482,0.24,1.0,0.24,0.4,0.6,-1.6,-1.4400000000000002,-0.4400000000000001,0.0,1.0,2.0,-1.0,1.0,1,0,0,0.4067781627216465,0.2413096890544482,0.48960427810433726,0.4678961151656264,0.24896934057854125,0.4638984081833164,0.43666613153153394,0.24598882110481904,0.5202964898133184,0.38313834415754233,0.23634335339375898,0.5346906177308397,0.2951525537735666,0.20803752377450846,0.47802751432840157,0.2894772402988616,0.20568016764781677,0.4812401021822241,0.31421303128949707,0.21548320225736262,0.4896727417477336,0.9285755291639817,0.06632301580181317,0.3628588443025457,0.9319676211384369,0.06340397428799982,0.36978257982154616,0.7422498946552635,0.1913149885395138,0.4852987327995264
13.0,0.0,13.0,0.0,0.0,0.0,0.0,0.0,462.3735056000296,465.8821873000125,None,right,1.4225190000142902,466.8495305000106,tb12,462.3735056000296,465.88218730001245,466.8495305000106,None,True,5.0,['p'],False,0.25,0.5,0.5,1.0,1.0,0.9463946303571862,0.0122551342604393,figh_cost,1.0,2.0,,,tb12,1,2022-04-08_11h57.49.347,threat_forest,2021.2.3,60.01734500504118,True,71.0,0.35,0.3583333333333333,-1.7350000000000003,-1.394166666666667,0,0,1,0.3524292437054504,0.0122551342604393,0.25,0.25,0.5,0.5,-2.0,-1.75,3.25,3.25,0.0,1.0,-1.0,5.0,0,0,0,0.46591120608739056,0.24883795412958365,0.5475860240475894,0.48517849327174883,0.24978032293830435,0.45251144381699104,0.43666613153153394,0.24598882110481904,0.5202964898133184,0.4779390590378092,0.24951331488386275,0.5552936686189185,0.21509575044858092,0.16882956858754275,0.3815130468682212,0.2894772402988616,0.20568016764781677,0.4812401021822241,0.32527781914828646,0.2194721595184211,0.4996598848318908,0.3144887209740747,0.2155855653541653,0.5570140577938701,0.23069866756796428,0.1774767923503302,0.5302845871223412,0.37839499047919917,0.235212221659446,0.5354423069103764
13.0,0.0,13.0,0.0,1.0,0.0,1.0,0.0,,,,right,1.4004204000812024,473.4659298000624,tb12,462.3735056000296,465.88218730001245,473.4659298000624,None,True,2.0,['p'],False,0.25,0.5,0.5,1.0,1.0,0.9463946303571862,0.004407104375,figh_cost,1.0,0.0,470.29896949999966,None,tb12,1,2022-04-08_11h57.49.347,threat_forest,2021.2.3,60.01734500504118,True,71.0,0.35,0.3583333333333333,-1.7350000000000003,-1.394166666666667,0,0,1,0.3367724773167515,0.004407104375,0.25,0.25,0.5,0.5,-2.0,-1.75,0.25,0.25,0.0,1.0,-1.0,2.0,0,0,0,0.46591120608739056,0.24883795412958365,0.5475860240475894,0.48517849327174883,0.24978032293830435,0.45251144381699104,0.43666613153153394,0.24598882110481904,0.5202964898133184,0.4779390590378092,0.24951331488386275,0.5552936686189185,0.21509575044858092,0.16882956858754275,0.3815130468682212,0.2894772402988616,0.20568016764781677,0.4812401021822241,0.32527781914828646,0.2194721595184211,0.4996598848318908,0.3144887209740747,0.2155855653541653,0.5570140577938701,0.23069866756796428,0.1774767923503302,0.5302845871223412,0.3658832415294711,0.23201269509735784,0.5317875048674464
14.0,0.0,14.0,0.0,0.0,0.0,0.0,0.0,479.235027500079,482.7492191001074,None,left,1.924492200021632,485.0328992001014,tb12,479.235027500079,482.74921910010744,485.0328992001014,None,False,4.0,['r'],False,0.25,0.5,0.5,2.0,1.0,0.9463946303571862,0.0015300455080301,wait_cost,1.0,3.0,,,tb12,1,2022-04-08_11h57.49.347,threat_forest,2021.2.3,60.01734500504118,False,43.0,0.4166666666666666,0.3833333333333333,-1.375,-1.5550000000000002,0,0,0,0.6546621407439113,0.0015300455080301,0.25,0.25,0.5,0.5,-2.0,-1.75,2.25,2.25,0.0,1.0,-1.0,4.0,0,0,0,0.46591120608739056,0.24883795412958365,0.5475860240475894,0.48517849327174883,0.24978032293830435,0.45251144381699104,0.43666613153153394,0.24598882110481904,0.5202964898133184,0.4779390590378092,0.24951331488386275,0.5552936686189185,0.21509575044858092,0.16882956858754275,0.3815130468682212,0.2894772402988616,0.20568016764781677,0.4812401021822241,0.32527781914828646,0.2194721595184211,0.4996598848318908,0.3144887209740747,0.2155855653541653,0.5570140577938701,0.23069866756796428,0.1774767923503302,0.5302845871223412,0.3613404348983105,0.23077352500581033,0.5303720075136223
14.0,0.0,14.0,0.0,1.0,0.0,1.0,0.0,,,,left,1.4997514999704435,491.53333550004754,tb12,479.235027500079,482.74921910010744,491.53333550004754,None,False,3.0,['r'],False,0.25,0.5,0.5,2.0,1.0,0.9463946303571862,0.0077793451003086,wait_cost,1.0,2.0,488.982644700096,None,tb12,1,2022-04-08_11h57.49.347,threat_forest,2021.2.3,60.01734500504118,False,43.0,0.4166666666666666,0.3833333333333333,-1.375,-1.5550000000000002,0,0,0,0.4052994276975521,0.0077793451003086,0.25,0.25,0.5,0.5,-2.0,-1.75,1.25,1.25,0.0,1.0,-1.0,3.0,0,0,0,0.46591120608739056,0.24883795412958365,0.5475860240475894,0.48517849327174883,0.24978032293830435,0.45251144381699104,0.43666613153153394,0.24598882110481904,0.5202964898133184,0.4779390590378092,0.24951331488386275,0.5552936686189185,0.21509575044858092,0.16882956858754275,0.3815130468682212,0.2894772402988616,0.20568016764781677,0.4812401021822241,0.32527781914828646,0.2194721595184211,0.4996598848318908,0.3144887209740747,0.2155855653541653,0.5570140577938701,0.23069866756796428,0.1774767923503302,0.5302845871223412,0.37123841003840197,0.23342045295056135,0.5333955791178071
14.0,0.0,14.0,0.0,2.0,0.0,2.0,0.0,,,,left,2.5571082999231294,495.7335621000966,tb12,479.235027500079,482.74921910010744,495.7335621000966,None,False,2.0,['r'],False,0.25,0.5,0.5,2.0,1.0,0.9463946303571862,0.0095154562114198,wait_cost,1.0,1.0,495.0499578000745,None,tb12,1,2022-04-08_11h57.49.347,threat_forest,2021.2.3,60.01734500504118,False,43.0,0.4166666666666666,0.3833333333333333,-1.375,-1.5550000000000002,0,0,0,0.9388770497035396,0.0095154562114198,0.25,0.25,0.5,0.5,-2.0,-1.75,0.25,0.25,0.0,1.0,-1.0,2.0,0,0,0,0.46591120608739056,0.24883795412958365,0.5475860240475894,0.48517849327174883,0.24978032293830435,0.45251144381699104,0.43666613153153394,0.24598882110481904,0.5202964898133184,0.4779390590378092,0.24951331488386275,0.5552936686189185,0.21509575044858092,0.16882956858754275,0.3815130468682212,0.2894772402988616,0.20568016764781677,0.4812401021822241,0.32527781914828646,0.2194721595184211,0.4996598848318908,0.3144887209740747,0.2155855653541653,0.5570140577938701,0.23069866756796428,0.1774767923503302,0.5302845871223412,0.37400786290049254,0.2341259813890989,0.5342015004716305
14.0,0.0,14.0,0.0,3.0,0.0,3.0,0.0,,,,right,1.3195601999759674,500.8668093000306,tb12,479.235027500079,482.74921910010744,500.8668093000306,None,True,1.0,['r'],False,0.25,0.5,0.5,2.0,1.0,0.9463946303571862,0.0310149016203703,unsucc_cost,1.0,0.0,500.3160923001124,None,tb12,1,2022-04-08_11h57.49.347,threat_forest,2021.2.3,60.01734500504118,True,43.0,0.4166666666666666,0.3833333333333333,-1.375,-1.5550000000000002,0,0,1,0.2772984992444912,0.0310149016203703,1.0,0.25,0.5,0.5,-2.0,-1.75,-0.75,0.0,0.0,1.0,-1.0,1.0,1,0,0,0.46591120608739056,0.24883795412958365,0.5475860240475894,0.48517849327174883,0.24978032293830435,0.45251144381699104,0.43666613153153394,0.24598882110481904,0.5202964898133184,0.4779390590378092,0.24951331488386275,0.5552936686189185,0.21509575044858092,0.16882956858754275,0.3815130468682212,0.2894772402988616,0.20568016764781677,0.4812401021822241,0.32527781914828646,0.2194721595184211,0.4996598848318908,0.9285755291639817,0.06632301580181317,0.3628588443025457,0.9319676211384369,0.06340397428799982,0.36978257982154616,0.4089384957170887,0.2417078024377333,0.5428621740181546
15.0,0.0,15.0,0.0,0.0,0.0,0.0,0.0,507.4615939001087,510.9662970000645,None,right,2.0838885999983177,512.3335794000886,tb12,507.4615939001087,510.9662970000645,512.3335794000886,None,True,4.0,['p'],False,0.375,0.5,0.25,1.0,2.0,0.9850568223215076,0.0505551995468139,unsucc_cost,1.0,2.0,,,tb12,1,2022-04-08_11h57.49.347,threat_forest,2021.2.3,60.01734500504118,True,45.0,0.35,0.3833333333333333,-0.975,-1.175,1,0,1,0.7342356675671156,0.0505551995468139,0.375,0.375,0.5,0.75,-0.75,-0.75,3.25,3.25,0.0,2.0,-1.0,4.0,0,0,1,0.46591120608739056,0.24883795412958365,0.5475860240475894,0.44212901020150497,0.24665094853974248,0.4964508394602256,0.43666613153153394,0.24598882110481904,0.5202964898133184,0.4779390590378092,0.24951331488386275,0.5552936686189185,0.5076215289038843,0.24994191229716722,0.5811795334332749,0.607374266651035,0.23847076686115243,0.561959987989086,0.47659446768038266,0.24945218105683534,0.5747207955348563,0.3144887209740747,0.2155855653541653,0.5570140577938701,0.3618316879581072,0.23090951754749414,0.6054651585798687,0.44151438443134217,0.24657943277155514,0.5484270112373311
15.0,0.0,15.0,0.0,2.0,0.0,2.0,0.0,,,,left,1.8618226000107825,525.4006238000002,tb12,525.4006238000002,None,514.4499734001001,516.4497446001042,True,1.0,['p'],True,0.2,0.2,0.0,0.0,2.0,0.4554859150035951,0.0755456298828124,succ_gain,0.0,3.0,522.166509600007,None,tb12,1,2022-04-08_11h57.49.347,threat_forest,2021.2.3,60.01734500504118,True,45.0,0.35,0.3833333333333333,-0.975,-1.175,0,0,1,0.6215559004227872,0.0755456298828124,1.0,0.2,0.2,1.0,-1.2000000000000002,-1.2000000000000002,-0.2000000000000001,0.0,1.0,2.0,-1.0,1.0,1,0,0,0.4067781627216465,0.2413096890544482,0.48960427810433726,0.39993195607963783,0.23998638658595245,0.59002763379043,0.43666613153153394,0.24598882110481904,0.5202964898133184,0.22232926779714288,0.17289896447792918,0.4354383933125583,0.39019333468420414,0.23794249625222483,0.5516417204081324,0.2894772402988616,0.20568016764781677,0.4812401021822241,0.2721000681306784,0.19806162105395858,0.4460543691145583,0.9285755291639817,0.06632301580181317,0.3628588443025457,0.9319676211384369,0.06340397428799982,0.36978257982154616,0.48388279419241625,0.24974023567695597,0.5520375794547796
15.0,0.0,15.0,0.0,3.0,0.0,3.0,0.0,,,,right,1.8602078999392688,531.1836564000696,tb12,527.283372700098,529.2832760000601,531.1836564000696,None,True,3.0,['p'],False,0.375,0.5,0.25,1.0,2.0,0.9850568223215076,0.0929562988281249,succ_gain,1.0,5.0,529.2832760000601,None,tb12,1,2022-04-08_11h57.49.347,threat_forest,2021.2.3,60.01734500504118,True,45.0,0.35,0.3833333333333333,-0.975,-1.175,1,0,1,0.6206882556397411,0.0929562988281249,0.375,0.375,0.5,0.75,-0.75,-0.75,2.25,2.25,0.0,2.0,1.0,3.0,0,0,1,0.46591120608739056,0.24883795412958365,0.5475860240475894,0.44212901020150497,0.24665094853974248,0.4964508394602256,0.423070999871104,0.24408192893916833,0.49960326987193326,0.4779390590378092,0.24951331488386275,0.5552936686189185,0.5076215289038843,0.24994191229716722,0.5811795334332749,0.607374266651035,0.23847076686115243,0.561959987989086,0.47659446768038266,0.24945218105683534,0.5747207955348563,0.3144887209740747,0.2155855653541653,0.5570140577938701,0.3618316879581072,0.23090951754749414,0.6054651585798687,0.513575148856106,0.2498157153335346,0.5521237994619306
15.0,0.0,15.0,0.0,4.0,0.0,4.0,0.0,,,,right,0.8995827999897301,537.5673565000761,tb12,527.283372700098,529.2832760000601,537.5673565000761,None,True,5.0,['p'],False,0.375,0.5,0.25,1.0,2.0,0.9850568223215076,-0.37103515625,succ_gain,1.0,6.0,535.0666787000373,None,tb12,1,2022-04-08_11h57.49.347,threat_forest,2021.2.3,60.01734500504118,True,45.0,0.35,0.3833333333333333,-0.975,-1.175,1,0,1,-0.1058241786998897,-0.37103515625,0.0,0.375,0.5,0.75,-0.75,-0.75,4.25,4.25,0.0,2.0,1.0,5.0,0,0,1,0.46591120608739056,0.24883795412958365,0.5475860240475894,0.44212901020150497,0.24665094853974248,0.4964508394602256,0.423070999871104,0.24408192893916833,0.49960326987193326,0.4779390590378092,0.24951331488386275,0.5552936686189185,0.5076215289038843,0.24994191229716722,0.5811795334332749,0.607374266651035,0.23847076686115243,0.561959987989086,0.47659446768038266,0.24945218105683534,0.5747207955348563,0.3144887209740747,0.2155855653541653,0.5570140577938701,0.07739598305683812,0.07140584486350375,0.3810413206096258,0.04262220866907034,0.040805555997240575,0.31337261471263095
15.0,0.0,15.0,0.0,5.0,0.0,5.0,0.0,,,,right,2.863321700016968,541.2888207000215,tb12,541.2888207000215,None,538.4836790000554,540.4834495000541,False,6.0,['p'],True,0.2,0.2,0.0,0.0,2.0,0.4554859150035951,0.0,wait_cost,0.0,5.0,540.4834495000541,None,tb12,1,2022-04-08_11h57.49.347,threat_forest,2021.2.3,60.01734500504118,False,45.0,0.35,0.3833333333333333,-0.975,-1.175,0,0,0,1.0519823844619318,0.0,0.0,0.2,0.2,1.0,-1.2000000000000002,-1.2000000000000002,4.8,4.8,1.0,2.0,1.0,6.0,0,0,0,0.4067781627216465,0.2413096890544482,0.48960427810433726,0.39993195607963783,0.23998638658595245,0.59002763379043,0.423070999871104,0.24408192893916833,0.49960326987193326,0.22232926779714288,0.17289896447792918,0.4354383933125583,0.39019333468420414,0.23794249625222483,0.5516417204081324,0.2894772402988616,0.20568016764781677,0.4812401021822241,0.2721000681306784,0.19806162105395858,0.4460543691145583,0.3144887209740747,0.2155855653541653,0.5570140577938701,0.07739598305683812,0.07140584486350375,0.3810413206096258,0.3589345337006091,0.23010053421773544,0.5296032537435258
15.0,0.0,15.0,0.0,6.0,0.0,6.0,0.0,,,,right,1.6750871000112966,549.2507406000514,tb12,549.2507406000514,None,538.4836790000554,540.4834495000541,False,5.0,['p'],True,0.2,0.2,0.0,0.0,2.0,0.4554859150035951,0.0,wait_cost,0.0,4.0,546.1834537000395,None,tb12,1,2022-04-08_11h57.49.347,threat_forest,2021.2.3,60.01734500504118,False,45.0,0.35,0.3833333333333333,-0.975,-1.175,0,0,0,0.5158651639318205,0.0,0.0,0.2,0.2,1.0,-1.2000000000000002,-1.2000000000000002,3.8,3.8,1.0,2.0,-1.0,5.0,0,0,0,0.4067781627216465,0.2413096890544482,0.48960427810433726,0.39993195607963783,0.23998638658595245,0.59002763379043,0.43666613153153394,0.24598882110481904,0.5202964898133184,0.22232926779714288,0.17289896447792918,0.4354383933125583,0.39019333468420414,0.23794249625222483,0.5516417204081324,0.2894772402988616,0.20568016764781677,0.4812401021822241,0.2721000681306784,0.19806162105395858,0.4460543691145583,0.3144887209740747,0.2155855653541653,0.5570140577938701,0.07739598305683812,0.07140584486350375,0.3810413206096258,0.3589345337006091,0.23010053421773544,0.5296032537435258
15.0,0.0,15.0,0.0,7.0,0.0,7.0,0.0,,,,right,1.984758000005968,556.1341710000997,tb12,556.1341710000997,None,538.4836790000554,540.4834495000541,False,4.0,['p'],True,0.2,0.2,0.0,0.0,2.0,0.4554859150035951,0.0,wait_cost,0.0,3.0,552.9502985000145,None,tb12,1,2022-04-08_11h57.49.347,threat_forest,2021.2.3,60.01734500504118,False,45.0,0.35,0.3833333333333333,-0.975,-1.175,0,0,0,0.6854969923523186,0.0,0.0,0.2,0.2,1.0,-1.2000000000000002,-1.2000000000000002,2.8,2.8,1.0,2.0,-1.0,4.0,0,0,0,0.4067781627216465,0.2413096890544482,0.48960427810433726,0.39993195607963783,0.23998638658595245,0.59002763379043,0.43666613153153394,0.24598882110481904,0.5202964898133184,0.22232926779714288,0.17289896447792918,0.4354383933125583,0.39019333468420414,0.23794249625222483,0.5516417204081324,0.2894772402988616,0.20568016764781677,0.4812401021822241,0.2721000681306784,0.19806162105395858,0.4460543691145583,0.3144887209740747,0.2155855653541653,0.5570140577938701,0.07739598305683812,0.07140584486350375,0.3810413206096258,0.3589345337006091,0.23010053421773544,0.5296032537435258
16.0,0.0,16.0,0.0,0.0,0.0,0.0,0.0,562.6902885000454,566.200455000042,None,left,1.4851568000158295,569.1340704000322,tb12,562.6902885000454,566.200455000042,569.1340704000322,None,False,5.0,['p'],False,0.2448979591836734,0.2857142857142857,0.1428571428571428,1.0,1.0,0.8400769154957735,-0.0213375421468753,wait_cost,1.0,4.0,,,tb12,1,2022-04-08_11h57.49.347,threat_forest,2021.2.3,60.01734500504118,False,13.0,0.4761904761904761,0.413095238095238,-1.2040816326530612,-1.0895408163265308,0,0,0,0.3955203559167607,-0.0213375421468753,0.2448979591836734,0.2448979591836734,0.2857142857142857,0.8571428571428572,-1.5714285714285712,-1.4081632653061225,3.591836734693877,3.591836734693877,0.0,1.0,-1.0,5.0,0,0,0,0.46591120608739056,0.24883795412958365,0.5475860240475894,0.4239047370997879,0.24420951096414756,0.5307309472100767,0.43666613153153394,0.24598882110481904,0.5202964898133184,0.28503588470129587,0.20379042913384543,0.4837649141449374,0.3014918044474133,0.21059449629845603,0.4843217686521046,0.2894772402988616,0.20568016764781677,0.4812401021822241,0.31960715686618396,0.21745842214609845,0.49461809522245176,0.3144887209740747,0.2155855653541653,0.5570140577938701,0.22611698724481408,0.1749880953241427,0.5267829565406511,0.32616267440083624,0.21978058422853033,0.5178148301841148
16.0,0.0,16.0,0.0,1.0,0.0,1.0,0.0,,,,left,1.701097200042568,573.7175137000158,tb12,573.7175137000158,None,570.650835800101,572.6505792000098,True,4.0,['p'],True,0.4444444444444445,0.6666666666666666,0.3333333333333333,1.0,1.0,0.9656336071428248,0.0716196827788062,figh_cost,0.0,1.0,572.6505792000098,None,tb12,1,2022-04-08_11h57.49.347,threat_forest,2021.2.3,60.01734500504118,True,13.0,0.4761904761904761,0.413095238095238,-1.2040816326530612,-1.0895408163265308,1,1,1,0.5312734546633006,0.0716196827788062,0.4444444444444445,0.4444444444444445,0.6666666666666666,0.6666666666666667,-1.0,-1.0,3.0,3.0,1.0,1.0,-1.0,4.0,0,1,1,0.4067781627216465,0.2413096890544482,0.48960427810433726,0.45641461788043086,0.24810031446549116,0.4761003621020161,0.43666613153153394,0.24598882110481904,0.5202964898133184,0.636054044965845,0.23148929684843184,0.5270969452594254,0.4416409705177855,0.246594223677894,0.57293884904229,0.607374266651035,0.23847076686115243,0.561959987989086,0.564539010345413,0.24583471614363472,0.5656637569842689,0.3144887209740747,0.2155855653541653,0.5570140577938701,0.44681120112450107,0.2471709516741817,0.6283452176794597,0.477195673115389,0.24947996267533987,0.5517402710000545
16.0,0.0,16.0,0.0,2.0,0.0,2.0,0.0,,,,right,1.814613500027917,578.0675112000899,tb12,575.4509596000426,577.450668000034,578.0675112000899,None,True,1.0,['p'],False,0.2448979591836734,0.2857142857142857,0.1428571428571428,1.0,1.0,0.8400769154957735,0.040304492726213,unsucc_cost,1.0,0.0,577.450668000034,None,tb12,1,2022-04-08_11h57.49.347,threat_forest,2021.2.3,60.01734500504118,True,13.0,0.4761904761904761,0.413095238095238,-1.2040816326530612,-1.0895408163265308,0,0,1,0.5958724973972246,0.040304492726213,1.0,0.2448979591836734,0.2857142857142857,0.8571428571428572,-1.5714285714285712,-1.4081632653061225,-0.4081632653061224,0.0,0.0,1.0,-1.0,1.0,1,0,0,0.46591120608739056,0.24883795412958365,0.5475860240475894,0.4239047370997879,0.24420951096414756,0.5307309472100767,0.43666613153153394,0.24598882110481904,0.5202964898133184,0.28503588470129587,0.20379042913384543,0.4837649141449374,0.3014918044474133,0.21059449629845603,0.4843217686521046,0.2894772402988616,0.20568016764781677,0.4812401021822241,0.31960715686618396,0.21745842214609845,0.49461809522245176,0.9285755291639817,0.06632301580181317,0.3628588443025457,0.9319676211384369,0.06340397428799982,0.36978257982154616,0.4243439621004611,0.24427616392934348,0.54579599958402
17.0,0.0,17.0,0.0,0.0,0.0,0.0,0.0,585.6024945001118,589.1174928001128,None,right,2.2240784000605345,592.3679658001056,tb12,585.6024945001118,589.1174928001128,592.3679658001056,None,True,5.0,['r'],False,0.3333333333333333,0.3333333333333333,0.0,0.0,2.0,0.5793801642856949,0.0474629650798488,unsucc_cost,1.0,3.0,,,tb12,1,2022-04-08_11h57.49.347,threat_forest,2021.2.3,60.01734500504118,True,68.0,0.5,0.4880952380952381,-1.2222222222222223,-1.2131519274376417,1,0,1,0.7993426275927848,0.0474629650798488,0.3333333333333333,0.3333333333333333,0.3333333333333333,1.0,-0.6666666666666669,-0.6666666666666669,4.333333333333333,4.333333333333333,0.0,2.0,-1.0,5.0,0,0,1,0.46591120608739056,0.24883795412958365,0.5475860240475894,0.39993195607963783,0.23998638658595245,0.59002763379043,0.43666613153153394,0.24598882110481904,0.5202964898133184,0.324124685066403,0.21906787359700808,0.5076649054965338,0.5296700026915744,0.24911969094028202,0.5791555498815761,0.607374266651035,0.23847076686115243,0.561959987989086,0.42417259690047904,0.24425020493918273,0.5616966199402602,0.3144887209740747,0.2155855653541653,0.5570140577938701,0.3143762000874901,0.2155438049060405,0.5838453917988558,0.43631804856633083,0.24594460906159982,0.5477018555160011
17.0,0.0,17.0,0.0,1.0,0.0,1.0,0.0,,,,left,1.0573234999319538,597.2011000000639,tb12,597.2011000000639,None,594.6180051000556,596.6175788000692,True,3.0,['r'],True,0.2222222222222222,0.6666666666666666,0.6666666666666666,2.0,2.0,0.77250688571426,-0.0090279894663753,figh_cost,0.0,0.0,596.6175788000692,None,tb12,1,2022-04-08_11h57.49.347,threat_forest,2021.2.3,60.01734500504118,True,68.0,0.5,0.4880952380952381,-1.2222222222222223,-1.2131519274376417,0,0,1,0.055740714870785,-0.0090279894663753,0.2222222222222222,0.2222222222222222,0.6666666666666666,0.3333333333333333,-1.3333333333333337,-1.777777777777778,1.222222222222222,1.222222222222222,1.0,2.0,-1.0,3.0,0,0,0,0.4067781627216465,0.2413096890544482,0.48960427810433726,0.5140408931009445,0.24980285332092786,0.4521950957965868,0.43666613153153394,0.24598882110481904,0.5202964898133184,0.636054044965845,0.23148929684843184,0.5270969452594254,0.35713303990170564,0.22958903171227235,0.5310787969484301,0.2894772402988616,0.20568016764781677,0.4812401021822241,0.2950588852737677,0.2079991394947693,0.4709349110894531,0.3144887209740747,0.2155855653541653,0.5570140577938701,0.20653914800631162,0.16388072834713852,0.5111547400564961,0.3448858905260883,0.2259396130421153,0.5248502557864775
0.0,0.0,0.0,0.0,0.0,0.0,0.0,0.0,39.74777609994635,43.25769489991944,None,right,1.6171705999877304,46.69098899990786,tb12,46.69098899990786,None,39.74777609994635,43.25769489991944,False,4.0,['p'],True,0.28125,0.375,0.25,2.0,2.0,0.9634951148421658,-0.0007636143604934,wait_cost,0.0,3.0,,,tb12,2,2022-04-08_12h08.02.362,threat_forest,2021.2.3,60.165901445129975,False,10.0,0.3541666666666666,0.4270833333333333,-0.8958333333333335,-1.059027777777778,0,0,0,0.4806780790420147,-0.0007636143604934,0.28125,0.28125,0.375,0.75,-1.25,-1.125,2.875,2.875,1.0,2.0,-1.0,4.0,0,0,0,0.4067781627216465,0.2413096890544482,0.48960427810433726,0.44212901020150497,0.24665094853974248,0.4964508394602256,0.43666613153153394,0.24598882110481904,0.5202964898133184,0.36049057901389664,0.23053712145612223,0.5256073647411473,0.37765857837205663,0.2350325765540538,0.5444786498352954,0.2894772402988616,0.20568016764781677,0.4812401021822241,0.36108946503101824,0.23070386327463127,0.5277806755927252,0.3144887209740747,0.2155855653541653,0.5570140577938701,0.2601606984519242,0.1924771094329312,0.5513902373797963,0.35773643861906346,0.2297610791032125,0.5292154959856307
0.0,0.0,0.0,0.0,1.0,0.0,1.0,0.0,,,,left,2.3705695000244305,52.00819679989945,tb12,48.32473939994816,50.32451119995676,52.00819679989945,None,False,3.0,['p'],False,0.3333333333333333,0.3333333333333333,0.0,0.0,2.0,0.5793801642856949,0.1051879490716752,wait_cost,1.0,2.0,50.32451119995676,None,tb12,2,2022-04-08_12h08.02.362,threat_forest,2021.2.3,60.165901445129975,False,10.0,0.3541666666666666,0.4270833333333333,-0.8958333333333335,-1.059027777777778,1,0,0,0.8631302216496899,0.1051879490716752,0.3333333333333333,0.3333333333333333,0.3333333333333333,1.0,-0.6666666666666669,-0.6666666666666669,2.333333333333333,2.333333333333333,0.0,2.0,-1.0,3.0,0,0,1,0.46591120608739056,0.24883795412958365,0.5475860240475894,0.39993195607963783,0.23998638658595245,0.59002763379043,0.43666613153153394,0.24598882110481904,0.5202964898133184,0.324124685066403,0.21906787359700808,0.5076649054965338,0.5296700026915744,0.24911969094028202,0.5791555498815761,0.607374266651035,0.23847076686115243,0.561959987989086,0.42417259690047904,0.24425020493918273,0.5616966199402602,0.3144887209740747,0.2155855653541653,0.5570140577938701,0.3143762000874901,0.2155438049060405,0.5838453917988558,0.5343903655909806,0.2488173027545187,0.5509833181242502
0.0,0.0,0.0,0.0,2.0,0.0,2.0,0.0,,,,left,1.6979122000047937,58.74148629989941,tb12,48.32473939994816,50.32451119995676,58.74148629989941,None,False,2.0,['p'],False,0.3333333333333333,0.3333333333333333,0.0,0.0,2.0,0.5793801642856949,0.0234006245930988,wait_cost,1.0,1.0,56.4080149999354,None,tb12,2,2022-04-08_12h08.02.362,threat_forest,2021.2.3,60.165901445129975,False,10.0,0.3541666666666666,0.4270833333333333,-0.8958333333333335,-1.059027777777778,1,0,0,0.5293993786634426,0.0234006245930988,0.3333333333333333,0.3333333333333333,0.3333333333333333,1.0,-0.6666666666666669,-0.6666666666666669,1.333333333333333,1.333333333333333,0.0,2.0,-1.0,2.0,0,0,1,0.46591120608739056,0.24883795412958365,0.5475860240475894,0.39993195607963783,0.23998638658595245,0.59002763379043,0.43666613153153394,0.24598882110481904,0.5202964898133184,0.324124685066403,0.21906787359700808,0.5076649054965338,0.5296700026915744,0.24911969094028202,0.5791555498815761,0.607374266651035,0.23847076686115243,0.561959987989086,0.42417259690047904,0.24425020493918273,0.5616966199402602,0.3144887209740747,0.2155855653541653,0.5570140577938701,0.3143762000874901,0.2155438049060405,0.5838453917988558,0.3964418966807251,0.23927571923691435,0.5400840184134306
0.0,0.0,0.0,0.0,3.0,0.0,3.0,0.0,,,,right,2.142846899922006,65.90826930000912,tb12,48.32473939994816,50.32451119995676,65.90826930000912,None,True,1.0,['p'],False,0.3333333333333333,0.3333333333333333,0.0,0.0,2.0,0.5793801642856949,0.1605812355324073,unsucc_cost,1.0,0.0,62.4579610999208,None,tb12,2,2022-04-08_12h08.02.362,threat_forest,2021.2.3,60.165901445129975,True,10.0,0.3541666666666666,0.4270833333333333,-0.8958333333333335,-1.059027777777778,1,0,1,0.762135271999075,0.1605812355324073,1.0,0.3333333333333333,0.3333333333333333,1.0,-0.6666666666666669,-0.6666666666666669,0.3333333333333331,0.3333333333333331,0.0,2.0,-1.0,1.0,1,0,1,0.46591120608739056,0.24883795412958365,0.5475860240475894,0.39993195607963783,0.23998638658595245,0.59002763379043,0.43666613153153394,0.24598882110481904,0.5202964898133184,0.324124685066403,0.21906787359700808,0.5076649054965338,0.5296700026915744,0.24911969094028202,0.5791555498815761,0.607374266651035,0.23847076686115243,0.561959987989086,0.42417259690047904,0.24425020493918273,0.5616966199402602,0.9285755291639817,0.06632301580181317,0.3628588443025457,0.9319676211384369,0.06340397428799982,0.36978257982154616,0.6261571708354965,0.23408436824678336,0.5341539660022032
1.0,0.0,1.0,0.0,0.0,0.0,0.0,0.0,70.66988890001085,74.17482289997861,None,left,1.850661400007084,76.29223459993955,tb12,76.29223459993955,None,70.66988890001085,74.17482289997861,True,4.0,['r'],True,0.375,0.5,0.25,1.0,2.0,0.9850568223215076,0.0640175729863931,unsucc_cost,0.0,2.0,,,tb12,2,2022-04-08_12h08.02.362,threat_forest,2021.2.3,60.165901445129975,True,59.0,0.3611111111111111,0.3576388888888888,-1.1404320987654322,-1.018132716049383,1,1,1,0.6155430887148465,0.0640175729863931,0.375,0.375,0.5,0.75,-0.75,-0.75,3.25,3.25,1.0,2.0,-1.0,4.0,0,1,1,0.4067781627216465,0.2413096890544482,0.48960427810433726,0.44212901020150497,0.24665094853974248,0.4964508394602256,0.43666613153153394,0.24598882110481904,0.5202964898133184,0.4779390590378092,0.24951331488386275,0.5552936686189185,0.5076215289038843,0.24994191229716722,0.5811795334332749,0.607374266651035,0.23847076686115243,0.561959987989086,0.47659446768038266,0.24945218105683534,0.5747207955348563,0.3144887209740747,0.2155855653541653,0.5570140577938701,0.3618316879581072,0.23090951754749414,0.6054651585798687,0.46427221436988364,0.24872352533396844,0.5508761966793874
1.0,0.0,1.0,0.0,1.0,0.0,1.0,0.0,,,,left,2.7815235999878496,82.408509699977,tb12,82.408509699977,None,70.66988890001085,74.17482289997861,True,2.0,['r'],True,0.375,0.5,0.25,1.0,2.0,0.9850568223215076,0.0540079109848102,succ_gain,0.0,4.0,80.17493259999901,None,tb12,2,2022-04-08_12h08.02.362,threat_forest,2021.2.3,60.165901445129975,True,59.0,0.3611111111111111,0.3576388888888888,-1.1404320987654322,-1.018132716049383,1,1,1,1.0229988351234434,0.0540079109848102,0.375,0.375,0.5,0.75,-0.75,-0.75,1.25,1.25,1.0,2.0,-1.0,2.0,0,1,1,0.4067781627216465,0.2413096890544482,0.48960427810433726,0.44212901020150497,0.24665094853974248,0.4964508394602256,0.43666613153153394,0.24598882110481904,0.5202964898133184,0.4779390590378092,0.24951331488386275,0.5552936686189185,0.5076215289038843,0.24994191229716722,0.5811795334332749,0.607374266651035,0.23847076686115243,0.561959987989086,0.47659446768038266,0.24945218105683534,0.5747207955348563,0.3144887209740747,0.2155855653541653,0.5570140577938701,0.3618316879581072,0.23090951754749414,0.6054651585798687,0.447331604869302,0.24722604015435673,0.5491656273849945
1.0,0.0,1.0,0.0,2.0,0.0,2.0,0.0,,,,left,1.5168280999641863,88.62630749994423,tb12,85.20875319989864,87.20834819995798,88.62630749994423,None,False,4.0,['r'],False,0.1728395061728395,0.2222222222222222,0.2222222222222222,2.0,2.0,0.8571721972794328,-0.0827565825266031,wait_cost,1.0,3.0,87.20834819995798,None,tb12,2,2022-04-08_12h08.02.362,threat_forest,2021.2.3,60.165901445129975,False,59.0,0.3611111111111111,0.3576388888888888,-1.1404320987654322,-1.018132716049383,0,0,0,0.4166213781672899,-0.0827565825266031,0.1728395061728395,0.1728395061728395,0.2222222222222222,0.7777777777777778,-1.7777777777777777,-1.5308641975308643,2.469135802469136,2.469135802469136,0.0,2.0,1.0,4.0,0,0,0,0.46591120608739056,0.24883795412958365,0.5475860240475894,0.43738715797648386,0.24607963201373817,0.5044726673646012,0.423070999871104,0.24408192893916833,0.49960326987193326,0.2375908687860329,0.181141447855531,0.4483329112350656,0.2575142197398481,0.19120064637162532,0.4365817860703814,0.2894772402988616,0.20568016764781677,0.4812401021822241,0.2456087634887493,0.1852850987862769,0.4140658198134816,0.3144887209740747,0.2155855653541653,0.5570140577938701,0.1683246243400573,0.1399914451808359,0.4775421935594544,0.2414589717573839,0.18315653671525078,0.4759793770086491
1.0,0.0,1.0,0.0,3.0,0.0,3.0,0.0,,,,left,1.996207999996841,94.29206329991575,tb12,94.29206329991575,None,90.1753413999686,92.17507060000207,True,3.0,['r'],True,0.375,0.5,0.25,1.0,2.0,0.9850568223215076,0.0924634024249083,fight_cost,0.0,0.0,92.17507060000209,None,tb12,2,2022-04-08_12h08.02.362,threat_forest,2021.2.3,60.165901445129975,True,59.0,0.3611111111111111,0.3576388888888888,-1.1404320987654322,-1.018132716049383,1,1,1,0.6912493808752035,0.0924634024249083,0.375,0.375,0.5,0.75,-0.75,-0.75,2.25,2.25,1.0,2.0,-1.0,3.0,0,1,1,0.4067781627216465,0.2413096890544482,0.48960427810433726,0.44212901020150497,0.24665094853974248,0.4964508394602256,0.43666613153153394,0.24598882110481904,0.5202964898133184,0.4779390590378092,0.24951331488386275,0.5552936686189185,0.5076215289038843,0.24994191229716722,0.5811795334332749,0.607374266651035,0.23847076686115243,0.561959987989086,0.47659446768038266,0.24945218105683534,0.5747207955348563,0.3144887209740747,0.2155855653541653,0.5570140577938701,0.3618316879581072,0.23090951754749414,0.6054651585798687,0.5127348873139842,0.2498378226451001,0.5521490525254402
2.0,0.0,2.0,0.0,0.0,0.0,0.0,0.0,102.06365949998144,105.57532750000246,None,left,1.2134776000166312,109.1758516000118,tb12,109.1758516000118,None,102.06365949998144,105.57532750000246,True,5.0,['p'],True,0.3333333333333333,0.5,0.3333333333333333,2.0,2.0,1.0,-0.0164991778692271,succ_gain,0.0,6.0,,,tb12,2,2022-04-08_12h08.02.362,threat_forest,2021.2.3,60.165901445129975,True,2.0,0.45,0.4055555555555555,-0.7,-0.920216049382716,0,0,1,0.1934902870249707,-0.0164991778692271,0.3333333333333333,0.3333333333333333,0.5,0.6666666666666667,-1.0,-1.0,4.0,4.0,1.0,2.0,-1.0,5.0,0,0,0,0.4067781627216465,0.2413096890544482,0.48960427810433726,0.45641461788043086,0.24810031446549116,0.4761003621020161,0.43666613153153394,0.24598882110481904,0.5202964898133184,0.4779390590378092,0.24951331488386275,0.5552936686189185,0.4416409705177855,0.246594223677894,0.57293884904229,0.2894772402988616,0.20568016764781677,0.4812401021822241,0.42417259690047904,0.24425020493918273,0.5616966199402602,0.3144887209740747,0.2155855653541653,0.5570140577938701,0.3143762000874901,0.2155438049060405,0.5838453917988558,0.33346006535965644,0.22226445016999008,0.5206521369359256
2.0,0.0,2.0,0.0,1.0,0.0,1.0,0.0,,,,left,2.882785699912347,113.24233249993996,tb12,110.4090089999372,112.4087536999723,113.24233249993996,None,False,6.0,['p'],False,0.4,0.4,0.0,0.0,2.0,0.6126016192893442,-0.041177037037037,wait_cost,1.0,5.0,112.4087536999723,None,tb12,2,2022-04-08_12h08.02.362,threat_forest,2021.2.3,60.165901445129975,False,2.0,0.45,0.4055555555555555,-0.7,-0.920216049382716,1,0,0,1.058757083570327,-0.041177037037037,0.4,0.4,0.4,1.0,-0.3999999999999999,-0.3999999999999999,5.6,5.6,0.0,2.0,1.0,6.0,0,0,1,0.46591120608739056,0.24883795412958365,0.5475860240475894,0.39993195607963783,0.23998638658595245,0.59002763379043,0.423070999871104,0.24408192893916833,0.49960326987193326,0.38313834415754233,0.23634335339375898,0.5346906177308397,0.5990430062384575,0.2401904829152489,0.5571753738364928,0.607374266651035,0.23847076686115243,0.561959987989086,0.5083731050191952,0.24992989111233754,0.5759168370978023,0.3144887209740747,0.2155855653541653,0.5570140577938701,0.3917330064224785,0.2382782581016849,0.6158330768124152,0.2971364852991714,0.2088463944032267,0.5053247637521541
2.0,0.0,2.0,0.0,3.0,0.0,3.0,0.0,,,,left,1.456062200013548,126.07609489990864,tb12,126.07609489990864,None,116.14239689998794,118.14218630001415,True,4.0,['p'],True,0.3333333333333333,0.5,0.3333333333333333,2.0,2.0,1.0,-0.0109382716049383,succ_gain,0.0,6.0,124.642251299927,None,tb12,2,2022-04-08_12h08.02.362,threat_forest,2021.2.3,60.165901445129975,True,2.0,0.45,0.4055555555555555,-0.7,-0.920216049382716,0,0,1,0.3757356686515546,-0.0109382716049383,0.3333333333333333,0.3333333333333333,0.5,0.6666666666666667,-1.0,-1.0,3.0,3.0,1.0,2.0,-1.0,4.0,0,0,0,0.4067781627216465,0.2413096890544482,0.48960427810433726,0.45641461788043086,0.24810031446549116,0.4761003621020161,0.43666613153153394,0.24598882110481904,0.5202964898133184,0.4779390590378092,0.24951331488386275,0.5552936686189185,0.4416409705177855,0.246594223677894,0.57293884904229,0.2894772402988616,0.20568016764781677,0.4812401021822241,0.42417259690047904,0.24425020493918273,0.5616966199402602,0.3144887209740747,0.2155855653541653,0.5570140577938701,0.3143762000874901,0.2155438049060405,0.5838453917988558,0.34194671048676906,0.2250191576740468,0.5237988245530243
2.0,0.0,2.0,0.0,4.0,0.0,4.0,0.0,,,,right,2.062037399969995,130.7123777999077,tb12,127.55926099990027,129.55903299991041,130.7123777999077,None,True,6.0,['p'],False,0.4,0.4,0.0,0.0,2.0,0.6126016192893442,0.0,succ_gain,1.0,6.0,129.5590329999104,None,tb12,2,2022-04-08_12h08.02.362,threat_forest,2021.2.3,60.165901445129975,True,2.0,0.45,0.4055555555555555,-0.7,-0.920216049382716,1,0,1,0.7236945231460893,0.0,0.0,0.4,0.4,1.0,-0.3999999999999999,-0.3999999999999999,5.6,5.6,0.0,2.0,1.0,6.0,0,0,1,0.46591120608739056,0.24883795412958365,0.5475860240475894,0.39993195607963783,0.23998638658595245,0.59002763379043,0.423070999871104,0.24408192893916833,0.49960326987193326,0.38313834415754233,0.23634335339375898,0.5346906177308397,0.5990430062384575,0.2401904829152489,0.5571753738364928,0.607374266651035,0.23847076686115243,0.561959987989086,0.5083731050191952,0.24992989111233754,0.5759168370978023,0.3144887209740747,0.2155855653541653,0.5570140577938701,0.07739598305683812,0.07140584486350375,0.3810413206096258,0.3589345337006091,0.23010053421773544,0.5296032537435258
