miniblock.thisRepN,miniblock.thisTrialN,miniblock.thisN,miniblock.thisIndex,day.thisRepN,day.thisTrialN,day.thisN,day.thisIndex,forest.started,fixation_forest.started,fixation_forest.stopped,key_resp.keys,key_resp.rt,key_resp.started,Subject_ID,weather_left.started,weather_left.stopped,weather_right.started,weather_right.stopped,foraging T/F,in_LP,p/r heuristic,good_weather.T/F,p_succ_correct,p_succ_uncorrected,r_threat,n_oponents,gain_if_succ,weather_entropy,OP_value_difference,action_outcome,forest_side_L=0_R=1,out_LP,fixation_day.started,fixation_day.stopped,participant,session,date,expName,psychopyVersion,frameRate,foraging T/F NaNs,fora_NR,forest_mean_p,mvt_cutoff_p,forest_mean_ev,mvt_cutoff_ev,mvt_policy_eg,mvt_policy_p,fora_response,logRT,optimal policy values,multi-heuristic policy,** $\mathit{p}$ success,* $\mathit{p}$ gain,* $\mathit{r}$ predator,expected gain naive,expected gain correct,expected state no bounds,expected state with bounds,weather type,gain magnitude,win stay lose shift,continuous energy state,** binary energy state,** wait when safe,$\mathit{p}$ success based MVT,marginal value,$\mathit{OP}$ values + cap,win stay lose shift fit,win stay lose shift_uncertain,win stay lose shift_uncertain_fit,** wait when safe fit,** wait when safe_uncertain,** wait when safe_uncertain_fit,** binary energy state fit,** binary energy state_uncertain,** binary energy state_uncertain_fit,weather type fit,weather type_uncertain,weather type_uncertain_fit,* $\mathit{r}$ predator fit,* $\mathit{r}$ predator_uncertain,* $\mathit{r}$ predator_uncertain_fit,* $\mathit{p}$ gain fit,* $\mathit{p}$ gain_uncertain,* $\mathit{p}$ gain_uncertain_fit,expected gain naive fit,expected gain naive_uncertain,expected gain naive_uncertain_fit,** $\mathit{p}$ success fit,** $\mathit{p}$ success_uncertain,** $\mathit{p}$ success_uncertain_fit,marginal value fit,marginal value_uncertain,marginal value_uncertain_fit,multi-heuristic policy fit,multi-heuristic policy_uncertain,multi-heuristic policy_uncertain_fit,optimal policy values fit,optimal policy values_uncertain,optimal policy values_uncertain_fit
0.0,0.0,0.0,0.0,0.0,0.0,0.0,0.0,28.119590099988272,31.619989600003464,,right,2.969297600007849,33.65342000001692,xm15,33.65342000001692,,28.119590099988272,31.619989600003464,False,5.0,['p'],True,0.2448979591836734,0.2857142857142857,0.1428571428571428,1.0,1.0,0.8400769154957735,-0.0213375421468753,wait_cost,0.0,4.0,,,xm15,1,2023-03-20_11h32.12.195,threat_forest,2021.2.3,59.997468115504944,False,13.0,0.4761904761904761,0.4761904761904761,-1.2040816326530612,-1.2040816326530612,0,0,0.0,1.0883254265306164,-0.0213375421468753,0.2448979591836734,0.2448979591836734,0.2857142857142857,0.1428571428571428,-0.5714285714285712,-0.4081632653061224,4.591836734693878,4.591836734693878,1.0,1.0,,5.0,0,1,0,0,-0.0213375421468753,,,,0.6028391820962578,0.23942410262577274,0.18779161151498075,0.4689647623805849,0.24903681402590644,0.16426649183283576,0.4943016042204983,0.24996752828554017,0.15724276193733666,0.5317090284780263,0.24899453751297973,0.17305086907198053,0.40649626012731954,0.24125705062982214,0.1308060778707495,0.40814024374802277,0.24156178518132737,0.17495325127225958,0.3877248739005223,0.23739429605934637,0.19386712094689185,0.34482262283420523,0.22591998161594465,0.24871224545502035,0.349485302987505,0.2273453259832368,0.2608974525832341,0.17347707412332283,0.14338277887693401,0.15707903387165648
0.0,0.0,0.0,0.0,1.0,0.0,1.0,0.0,,,,right,2.6574775999761187,42.44352930001333,xm15,42.44352930001333,,28.119590099988272,31.619989600003464,False,4.0,['p'],True,0.2448979591836734,0.2857142857142857,0.1428571428571428,1.0,1.0,0.8400769154957735,-0.0095054482418793,wait_cost,0.0,3.0,38.663386100000935,,xm15,1,2023-03-20_11h32.12.195,threat_forest,2021.2.3,59.997468115504944,False,13.0,0.4761904761904761,0.4761904761904761,-1.2040816326530612,-1.2040816326530612,0,0,0.0,0.9773774022148553,-0.0095054482418793,0.2448979591836734,0.2448979591836734,0.2857142857142857,0.1428571428571428,-0.5714285714285712,-0.4081632653061224,3.591836734693877,3.591836734693877,1.0,1.0,-1.0,4.0,0,1,0,0,-0.0095054482418793,0.5624991555795675,0.246093855551841,0.11044612330299675,0.6028391820962578,0.23942410262577274,0.18779161151498075,0.4689647623805849,0.24903681402590644,0.16426649183283576,0.4943016042204983,0.24996752828554017,0.15724276193733666,0.5317090284780263,0.24899453751297973,0.17305086907198053,0.40649626012731954,0.24125705062982214,0.1308060778707495,0.40814024374802277,0.24156178518132737,0.17495325127225958,0.3877248739005223,0.23739429605934637,0.19386712094689185,0.34482262283420523,0.22591998161594465,0.24871224545502035,0.349485302987505,0.2273453259832368,0.2608974525832341,0.2515923604734632,0.18829364462485412,0.18227235019050153
0.0,0.0,0.0,0.0,2.0,0.0,2.0,0.0,,,,right,1.168956999987131,50.819128300005104,xm15,45.12437959999079,47.1387437999947,50.819128300005104,,True,3.0,['p'],False,0.4444444444444445,0.6666666666666666,0.3333333333333333,1.0,1.0,0.9656336071428248,0.0630833959814914,succ_gain,1.0,4.0,47.1387437999947,,xm15,1,2023-03-20_11h32.12.195,threat_forest,2021.2.3,59.997468115504944,True,13.0,0.4761904761904761,0.4761904761904761,-1.2040816326530612,-1.2040816326530612,1,0,1.0,0.1561118982266843,0.0630833959814914,0.4444444444444445,0.4444444444444445,0.6666666666666666,0.3333333333333333,0.0,0.0,3.0,3.0,0.0,1.0,-1.0,3.0,0,1,0,1,0.0630833959814914,0.5624991555795675,0.246093855551841,0.11044612330299675,0.6028391820962578,0.23942410262577274,0.18779161151498075,0.4689647623805849,0.24903681402590644,0.16426649183283576,0.556303232489861,0.2468299460111927,0.13770515671139338,0.49594024045405716,0.24998351835242913,0.21719648641175304,0.6962054880800099,0.21150340644728507,0.21822832793343105,0.5253652470158537,0.24935660424382475,0.21225566973683851,0.6758486393159093,0.2190772560507432,0.13182509601903747,0.7254840158637635,0.19915695858995003,0.033936431733449846,0.7691838412529027,0.17754005960833202,0.18155154752241476,0.8581098387456176,0.1217573433935878,0.14494797321202202
0.0,0.0,0.0,0.0,3.0,0.0,3.0,0.0,,,,right,1.860655099997529,55.79778819999774,xm15,45.12437959999079,47.1387437999947,55.79778819999774,,True,4.0,['p'],False,0.4444444444444445,0.6666666666666666,0.3333333333333333,1.0,1.0,0.9656336071428248,0.0943966661251811,figh_cost,1.0,1.0,54.03240279998863,,xm15,1,2023-03-20_11h32.12.195,threat_forest,2021.2.3,59.997468115504944,True,13.0,0.4761904761904761,0.4761904761904761,-1.2040816326530612,-1.2040816326530612,1,0,1.0,0.6209286300154822,0.0943966661251811,0.4444444444444445,0.4444444444444445,0.6666666666666666,0.3333333333333333,0.0,0.0,4.0,4.0,0.0,1.0,1.0,4.0,0,1,0,1,0.0943966661251811,0.33333225458715277,0.22222186263899832,0.32108395924898625,0.6028391820962578,0.23942410262577274,0.18779161151498075,0.4689647623805849,0.24903681402590644,0.16426649183283576,0.556303232489861,0.2468299460111927,0.13770515671139338,0.49594024045405716,0.24998351835242913,0.21719648641175304,0.6962054880800099,0.21150340644728507,0.21822832793343105,0.5253652470158537,0.24935660424382475,0.21225566973683851,0.6758486393159093,0.2190772560507432,0.13182509601903747,0.7254840158637635,0.19915695858995003,0.033936431733449846,0.7691838412529027,0.17754005960833202,0.18155154752241476,0.9546218120984586,0.04331900796431373,0.10094700010486496
0.0,0.0,0.0,0.0,4.0,0.0,4.0,0.0,,,,right,0.8742524999834131,61.209366399998544,xm15,45.12437959999079,47.1387437999947,61.209366399998544,,True,1.0,['p'],False,0.4444444444444445,0.6666666666666666,0.3333333333333333,1.0,1.0,0.9656336071428248,0.1753590325018896,unsucc_cost,1.0,0.0,59.693796900013695,,xm15,1,2023-03-20_11h32.12.195,threat_forest,2021.2.3,59.997468115504944,True,13.0,0.4761904761904761,0.4761904761904761,-1.2040816326530612,-1.2040816326530612,1,0,1.0,-0.1343860434677754,0.1753590325018896,1.0,0.4444444444444445,0.6666666666666666,0.3333333333333333,0.0,0.0,1.0,1.0,0.0,1.0,-1.0,1.0,1,1,0,1,0.625,0.5624991555795675,0.246093855551841,0.11044612330299675,0.6028391820962578,0.23942410262577274,0.18779161151498075,0.9459448756528128,0.05113316787899744,0.022457354942394418,0.556303232489861,0.2468299460111927,0.13770515671139338,0.49594024045405716,0.24998351835242913,0.21719648641175304,0.6962054880800099,0.21150340644728507,0.21822832793343105,0.5253652470158537,0.24935660424382475,0.21225566973683851,0.6758486393159093,0.2190772560507432,0.13182509601903747,0.7254840158637635,0.19915695858995003,0.033936431733449846,0.9981388625271908,0.001857673640116643,-0.09833206584815805,0.9981103202250937,0.001886108885254589,0.07770469303457955
1.0,0.0,1.0,0.0,1.0,0.0,1.0,0.0,,,,left,1.4452165999973658,80.09206299998914,xm15,80.09206299998914,,75.49618789998931,77.51049690000946,True,4.0,['p'],True,0.4444444444444445,0.6666666666666666,0.3333333333333333,1.0,1.0,0.9656336071428248,0.0722068366949482,succ_gain,0.0,5.0,77.51049690000946,,xm15,1,2023-03-20_11h32.12.195,threat_forest,2021.2.3,59.997468115504944,True,39.0,0.4333333333333333,0.4547619047619047,-1.2000000000000002,-1.2020408163265306,1,0,1.0,0.3682592065230325,0.0722068366949482,0.4444444444444445,0.4444444444444445,0.6666666666666666,0.3333333333333333,0.0,0.0,4.0,4.0,1.0,1.0,-1.0,4.0,0,1,0,1,0.0722068366949482,0.5624991555795675,0.246093855551841,0.11044612330299675,0.6028391820962578,0.23942410262577274,0.18779161151498075,0.4689647623805849,0.24903681402590644,0.16426649183283576,0.4943016042204983,0.24996752828554017,0.15724276193733666,0.49594024045405716,0.24998351835242913,0.21719648641175304,0.6962054880800099,0.21150340644728507,0.21822832793343105,0.5253652470158537,0.24935660424382475,0.21225566973683851,0.6758486393159093,0.2190772560507432,0.13182509601903747,0.7254840158637635,0.19915695858995003,0.033936431733449846,0.7691838412529027,0.17754005960833202,0.18155154752241476,0.8968671609515981,0.09249645655821821,0.12853370985867005
1.0,0.0,1.0,0.0,2.0,0.0,2.0,0.0,,,,left,2.096198099985486,87.23700009999448,xm15,81.55700430000434,83.57140549999895,87.23700009999448,,False,5.0,['p'],False,0.2,0.2,0.0,0.0,1.0,0.4554859150035951,-0.0861207742722146,wait_cost,1.0,4.0,83.57140549999895,,xm15,1,2023-03-20_11h32.12.195,threat_forest,2021.2.3,59.997468115504944,False,39.0,0.4333333333333333,0.4547619047619047,-1.2000000000000002,-1.2020408163265306,0,0,0.0,0.7401252753445442,-0.0861207742722146,0.2,0.2,0.2,0.0,-0.4000000000000001,-0.4000000000000001,4.6,4.6,0.0,1.0,1.0,5.0,0,1,0,0,-0.0861207742722146,0.33333225458715277,0.22222186263899832,0.32108395924898625,0.6028391820962578,0.23942410262577274,0.18779161151498075,0.4689647623805849,0.24903681402590644,0.16426649183283576,0.556303232489861,0.2468299460111927,0.13770515671139338,0.5583432779581805,0.2465960619170945,0.06598895075040723,0.3429410298108086,0.22533247988311064,0.17759570126676227,0.4428269647702701,0.24673124404262003,0.19969190346331933,0.32629164682183487,0.21982540803612985,0.1343591770771877,0.34482262283420523,0.22591998161594465,0.24871224545502035,0.2627101390593866,0.19369352189478434,0.2072859964727808,0.015669409785687646,0.015423879382655846,0.08529887606162917
1.0,0.0,1.0,0.0,3.0,0.0,3.0,0.0,,,,left,0.9606977999792434,92.04712950001704,xm15,92.04712950001704,,89.34973190000164,91.364227699989,True,4.0,['p'],True,0.4444444444444445,0.6666666666666666,0.3333333333333333,1.0,1.0,0.9656336071428248,0.09577351013565,unsucc_cost,0.0,2.0,91.364227699989,,xm15,1,2023-03-20_11h32.12.195,threat_forest,2021.2.3,59.997468115504944,True,39.0,0.4333333333333333,0.4547619047619047,-1.2000000000000002,-1.2020408163265306,1,0,1.0,-0.0400953835875492,0.09577351013565,0.4444444444444445,0.4444444444444445,0.6666666666666666,0.3333333333333333,0.0,0.0,4.0,4.0,1.0,1.0,-1.0,4.0,0,1,0,1,0.09577351013565,0.5624991555795675,0.246093855551841,0.11044612330299675,0.6028391820962578,0.23942410262577274,0.18779161151498075,0.4689647623805849,0.24903681402590644,0.16426649183283576,0.4943016042204983,0.24996752828554017,0.15724276193733666,0.49594024045405716,0.24998351835242913,0.21719648641175304,0.6962054880800099,0.21150340644728507,0.21822832793343105,0.5253652470158537,0.24935660424382475,0.21225566973683851,0.6758486393159093,0.2190772560507432,0.13182509601903747,0.7254840158637635,0.19915695858995003,0.033936431733449846,0.7691838412529027,0.17754005960833202,0.18155154752241476,0.9569379685574402,0.04120769289059985,0.09976263129756173
1.0,0.0,1.0,0.0,4.0,0.0,4.0,0.0,,,,left,2.226480500015896,97.70893600001,xm15,97.70893600001,,89.34973190000164,91.364227699989,True,2.0,['p'],True,0.4444444444444445,0.6666666666666666,0.3333333333333333,1.0,1.0,0.9656336071428248,0.0928875171467763,succ_gain,0.0,3.0,95.0440232999972,,xm15,1,2023-03-20_11h32.12.195,threat_forest,2021.2.3,59.997468115504944,True,39.0,0.4333333333333333,0.4547619047619047,-1.2000000000000002,-1.2020408163265306,1,0,1.0,0.8004220876078273,0.0928875171467763,0.4444444444444445,0.4444444444444445,0.6666666666666666,0.3333333333333333,0.0,0.0,2.0,2.0,1.0,1.0,-1.0,2.0,0,1,0,1,0.0928875171467763,0.5624991555795675,0.246093855551841,0.11044612330299675,0.6028391820962578,0.23942410262577274,0.18779161151498075,0.4689647623805849,0.24903681402590644,0.16426649183283576,0.4943016042204983,0.24996752828554017,0.15724276193733666,0.49594024045405716,0.24998351835242913,0.21719648641175304,0.6962054880800099,0.21150340644728507,0.21822832793343105,0.5253652470158537,0.24935660424382475,0.21225566973683851,0.6758486393159093,0.2190772560507432,0.13182509601903747,0.7254840158637635,0.19915695858995003,0.033936431733449846,0.7691838412529027,0.17754005960833202,0.18155154752241476,0.9519469340383983,0.04574396881329163,0.1023073124638389
1.0,0.0,1.0,0.0,7.0,0.0,7.0,0.0,,,,left,0.868357199971797,118.7721992000006,xm15,118.7721992000006,,114.9095701999904,116.92371400000413,True,1.0,['p'],True,0.4444444444444445,0.6666666666666666,0.3333333333333333,1.0,1.0,0.9656336071428248,0.4444444444444444,unsucc_cost,0.0,0.0,116.92371400000413,,xm15,1,2023-03-20_11h32.12.195,threat_forest,2021.2.3,59.997468115504944,True,39.0,0.4333333333333333,0.4547619047619047,-1.2000000000000002,-1.2020408163265306,1,0,1.0,-0.1411521282683738,0.4444444444444444,1.0,0.4444444444444445,0.6666666666666666,0.3333333333333333,0.0,0.0,1.0,1.0,1.0,1.0,-1.0,1.0,1,1,0,1,0.625,0.5624991555795675,0.246093855551841,0.11044612330299675,0.6028391820962578,0.23942410262577274,0.18779161151498075,0.9459448756528128,0.05113316787899744,0.022457354942394418,0.4943016042204983,0.24996752828554017,0.15724276193733666,0.49594024045405716,0.24998351835242913,0.21719648641175304,0.6962054880800099,0.21150340644728507,0.21822832793343105,0.5253652470158537,0.24935660424382475,0.21225566973683851,0.6758486393159093,0.2190772560507432,0.13182509601903747,0.7254840158637635,0.19915695858995003,0.033936431733449846,0.9981388625271908,0.001857673640116643,-0.09833206584815805,0.9999999578465446,4.2153453575985484e-08,0.07664668012430931
2.0,0.0,2.0,0.0,0.0,0.0,0.0,0.0,124.44119509999292,127.94663570000556,,left,0.9104192999948282,131.62740550001035,xm15,131.62740550001035,,124.44119509999292,127.94663570000556,True,5.0,['r'],True,0.25,0.25,0.0,0.0,2.0,0.5118595071429148,0.0251257176546289,succ_gain,0.0,6.0,,,xm15,1,2023-03-20_11h32.12.195,threat_forest,2021.2.3,59.997468115504944,True,17.0,0.2678571428571428,0.350595238095238,-1.2346938775510203,-1.2173469387755105,1,0,1.0,-0.0938500163676977,0.0251257176546289,0.25,0.25,0.25,0.0,0.0,0.0,5.0,5.0,1.0,2.0,-1.0,5.0,0,1,0,1,0.0251257176546289,0.5624991555795675,0.246093855551841,0.11044612330299675,0.6028391820962578,0.23942410262577274,0.18779161151498075,0.4689647623805849,0.24903681402590644,0.16426649183283576,0.4943016042204983,0.24996752828554017,0.15724276193733666,0.5583432779581805,0.2465960619170945,0.06598895075040723,0.3794940005688071,0.23547830410108933,0.1477852089306093,0.5253652470158537,0.24935660424382475,0.21225566973683851,0.3949821099364531,0.23897124276660084,0.19920842974325992,0.7254840158637635,0.19915695858995003,0.033936431733449846,0.3601668200796871,0.2304466817933734,0.2658382932127887,0.5716423678748948,0.24486737112527823,0.2140080952785824
2.0,0.0,2.0,0.0,2.0,0.0,2.0,0.0,,,,right,2.026342899975134,142.11714290000964,xm15,142.11714290000964,,124.44119509999292,127.94663570000556,False,5.0,['r'],True,0.25,0.25,0.0,0.0,2.0,0.5118595071429148,0.060495146856459,wait_cost,0.0,4.0,141.40079770001466,,xm15,1,2023-03-20_11h32.12.195,threat_forest,2021.2.3,59.997468115504944,False,17.0,0.2678571428571428,0.350595238095238,-1.2346938775510203,-1.2173469387755105,1,0,0.0,0.706232641246305,0.060495146856459,0.25,0.25,0.25,0.0,0.0,0.0,5.0,5.0,1.0,2.0,-1.0,5.0,0,1,0,1,0.060495146856459,0.5624991555795675,0.246093855551841,0.11044612330299675,0.6028391820962578,0.23942410262577274,0.18779161151498075,0.4689647623805849,0.24903681402590644,0.16426649183283576,0.4943016042204983,0.24996752828554017,0.15724276193733666,0.5583432779581805,0.2465960619170945,0.06598895075040723,0.3794940005688071,0.23547830410108933,0.1477852089306093,0.5253652470158537,0.24935660424382475,0.21225566973683851,0.3949821099364531,0.23897124276660084,0.19920842974325992,0.7254840158637635,0.19915695858995003,0.033936431733449846,0.3601668200796871,0.2304466817933734,0.2658382932127887,0.845095222042001,0.13090928772378194,0.15008187175980764
2.0,0.0,2.0,0.0,3.0,0.0,3.0,0.0,,,,left,2.238596000010148,149.61039250000613,xm15,149.61039250000613,,124.44119509999292,127.94663570000556,True,4.0,['r'],True,0.25,0.25,0.0,0.0,2.0,0.5118595071429148,0.0587906080799667,unsucc_cost,0.0,2.0,146.17965579999145,,xm15,1,2023-03-20_11h32.12.195,threat_forest,2021.2.3,59.997468115504944,True,17.0,0.2678571428571428,0.350595238095238,-1.2346938775510203,-1.2173469387755105,1,0,1.0,0.8058488836449118,0.0587906080799667,0.25,0.25,0.25,0.0,0.0,0.0,4.0,4.0,1.0,2.0,-1.0,4.0,0,1,0,1,0.0587906080799667,0.5624991555795675,0.246093855551841,0.11044612330299675,0.6028391820962578,0.23942410262577274,0.18779161151498075,0.4689647623805849,0.24903681402590644,0.16426649183283576,0.4943016042204983,0.24996752828554017,0.15724276193733666,0.5583432779581805,0.2465960619170945,0.06598895075040723,0.3794940005688071,0.23547830410108933,0.1477852089306093,0.5253652470158537,0.24935660424382475,0.21225566973683851,0.3949821099364531,0.23897124276660084,0.19920842974325992,0.7254840158637635,0.19915695858995003,0.033936431733449846,0.3601668200796871,0.2304466817933734,0.2658382932127887,0.8360024076680888,0.13710238204124744,0.15355596609163594
2.0,0.0,2.0,0.0,5.0,0.0,5.0,0.0,,,,left,0.6775463000230957,164.41291439998895,xm15,164.41291439998895,,124.44119509999292,127.94663570000556,True,1.0,['r'],True,0.25,0.25,0.0,0.0,2.0,0.5118595071429148,0.25,succ_gain,0.0,3.0,162.13153690000763,,xm15,1,2023-03-20_11h32.12.195,threat_forest,2021.2.3,59.997468115504944,True,17.0,0.2678571428571428,0.350595238095238,-1.2346938775510203,-1.2173469387755105,1,0,1.0,-0.3892773890458351,0.25,1.0,0.25,0.25,0.0,0.0,0.0,1.0,1.0,1.0,2.0,-1.0,1.0,1,1,0,1,0.625,0.5624991555795675,0.246093855551841,0.11044612330299675,0.6028391820962578,0.23942410262577274,0.18779161151498075,0.9459448756528128,0.05113316787899744,0.022457354942394418,0.4943016042204983,0.24996752828554017,0.15724276193733666,0.5583432779581805,0.2465960619170945,0.06598895075040723,0.3794940005688071,0.23547830410108933,0.1477852089306093,0.5253652470158537,0.24935660424382475,0.21225566973683851,0.3949821099364531,0.23897124276660084,0.19920842974325992,0.7254840158637635,0.19915695858995003,0.033936431733449846,0.9981388625271908,0.001857673640116643,-0.09833206584815805,0.9999030258861413,9.696470987998844e-05,0.07670105005420974
2.0,0.0,2.0,0.0,6.0,0.0,6.0,0.0,,,,left,1.6440780999837443,169.9099300999951,xm15,165.11227099999087,167.12677450000774,169.9099300999951,,False,3.0,['r'],False,0.2040816326530612,0.2857142857142857,0.2857142857142857,2.0,2.0,0.9335459102197724,-0.6800812161599334,wait_cost,1.0,2.0,167.12677450000774,,xm15,1,2023-03-20_11h32.12.195,threat_forest,2021.2.3,59.997468115504944,False,17.0,0.2678571428571428,0.350595238095238,-1.2346938775510203,-1.2173469387755105,0,0,0.0,0.4971798015784476,-0.6800812161599334,0.0,0.2040816326530612,0.2857142857142857,0.2857142857142857,-0.7142857142857144,-0.4693877551020406,2.5306122448979598,2.5306122448979598,0.0,2.0,1.0,3.0,0,0,0,0,-0.84,0.33333225458715277,0.22222186263899832,0.32108395924898625,0.02220719269624489,0.021714033288796737,-0.09975621517407836,0.4689647623805849,0.24903681402590644,0.16426649183283576,0.556303232489861,0.2468299460111927,0.13770515671139338,0.5048928674874762,0.24997605984774998,0.21686355752136421,0.40649626012731954,0.24125705062982214,0.1308060778707495,0.37990284609289654,0.23557667362341345,0.14631126047036358,0.33167230626412786,0.22166578752156244,0.1405927644831383,0.34482262283420523,0.22591998161594465,0.24871224545502035,0.05411096498692801,0.05118296845511147,-0.019750814419302765,8.562076206823128e-13,8.562076206815811e-13,0.07664665647827841
2.0,0.0,2.0,0.0,7.0,0.0,7.0,0.0,,,,left,1.145122200017795,175.98555750001103,xm15,165.11227099999087,167.12677450000774,175.98555750001103,,False,2.0,['r'],False,0.2040816326530612,0.2857142857142857,0.2857142857142857,2.0,2.0,0.9335459102197724,-0.7959183673469388,wait_cost,1.0,1.0,173.5873939000012,,xm15,1,2023-03-20_11h32.12.195,threat_forest,2021.2.3,59.997468115504944,False,17.0,0.2678571428571428,0.350595238095238,-1.2346938775510203,-1.2173469387755105,0,0,0.0,0.1355113562178764,-0.7959183673469388,0.0,0.2040816326530612,0.2857142857142857,0.2857142857142857,-0.7142857142857144,-0.4693877551020406,1.530612244897959,1.530612244897959,0.0,2.0,-1.0,2.0,0,0,0,0,-0.84,0.5624991555795675,0.246093855551841,0.11044612330299675,0.02220719269624489,0.021714033288796737,-0.09975621517407836,0.4689647623805849,0.24903681402590644,0.16426649183283576,0.556303232489861,0.2468299460111927,0.13770515671139338,0.5048928674874762,0.24997605984774998,0.21686355752136421,0.40649626012731954,0.24125705062982214,0.1308060778707495,0.37990284609289654,0.23557667362341345,0.14631126047036358,0.33167230626412786,0.22166578752156244,0.1405927644831383,0.34482262283420523,0.22591998161594465,0.24871224545502035,0.05411096498692801,0.05118296845511147,-0.019750814419302765,8.50750529802625e-15,8.507505298026192e-15,0.07664665647780289
3.0,0.0,3.0,0.0,0.0,0.0,0.0,0.0,182.7232477999933,186.2255679999944,,left,2.551406600017799,189.87413360000937,xm15,182.7232477999933,186.2255679999944,189.87413360000937,,False,5.0,['p'],False,0.2222222222222222,0.2222222222222222,0.0,0.0,1.0,0.4821593609696809,-0.020784644955884,wait_cost,1.0,4.0,,,xm15,1,2023-03-20_11h32.12.195,threat_forest,2021.2.3,59.997468115504944,False,56.0,0.4444444444444444,0.3561507936507936,-1.1666666666666667,-1.2006802721088436,0,0,0.0,0.9366448149407648,-0.020784644955884,0.2222222222222222,0.2222222222222222,0.2222222222222222,0.0,-0.3333333333333335,-0.3333333333333335,4.666666666666666,4.666666666666666,0.0,1.0,-1.0,5.0,0,1,0,0,-0.020784644955884,0.5624991555795675,0.246093855551841,0.11044612330299675,0.6028391820962578,0.23942410262577274,0.18779161151498075,0.4689647623805849,0.24903681402590644,0.16426649183283576,0.556303232489861,0.2468299460111927,0.13770515671139338,0.5583432779581805,0.2465960619170945,0.06598895075040723,0.3589872503953361,0.23011540444893236,0.16354249740175075,0.45648802632353613,0.24810670814677868,0.2062742419608461,0.3561073338499376,0.22929490062822672,0.16643349122276285,0.34482262283420523,0.22591998161594465,0.24871224545502035,0.30392213871865387,0.2115534723153332,0.2357390905651326,0.176655826692706,0.1454485455882226,0.15823785175084296
3.0,0.0,3.0,0.0,1.0,0.0,1.0,0.0,,,,left,0.818098599993391,197.78178600000683,xm15,197.78178600000683,,192.45363629999332,194.46798720001243,True,4.0,['p'],True,0.4444444444444445,0.6666666666666666,0.3333333333333333,1.0,1.0,0.9656336071428248,0.072691747531711,succ_gain,0.0,5.0,194.46798720001243,,xm15,1,2023-03-20_11h32.12.195,threat_forest,2021.2.3,59.997468115504944,True,56.0,0.4444444444444444,0.3561507936507936,-1.1666666666666667,-1.2006802721088436,1,1,1.0,-0.2007724117542666,0.072691747531711,0.4444444444444445,0.4444444444444445,0.6666666666666666,0.3333333333333333,0.0,0.0,4.0,4.0,1.0,1.0,-1.0,4.0,0,1,1,1,0.072691747531711,0.5624991555795675,0.246093855551841,0.11044612330299675,0.6028391820962578,0.23942410262577274,0.18779161151498075,0.4689647623805849,0.24903681402590644,0.16426649183283576,0.4943016042204983,0.24996752828554017,0.15724276193733666,0.49594024045405716,0.24998351835242913,0.21719648641175304,0.6962054880800099,0.21150340644728507,0.21822832793343105,0.5253652470158537,0.24935660424382475,0.21225566973683851,0.6758486393159093,0.2190772560507432,0.13182509601903747,0.7254840158637635,0.19915695858995003,0.033936431733449846,0.7691838412529027,0.17754005960833202,0.18155154752241476,0.8986391432097254,0.0910868335010161,0.12774296403404575
3.0,0.0,3.0,0.0,2.0,0.0,2.0,0.0,,,,left,2.972949899995001,204.12626710001496,xm15,204.12626710001496,,192.45363629999332,194.46798720001243,True,5.0,['p'],True,0.4444444444444445,0.6666666666666666,0.3333333333333333,1.0,1.0,0.9656336071428248,0.0741693339429965,unsucc_cost,0.0,3.0,200.64544100000057,,xm15,1,2023-03-20_11h32.12.195,threat_forest,2021.2.3,59.997468115504944,True,56.0,0.4444444444444444,0.3561507936507936,-1.1666666666666667,-1.2006802721088436,1,1,1.0,1.0895546922073034,0.0741693339429965,0.4444444444444445,0.4444444444444445,0.6666666666666666,0.3333333333333333,0.0,0.0,5.0,5.0,1.0,1.0,1.0,5.0,0,1,1,1,0.0741693339429965,0.33333225458715277,0.22222186263899832,0.32108395924898625,0.6028391820962578,0.23942410262577274,0.18779161151498075,0.4689647623805849,0.24903681402590644,0.16426649183283576,0.4943016042204983,0.24996752828554017,0.15724276193733666,0.49594024045405716,0.24998351835242913,0.21719648641175304,0.6962054880800099,0.21150340644728507,0.21822832793343105,0.5253652470158537,0.24935660424382475,0.21225566973683851,0.6758486393159093,0.2190772560507432,0.13182509601903747,0.7254840158637635,0.19915695858995003,0.033936431733449846,0.7691838412529027,0.17754005960833202,0.18155154752241476,0.9038729794773613,0.08688661644807881,0.12538679932734875
3.0,0.0,3.0,0.0,3.0,0.0,3.0,0.0,,,,left,1.865168700023787,210.3201440999983,xm15,207.1232541000063,209.13756000000285,210.3201440999983,,False,3.0,['p'],False,0.2222222222222222,0.2222222222222222,0.0,0.0,1.0,0.4821593609696809,0.0469821673525377,wait_cost,1.0,2.0,209.13756000000285,,xm15,1,2023-03-20_11h32.12.195,threat_forest,2021.2.3,59.997468115504944,False,56.0,0.4444444444444444,0.3561507936507936,-1.1666666666666667,-1.2006802721088436,0,0,0.0,0.6233515047817313,0.0469821673525377,0.2222222222222222,0.2222222222222222,0.2222222222222222,0.0,-0.3333333333333335,-0.3333333333333335,2.6666666666666665,2.6666666666666665,0.0,1.0,-1.0,3.0,0,1,0,0,0.0469821673525377,0.5624991555795675,0.246093855551841,0.11044612330299675,0.6028391820962578,0.23942410262577274,0.18779161151498075,0.4689647623805849,0.24903681402590644,0.16426649183283576,0.556303232489861,0.2468299460111927,0.13770515671139338,0.5583432779581805,0.2465960619170945,0.06598895075040723,0.3589872503953361,0.23011540444893236,0.16354249740175075,0.45648802632353613,0.24810670814677868,0.2062742419608461,0.3561073338499376,0.22929490062822672,0.16643349122276285,0.34482262283420523,0.22591998161594465,0.24871224545502035,0.30392213871865387,0.2115534723153332,0.2357390905651326,0.7610922059680384,0.1818308599827434,0.1786469696711601
3.0,0.0,3.0,0.0,4.0,0.0,4.0,0.0,,,,left,1.5141721999971196,216.33163780000177,xm15,216.33163780000177,,212.20173060000525,214.2161468999984,True,2.0,['p'],True,0.4444444444444445,0.6666666666666666,0.3333333333333333,1.0,1.0,0.9656336071428248,0.0925925925925926,unsucc_cost,0.0,0.0,214.2161468999984,,xm15,1,2023-03-20_11h32.12.195,threat_forest,2021.2.3,59.997468115504944,True,56.0,0.4444444444444444,0.3561507936507936,-1.1666666666666667,-1.2006802721088436,1,1,1.0,0.414868886986844,0.0925925925925926,0.4444444444444445,0.4444444444444445,0.6666666666666666,0.3333333333333333,0.0,0.0,2.0,2.0,1.0,1.0,-1.0,2.0,0,1,1,1,0.0925925925925926,0.5624991555795675,0.246093855551841,0.11044612330299675,0.6028391820962578,0.23942410262577274,0.18779161151498075,0.4689647623805849,0.24903681402590644,0.16426649183283576,0.4943016042204983,0.24996752828554017,0.15724276193733666,0.49594024045405716,0.24998351835242913,0.21719648641175304,0.6962054880800099,0.21150340644728507,0.21822832793343105,0.5253652470158537,0.24935660424382475,0.21225566973683851,0.6758486393159093,0.2190772560507432,0.13182509601903747,0.7254840158637635,0.19915695858995003,0.033936431733449846,0.7691838412529027,0.17754005960833202,0.18155154752241476,0.9514069874354472,0.0462317316944541,0.10258092920110445
4.0,0.0,4.0,0.0,0.0,0.0,0.0,0.0,221.9194972999976,225.42233480000868,,right,1.4547731000056956,228.47015939999253,xm15,221.9194972999976,225.42233480000868,228.47015939999253,,True,5.0,['p'],False,0.4444444444444445,0.6666666666666666,0.3333333333333333,1.0,2.0,0.9656336071428248,0.0253949986159629,figh_cost,1.0,2.0,,,xm15,1,2023-03-20_11h32.12.195,threat_forest,2021.2.3,59.997468115504944,True,15.0,0.4833333333333333,0.4638888888888888,-0.8977777777777778,-1.0322222222222224,1,0,1.0,0.3748499434495003,0.0253949986159629,0.4444444444444445,0.4444444444444445,0.6666666666666666,0.3333333333333333,0.6666666666666665,0.4444444444444444,5.444444444444445,5.444444444444445,0.0,2.0,-1.0,5.0,0,1,0,1,0.0253949986159629,0.5624991555795675,0.246093855551841,0.11044612330299675,0.6028391820962578,0.23942410262577274,0.18779161151498075,0.4689647623805849,0.24903681402590644,0.16426649183283576,0.556303232489861,0.2468299460111927,0.13770515671139338,0.49594024045405716,0.24998351835242913,0.21719648641175304,0.6962054880800099,0.21150340644728507,0.21822832793343105,0.657826436808683,0.2250908158442748,0.09613076856909664,0.6758486393159093,0.2190772560507432,0.13182509601903747,0.7254840158637635,0.19915695858995003,0.033936431733449846,0.7691838412529027,0.17754005960833202,0.18155154752241476,0.57426537442928,0.24448465416087886,0.21379340537260683
4.0,0.0,4.0,0.0,1.0,0.0,1.0,0.0,,,,left,0.789525300002424,233.8034750999941,xm15,233.8034750999941,,229.95209259999683,231.9662890000036,True,2.0,['p'],True,0.24,0.3,0.2,2.0,2.0,0.9003120349047065,-0.0316062885915088,unsucc_cost,0.0,0.0,231.9662890000036,,xm15,1,2023-03-20_11h32.12.195,threat_forest,2021.2.3,59.997468115504944,True,15.0,0.4833333333333333,0.4638888888888888,-0.8977777777777778,-1.0322222222222224,0,0,1.0,-0.2363234001983392,-0.0316062885915088,0.24,0.24,0.3,0.2,-0.3999999999999999,-0.24,1.76,1.76,1.0,2.0,-1.0,2.0,0,1,0,0,-0.0316062885915088,0.5624991555795675,0.246093855551841,0.11044612330299675,0.6028391820962578,0.23942410262577274,0.18779161151498075,0.4689647623805849,0.24903681402590644,0.16426649183283576,0.4943016042204983,0.24996752828554017,0.15724276193733666,0.5209958403380177,0.24955917468850042,0.19825485249821462,0.41746763953279814,0.2431884094757118,0.12513135329078584,0.4428269647702702,0.2467312440426201,0.19969190346331955,0.38080444100074406,0.23579241871485493,0.18844136907368392,0.34482262283420523,0.22591998161594465,0.24871224545502035,0.33937109072401794,0.2241983535048083,0.25588393899969436,0.12239009793153749,0.10741076185984613,0.13690007743770388
5.0,0.0,5.0,0.0,0.0,0.0,0.0,0.0,238.96817579999333,242.47314260000712,,right,2.119004500011215,245.670591800008,xm15,238.96817579999333,242.47314260000712,245.670591800008,,True,4.0,['r'],False,0.36,0.6,0.4,2.0,1.0,0.9801625908629508,0.0090639294214999,unsucc_cost,1.0,2.0,,,xm15,1,2023-03-20_11h32.12.195,threat_forest,2021.2.3,59.997468115504944,True,24.0,0.55,0.5166666666666666,-0.91,-0.903888888888889,0,0,1.0,0.7509464029324276,0.0090639294214999,0.36,0.36,0.6,0.4,-0.4000000000000003,-0.3200000000000003,3.68,3.68,0.0,1.0,-1.0,4.0,0,1,0,0,0.0090639294214999,0.5624991555795675,0.246093855551841,0.11044612330299675,0.6028391820962578,0.23942410262577274,0.18779161151498075,0.4689647623805849,0.24903681402590644,0.16426649183283576,0.556303232489861,0.2468299460111927,0.13770515671139338,0.4834122194399061,0.24972484553609017,0.20564998246466004,0.6497487423710042,0.22757531415830262,0.17100579860972687,0.4428269647702701,0.24673124404262006,0.19969190346331933,0.5573653826741247,0.24670921287065123,0.22541786826940835,0.34482262283420523,0.22591998161594465,0.24871224545502035,0.6062072228773783,0.2387200258086749,0.2790187461358229,0.4131698287955277,0.242460521368602,0.21265794256515605
5.0,0.0,5.0,0.0,1.0,0.0,1.0,0.0,,,,left,1.229617099976167,253.2478183000057,xm15,253.2478183000057,,247.81838979999884,249.83288960001664,True,2.0,['r'],True,0.5,0.5,0.0,0.0,1.0,0.6309297535714574,0.0445789599999999,unsucc_cost,0.0,0.0,249.83288960001664,,xm15,1,2023-03-20_11h32.12.195,threat_forest,2021.2.3,59.997468115504944,True,24.0,0.55,0.5166666666666666,-0.91,-0.903888888888889,1,0,1.0,0.2067028200877793,0.0445789599999999,0.5,0.5,0.5,0.0,0.5,0.5,2.5,2.5,1.0,1.0,-1.0,2.0,0,1,0,1,0.0445789599999999,0.5624991555795675,0.246093855551841,0.11044612330299675,0.6028391820962578,0.23942410262577274,0.18779161151498075,0.4689647623805849,0.24903681402590644,0.16426649183283576,0.4943016042204983,0.24996752828554017,0.15724276193733666,0.5583432779581805,0.2465960619170945,0.06598895075040723,0.5746618804180057,0.24442560361244736,0.12149622562258378,0.6261193327296433,0.2340939139118295,0.1392154545510147,0.7439351594771603,0.19049563797085245,0.03501570648021857,0.7254840158637635,0.19915695858995003,0.033936431733449846,0.8470706524629408,0.12954196219894862,0.10508468453091697,0.7432640696666323,0.19082259240922794,0.18369099533181732
6.0,0.0,6.0,0.0,0.0,0.0,0.0,0.0,258.5970469999884,262.10473200000706,,left,2.2810820000013337,264.76945399999386,xm15,258.5970469999884,262.10473200000706,264.76945399999386,,False,5.0,['r'],False,0.2222222222222222,0.6666666666666666,0.6666666666666666,2.0,2.0,0.77250688571426,-0.023281607963558,wait_cost,1.0,4.0,,,xm15,1,2023-03-20_11h32.12.195,threat_forest,2021.2.3,59.997468115504944,False,34.0,0.4583333333333333,0.5041666666666667,-1.3888888888888888,-1.1494444444444445,0,0,0.0,0.8246498918017924,-0.023281607963558,0.2222222222222222,0.2222222222222222,0.6666666666666666,0.6666666666666666,-0.3333333333333335,-0.7777777777777779,4.222222222222222,4.222222222222222,0.0,2.0,-1.0,5.0,0,1,0,0,-0.023281607963558,0.5624991555795675,0.246093855551841,0.11044612330299675,0.6028391820962578,0.23942410262577274,0.18779161151498075,0.4689647623805849,0.24903681402590644,0.16426649183283576,0.556303232489861,0.2468299460111927,0.13770515671139338,0.43366342959097015,0.24559945942636777,0.021503122066425462,0.6962054880800099,0.21150340644728507,0.21822832793343105,0.45648802632353613,0.24810670814677868,0.2062742419608461,0.3561073338499376,0.22929490062822672,0.16643349122276285,0.34482262283420523,0.22591998161594465,0.24871224545502035,0.30392213871865387,0.2115534723153332,0.2357390905651326,0.16265879362658556,0.1362009104825294,0.15305027425619683
6.0,0.0,6.0,0.0,2.0,0.0,2.0,0.0,,,,right,2.292963099986082,276.608342099993,xm15,276.608342099993,,272.61196840001503,274.626396800013,False,3.0,['r'],True,0.25,0.25,0.0,0.0,2.0,0.5118595071429148,0.0764130015432098,wait_cost,0.0,2.0,274.626396800013,,xm15,1,2023-03-20_11h32.12.195,threat_forest,2021.2.3,59.997468115504944,False,34.0,0.4583333333333333,0.5041666666666667,-1.3888888888888888,-1.1494444444444445,1,0,0.0,0.8298449112849138,0.0764130015432098,0.25,0.25,0.25,0.0,0.0,0.0,3.0,3.0,1.0,2.0,-1.0,3.0,0,1,0,1,0.0764130015432098,0.5624991555795675,0.246093855551841,0.11044612330299675,0.6028391820962578,0.23942410262577274,0.18779161151498075,0.4689647623805849,0.24903681402590644,0.16426649183283576,0.4943016042204983,0.24996752828554017,0.15724276193733666,0.5583432779581805,0.2465960619170945,0.06598895075040723,0.3794940005688071,0.23547830410108933,0.1477852089306093,0.5253652470158537,0.24935660424382475,0.21225566973683851,0.3949821099364531,0.23897124276660084,0.19920842974325992,0.7254840158637635,0.19915695858995003,0.033936431733449846,0.3601668200796871,0.2304466817933734,0.2658382932127887,0.911358846630118,0.08078389929913918,0.12196340320756238
6.0,0.0,6.0,0.0,3.0,0.0,3.0,0.0,,,,left,0.9959029000019656,283.58501139999134,xm15,283.58501139999134,,272.61196840001503,274.626396800013,True,2.0,['r'],True,0.25,0.25,0.0,0.0,2.0,0.5118595071429148,0.0251146690672153,unsucc_cost,0.0,0.0,280.9372788000037,,xm15,1,2023-03-20_11h32.12.195,threat_forest,2021.2.3,59.997468115504944,True,34.0,0.4583333333333333,0.5041666666666667,-1.3888888888888888,-1.1494444444444445,1,0,1.0,-0.0041055161078595,0.0251146690672153,0.25,0.25,0.25,0.0,0.0,0.0,2.0,2.0,1.0,2.0,-1.0,2.0,0,1,0,1,0.0251146690672153,0.5624991555795675,0.246093855551841,0.11044612330299675,0.6028391820962578,0.23942410262577274,0.18779161151498075,0.4689647623805849,0.24903681402590644,0.16426649183283576,0.4943016042204983,0.24996752828554017,0.15724276193733666,0.5583432779581805,0.2465960619170945,0.06598895075040723,0.3794940005688071,0.23547830410108933,0.1477852089306093,0.5253652470158537,0.24935660424382475,0.21225566973683851,0.3949821099364531,0.23897124276660084,0.19920842974325992,0.7254840158637635,0.19915695858995003,0.033936431733449846,0.3601668200796871,0.2304466817933734,0.2658382932127887,0.5715346589380792,0.24488279257061268,0.21401674613275617
7.0,0.0,7.0,0.0,0.0,0.0,0.0,0.0,287.336913200008,290.8445926000132,,left,0.810627700004261,294.3084627999924,xm15,294.3084627999924,,287.336913200008,290.8445926000132,True,4.0,['r'],True,0.3333333333333333,0.3333333333333333,0.0,0.0,2.0,0.5793801642856949,0.0530374995311426,unsucc_cost,0.0,2.0,,,xm15,1,2023-03-20_11h32.12.195,threat_forest,2021.2.3,59.997468115504944,True,70.0,0.4166666666666666,0.4375,-1.0833333333333337,-1.2361111111111112,1,0,1.0,-0.2099463931484193,0.0530374995311426,0.3333333333333333,0.3333333333333333,0.3333333333333333,0.0,0.3333333333333331,0.3333333333333331,4.333333333333333,4.333333333333333,1.0,2.0,-1.0,4.0,0,1,0,1,0.0530374995311426,0.5624991555795675,0.246093855551841,0.11044612330299675,0.6028391820962578,0.23942410262577274,0.18779161151498075,0.4689647623805849,0.24903681402590644,0.16426649183283576,0.4943016042204983,0.24996752828554017,0.15724276193733666,0.5583432779581805,0.2465960619170945,0.06598895075040723,0.44336940491453547,0.24679297570026612,0.11454040557637335,0.5932906450847205,0.24129685553967667,0.1736854198733151,0.5177998142889945,0.24968316661127735,0.23549100847238613,0.7254840158637635,0.19915695858995003,0.033936431733449846,0.5467404423478455,0.24781533104912773,0.29350868422140197,0.8021432884772758,0.15870943322813771,0.1656767138484082
7.0,0.0,7.0,0.0,1.0,0.0,1.0,0.0,,,,left,0.9592220000049564,298.1047811000026,xm15,298.1047811000026,,287.336913200008,290.8445926000132,True,2.0,['r'],True,0.3333333333333333,0.3333333333333333,0.0,0.0,2.0,0.5793801642856949,0.0264787085262345,unsucc_cost,0.0,0.0,297.1557651000039,,xm15,1,2023-03-20_11h32.12.195,threat_forest,2021.2.3,59.997468115504944,True,70.0,0.4166666666666666,0.4375,-1.0833333333333337,-1.2361111111111112,1,0,1.0,-0.0416327397468699,0.0264787085262345,0.3333333333333333,0.3333333333333333,0.3333333333333333,0.0,0.3333333333333331,0.3333333333333331,2.333333333333333,2.333333333333333,1.0,2.0,-1.0,2.0,0,1,0,1,0.0264787085262345,0.5624991555795675,0.246093855551841,0.11044612330299675,0.6028391820962578,0.23942410262577274,0.18779161151498075,0.4689647623805849,0.24903681402590644,0.16426649183283576,0.4943016042204983,0.24996752828554017,0.15724276193733666,0.5583432779581805,0.2465960619170945,0.06598895075040723,0.44336940491453547,0.24679297570026612,0.11454040557637335,0.5932906450847205,0.24129685553967667,0.1736854198733151,0.5177998142889945,0.24968316661127735,0.23549100847238613,0.7254840158637635,0.19915695858995003,0.033936431733449846,0.5467404423478455,0.24781533104912773,0.29350868422140197,0.5847779375046479,0.24281270131245805,0.21285550234448694
8.0,0.0,8.0,0.0,0.0,0.0,0.0,0.0,304.1712339000078,307.6789667000121,,right,1.140783000009833,310.1769248000055,xm15,304.1712339000078,307.6789667000121,310.1769248000055,,True,5.0,['r'],False,0.5,0.5,0.0,0.0,2.0,0.6309297535714574,0.0630973775,succ_gain,1.0,6.0,,,xm15,1,2023-03-20_11h32.12.195,threat_forest,2021.2.3,59.997468115504944,True,67.0,0.55,0.4833333333333333,-0.4800000000000001,-0.7816666666666667,1,1,1.0,0.1317148687521987,0.0630973775,0.5,0.5,0.5,0.0,1.0,1.0,6.0,6.0,0.0,2.0,-1.0,5.0,0,1,1,1,0.0630973775,0.5624991555795675,0.246093855551841,0.11044612330299675,0.6028391820962578,0.23942410262577274,0.18779161151498075,0.4689647623805849,0.24903681402590644,0.16426649183283576,0.556303232489861,0.2468299460111927,0.13770515671139338,0.5583432779581805,0.2465960619170945,0.06598895075040723,0.5746618804180057,0.24442560361244736,0.12149622562258378,0.7170063927560206,0.20290822550301968,-0.010024904949861635,0.7439351594771603,0.19049563797085245,0.03501570648021857,0.7254840158637635,0.19915695858995003,0.033936431733449846,0.8470706524629408,0.12954196219894862,0.10508468453091697,0.8581775971734997,0.12170880888301815,0.14492074716645825
8.0,0.0,8.0,0.0,1.0,0.0,1.0,0.0,,,,right,2.8321972000121605,313.92743780001183,xm15,313.92743780001183,,311.3425100000168,313.3569347000157,False,6.0,['r'],True,0.36,0.6,0.4,2.0,2.0,0.9801625908629508,-0.1255866,wait_cost,0.0,5.0,313.3569347000157,,xm15,1,2023-03-20_11h32.12.195,threat_forest,2021.2.3,59.997468115504944,False,67.0,0.55,0.4833333333333333,-0.4800000000000001,-0.7816666666666667,0,0,0.0,1.0410528061798798,-0.1255866,0.36,0.36,0.6,0.4,0.1999999999999997,0.0399999999999998,6.04,6.04,1.0,2.0,1.0,6.0,0,1,0,0,-0.1255866,0.33333225458715277,0.22222186263899832,0.32108395924898625,0.6028391820962578,0.23942410262577274,0.18779161151498075,0.4689647623805849,0.24903681402590644,0.16426649183283576,0.4943016042204983,0.24996752828554017,0.15724276193733666,0.4834122194399061,0.24972484553609017,0.20564998246466004,0.6497487423710042,0.22757531415830262,0.17100579860972687,0.5663981647304828,0.2455912837204237,0.19423657773598157,0.5573653826741247,0.24670921287065123,0.22541786826940835,0.34482262283420523,0.22591998161594465,0.24871224545502035,0.6062072228773783,0.2387200258086749,0.2790187461358229,0.0032970796429435912,0.0032862089087716795,0.07849009679340427
8.0,0.0,8.0,0.0,2.0,0.0,2.0,0.0,,,,right,1.8020885000005364,319.68460680000135,xm15,319.68460680000135,,311.3425100000168,313.3569347000157,False,5.0,['r'],True,0.36,0.6,0.4,2.0,2.0,0.9801625908629508,-0.050683,wait_cost,0.0,4.0,318.8018002999888,,xm15,1,2023-03-20_11h32.12.195,threat_forest,2021.2.3,59.997468115504944,False,67.0,0.55,0.4833333333333333,-0.4800000000000001,-0.7816666666666667,0,0,0.0,0.5889462700781535,-0.050683,0.36,0.36,0.6,0.4,0.1999999999999997,0.0399999999999998,5.04,5.04,1.0,2.0,-1.0,5.0,0,1,0,0,-0.050683,0.5624991555795675,0.246093855551841,0.11044612330299675,0.6028391820962578,0.23942410262577274,0.18779161151498075,0.4689647623805849,0.24903681402590644,0.16426649183283576,0.4943016042204983,0.24996752828554017,0.15724276193733666,0.4834122194399061,0.24972484553609017,0.20564998246466004,0.6497487423710042,0.22757531415830262,0.17100579860972687,0.5663981647304828,0.2455912837204237,0.19423657773598157,0.5573653826741247,0.24670921287065123,0.22541786826940835,0.34482262283420523,0.22591998161594465,0.24871224545502035,0.6062072228773783,0.2387200258086749,0.2790187461358229,0.061257957966874284,0.057505420552602944,0.10890504709003063
8.0,0.0,8.0,0.0,3.0,0.0,3.0,0.0,,,,left,1.3445911999733653,324.09711070000776,xm15,324.09711070000776,,311.3425100000168,313.3569347000157,True,4.0,['r'],True,0.36,0.6,0.4,2.0,2.0,0.9801625908629508,-0.0169199999999999,figh_cost,0.0,1.0,323.53080740000587,,xm15,1,2023-03-20_11h32.12.195,threat_forest,2021.2.3,59.997468115504944,True,67.0,0.55,0.4833333333333333,-0.4800000000000001,-0.7816666666666667,0,0,1.0,0.2960900263142661,-0.0169199999999999,0.36,0.36,0.6,0.4,0.1999999999999997,0.0399999999999998,4.04,4.04,1.0,2.0,-1.0,4.0,0,1,0,0,-0.0169199999999999,0.5624991555795675,0.246093855551841,0.11044612330299675,0.6028391820962578,0.23942410262577274,0.18779161151498075,0.4689647623805849,0.24903681402590644,0.16426649183283576,0.4943016042204983,0.24996752828554017,0.15724276193733666,0.4834122194399061,0.24972484553609017,0.20564998246466004,0.6497487423710042,0.22757531415830262,0.17100579860972687,0.5663981647304828,0.2455912837204237,0.19423657773598157,0.5573653826741247,0.24670921287065123,0.22541786826940835,0.34482262283420523,0.22591998161594465,0.24871224545502035,0.6062072228773783,0.2387200258086749,0.2790187461358229,0.20015649955763345,0.16009387524246854,0.16645333404958415
8.0,0.0,8.0,0.0,4.0,0.0,4.0,0.0,,,,right,1.7842977000109386,328.6594942999945,xm15,325.4626213000156,327.47713780001504,328.6594942999945,,True,1.0,['r'],False,0.5,0.5,0.0,0.0,2.0,0.6309297535714574,0.2949999999999999,succ_gain,1.0,3.0,327.47713780001504,,xm15,1,2023-03-20_11h32.12.195,threat_forest,2021.2.3,59.997468115504944,True,67.0,0.55,0.4833333333333333,-0.4800000000000001,-0.7816666666666667,1,1,1.0,0.5790248924396412,0.2949999999999999,1.0,0.5,0.5,0.0,1.0,1.0,2.0,2.0,0.0,2.0,-1.0,1.0,1,1,1,1,0.625,0.5624991555795675,0.246093855551841,0.11044612330299675,0.6028391820962578,0.23942410262577274,0.18779161151498075,0.9459448756528128,0.05113316787899744,0.022457354942394418,0.556303232489861,0.2468299460111927,0.13770515671139338,0.5583432779581805,0.2465960619170945,0.06598895075040723,0.5746618804180057,0.24442560361244736,0.12149622562258378,0.7170063927560206,0.20290822550301968,-0.010024904949861635,0.7439351594771603,0.19049563797085245,0.03501570648021857,0.7254840158637635,0.19915695858995003,0.033936431733449846,0.9981388625271908,0.001857673640116643,-0.09833206584815805,0.9999838318860456,1.6167852546500437e-05,0.07665572603850725
8.0,0.0,8.0,0.0,6.0,0.0,6.0,0.0,,,,right,1.3312154000159353,341.3312189000135,xm15,341.3312189000135,,337.4681042000011,339.4825868000044,False,2.0,['r'],True,0.36,0.6,0.4,2.0,2.0,0.9801625908629508,-0.0699999999999999,wait_cost,0.0,1.0,339.4825868000044,,xm15,1,2023-03-20_11h32.12.195,threat_forest,2021.2.3,59.997468115504944,False,67.0,0.55,0.4833333333333333,-0.4800000000000001,-0.7816666666666667,0,0,0.0,0.2860923595394782,-0.0699999999999999,0.36,0.36,0.6,0.4,0.1999999999999997,0.0399999999999998,2.04,2.04,1.0,2.0,-1.0,2.0,0,1,0,0,-0.0699999999999999,0.5624991555795675,0.246093855551841,0.11044612330299675,0.6028391820962578,0.23942410262577274,0.18779161151498075,0.4689647623805849,0.24903681402590644,0.16426649183283576,0.4943016042204983,0.24996752828554017,0.15724276193733666,0.4834122194399061,0.24972484553609017,0.20564998246466004,0.6497487423710042,0.22757531415830262,0.17100579860972687,0.5663981647304828,0.2455912837204237,0.19423657773598157,0.5573653826741247,0.24670921287065123,0.22541786826940835,0.34482262283420523,0.22591998161594465,0.24871224545502035,0.6062072228773783,0.2387200258086749,0.2790187461358229,0.0293557592574181,0.028493998655838616,0.09263072423891745
8.0,0.0,8.0,0.0,7.0,0.0,7.0,0.0,,,,left,0.7461015000008047,346.4097985000117,xm15,346.4097985000117,,337.4681042000011,339.4825868000044,True,1.0,['r'],True,0.36,0.6,0.4,2.0,2.0,0.9801625908629508,0.36,succ_gain,0.0,3.0,344.6943447999947,,xm15,1,2023-03-20_11h32.12.195,threat_forest,2021.2.3,59.997468115504944,True,67.0,0.55,0.4833333333333333,-0.4800000000000001,-0.7816666666666667,0,0,1.0,-0.2928936290512481,0.36,1.0,0.36,0.6,0.4,0.1999999999999997,0.0399999999999998,1.0399999999999998,1.0399999999999998,1.0,2.0,-1.0,1.0,1,1,0,0,0.625,0.5624991555795675,0.246093855551841,0.11044612330299675,0.6028391820962578,0.23942410262577274,0.18779161151498075,0.9459448756528128,0.05113316787899744,0.022457354942394418,0.4943016042204983,0.24996752828554017,0.15724276193733666,0.4834122194399061,0.24972484553609017,0.20564998246466004,0.6497487423710042,0.22757531415830262,0.17100579860972687,0.5663981647304828,0.2455912837204237,0.19423657773598157,0.5573653826741247,0.24670921287065123,0.22541786826940835,0.34482262283420523,0.22591998161594465,0.24871224545502035,0.9981388625271908,0.001857673640116643,-0.09833206584815805,0.9999987842549788,1.2157435431184315e-06,0.07664733846446513
9.0,0.0,9.0,0.0,0.0,0.0,0.0,0.0,351.14855839998927,354.6518271999957,,right,2.462521500012372,355.37084759998834,xm15,355.37084759998834,,351.14855839998927,354.6518271999957,False,5.0,['r'],True,0.4081632653061224,0.5714285714285714,0.2857142857142857,2.0,1.0,0.9885754083994552,-0.0004231906775603,wait_cost,0.0,4.0,,,xm15,1,2023-03-20_11h32.12.195,threat_forest,2021.2.3,59.997468115504944,False,44.0,0.5357142857142857,0.5428571428571429,-0.7806122448979592,-0.6303061224489797,0,0,0.0,0.9011858249954834,-0.0004231906775603,0.4081632653061224,0.4081632653061224,0.5714285714285714,0.2857142857142857,-0.1428571428571428,-0.0612244897959184,4.938775510204081,4.938775510204081,1.0,1.0,1.0,5.0,0,1,0,0,-0.0004231906775603,0.33333225458715277,0.22222186263899832,0.32108395924898625,0.6028391820962578,0.23942410262577274,0.18779161151498075,0.4689647623805849,0.24903681402590644,0.16426649183283576,0.4943016042204983,0.24996752828554017,0.15724276193733666,0.5048928674874762,0.24997605984774998,0.21686355752136421,0.6288654839792853,0.23339368703878458,0.15391023727966446,0.4958116997046721,0.24998245814063608,0.2152507185980579,0.6267024336007015,0.23394649331965986,0.18218899700211222,0.34482262283420523,0.22591998161594465,0.24871224545502035,0.7051384637979435,0.2079182106706198,0.2299476723813318,0.32550945816737764,0.21955305081095786,0.1998077081683701
9.0,0.0,9.0,0.0,1.0,0.0,1.0,0.0,,,,right,2.1517392999958247,363.0627953000076,xm15,357.8656917999906,359.8801685000072,363.0627953000076,,True,4.0,['r'],False,0.5,0.5,0.0,0.0,1.0,0.6309297535714574,0.0899569925716803,unsucc_cost,1.0,2.0,359.8801685000072,,xm15,1,2023-03-20_11h32.12.195,threat_forest,2021.2.3,59.997468115504944,True,44.0,0.5357142857142857,0.5428571428571429,-0.7806122448979592,-0.6303061224489797,1,0,1.0,0.7662764918365003,0.0899569925716803,0.5,0.5,0.5,0.0,0.5,0.5,4.5,4.5,0.0,1.0,-1.0,4.0,0,1,0,1,0.0899569925716803,0.5624991555795675,0.246093855551841,0.11044612330299675,0.6028391820962578,0.23942410262577274,0.18779161151498075,0.4689647623805849,0.24903681402590644,0.16426649183283576,0.556303232489861,0.2468299460111927,0.13770515671139338,0.5583432779581805,0.2465960619170945,0.06598895075040723,0.5746618804180057,0.24442560361244736,0.12149622562258378,0.6261193327296433,0.2340939139118295,0.1392154545510147,0.7439351594771603,0.19049563797085245,0.03501570648021857,0.7254840158637635,0.19915695858995003,0.033936431733449846,0.8470706524629408,0.12954196219894862,0.10508468453091697,0.946319831183505,0.050798608292327484,0.1051427762018981
9.0,0.0,9.0,0.0,2.0,0.0,2.0,0.0,,,,right,2.4153157000255305,369.5220909999916,xm15,369.5220909999916,,365.2421513000154,367.2567488999921,False,2.0,['r'],True,0.4081632653061224,0.5714285714285714,0.2857142857142857,2.0,1.0,0.9885754083994552,0.0317505844141454,wait_cost,0.0,1.0,367.2567488999921,,xm15,1,2023-03-20_11h32.12.195,threat_forest,2021.2.3,59.997468115504944,False,44.0,0.5357142857142857,0.5428571428571429,-0.7806122448979592,-0.6303061224489797,0,0,0.0,0.8818300032090666,0.0317505844141454,0.4081632653061224,0.4081632653061224,0.5714285714285714,0.2857142857142857,-0.1428571428571428,-0.0612244897959184,1.9387755102040816,1.9387755102040816,1.0,1.0,-1.0,2.0,0,1,0,0,0.0317505844141454,0.5624991555795675,0.246093855551841,0.11044612330299675,0.6028391820962578,0.23942410262577274,0.18779161151498075,0.4689647623805849,0.24903681402590644,0.16426649183283576,0.4943016042204983,0.24996752828554017,0.15724276193733666,0.5048928674874762,0.24997605984774998,0.21686355752136421,0.6288654839792853,0.23339368703878458,0.15391023727966446,0.4958116997046721,0.24998245814063608,0.2152507185980579,0.6267024336007015,0.23394649331965986,0.18218899700211222,0.34482262283420523,0.22591998161594465,0.24871224545502035,0.7051384637979435,0.2079182106706198,0.2299476723813318,0.6346681300756032,0.2318644947419404,0.20671396784806315
9.0,0.0,9.0,0.0,3.0,0.0,3.0,0.0,,,,left,0.7556690000055823,375.3663471000036,xm15,375.3663471000036,,365.2421513000154,367.2567488999921,True,1.0,['r'],True,0.4081632653061224,0.5714285714285714,0.2857142857142857,2.0,1.0,0.9885754083994552,0.1180805612370661,figh_cost,0.0,0.0,373.9836643000017,,xm15,1,2023-03-20_11h32.12.195,threat_forest,2021.2.3,59.997468115504944,True,44.0,0.5357142857142857,0.5428571428571429,-0.7806122448979592,-0.6303061224489797,0,0,1.0,-0.280151829358889,0.1180805612370661,1.0,0.4081632653061224,0.5714285714285714,0.2857142857142857,-0.1428571428571428,-0.0612244897959184,0.9387755102040816,1.0,1.0,1.0,-1.0,1.0,1,1,0,0,0.625,0.5624991555795675,0.246093855551841,0.11044612330299675,0.6028391820962578,0.23942410262577274,0.18779161151498075,0.9459448756528128,0.05113316787899744,0.022457354942394418,0.4943016042204983,0.24996752828554017,0.15724276193733666,0.5048928674874762,0.24997605984774998,0.21686355752136421,0.6288654839792853,0.23339368703878458,0.15391023727966446,0.4958116997046721,0.24998245814063608,0.2152507185980579,0.6267024336007015,0.23394649331965986,0.18218899700211222,0.34482262283420523,0.22591998161594465,0.24871224545502035,0.9981388625271908,0.001857673640116643,-0.09833206584815805,0.9818212759716962,0.017848258021006574,0.08665886182221205
10.0,0.0,10.0,0.0,1.0,0.0,1.0,0.0,,,,left,1.093571700010216,392.6533139999956,xm15,392.6533139999956,,387.4049383999954,389.4193701999902,True,4.0,['r'],True,0.5,0.5,0.0,0.0,2.0,0.6309297535714574,0.0943759482946438,succ_gain,0.0,6.0,389.4193701999902,,xm15,1,2023-03-20_11h32.12.195,threat_forest,2021.2.3,59.997468115504944,True,14.0,0.5357142857142857,0.5357142857142857,-0.326530612244898,-0.5535714285714286,1,0,1.0,0.0894491282674332,0.0943759482946438,0.5,0.5,0.5,0.0,1.0,1.0,5.0,5.0,1.0,2.0,-1.0,4.0,0,1,0,1,0.0943759482946438,0.5624991555795675,0.246093855551841,0.11044612330299675,0.6028391820962578,0.23942410262577274,0.18779161151498075,0.4689647623805849,0.24903681402590644,0.16426649183283576,0.4943016042204983,0.24996752828554017,0.15724276193733666,0.5583432779581805,0.2465960619170945,0.06598895075040723,0.5746618804180057,0.24442560361244736,0.12149622562258378,0.7170063927560206,0.20290822550301968,-0.010024904949861635,0.7439351594771603,0.19049563797085245,0.03501570648021857,0.7254840158637635,0.19915695858995003,0.033936431733449846,0.8470706524629408,0.12954196219894862,0.10508468453091697,0.9545860695086508,0.043351505408676064,0.10096522995596535
10.0,0.0,10.0,0.0,3.0,0.0,3.0,0.0,,,,left,1.296825199999148,404.4892641000042,xm15,393.76550710000447,395.7799579999992,404.4892641000042,,False,5.0,['r'],False,0.4081632653061224,0.5714285714285714,0.2857142857142857,2.0,2.0,0.9885754083994552,0.0282654867444687,wait_cost,1.0,4.0,403.3230586000136,,xm15,1,2023-03-20_11h32.12.195,threat_forest,2021.2.3,59.997468115504944,False,14.0,0.5357142857142857,0.5357142857142857,-0.326530612244898,-0.5535714285714286,0,0,0.0,0.2599191236989702,0.0282654867444687,0.4081632653061224,0.4081632653061224,0.5714285714285714,0.2857142857142857,0.4285714285714285,0.346938775510204,5.346938775510204,5.346938775510204,0.0,2.0,-1.0,5.0,0,1,0,0,0.0282654867444687,0.5624991555795675,0.246093855551841,0.11044612330299675,0.6028391820962578,0.23942410262577274,0.18779161151498075,0.4689647623805849,0.24903681402590644,0.16426649183283576,0.556303232489861,0.2468299460111927,0.13770515671139338,0.5048928674874762,0.24997605984774998,0.21686355752136421,0.6288654839792853,0.23339368703878458,0.15391023727966446,0.6121724941288343,0.23741733156091666,0.15511980266799297,0.6267024336007015,0.23394649331965986,0.18218899700211222,0.34482262283420523,0.22591998161594465,0.24871224545502035,0.7051384637979435,0.2079182106706198,0.2299476723813318,0.6019392030730386,0.23960839887683374,0.21105800849756268
10.0,0.0,10.0,0.0,5.0,0.0,5.0,0.0,,,,left,1.2267111999972258,418.3592025999969,xm15,418.3592025999969,,414.5462277999905,416.5606441000127,True,3.0,['r'],True,0.5,0.5,0.0,0.0,2.0,0.6309297535714574,0.25,succ_gain,0.0,5.0,416.5606441000127,,xm15,1,2023-03-20_11h32.12.195,threat_forest,2021.2.3,59.997468115504944,True,14.0,0.5357142857142857,0.5357142857142857,-0.326530612244898,-0.5535714285714286,1,0,1.0,0.2043367671993075,0.25,0.5,0.5,0.5,0.0,1.0,1.0,4.0,4.0,1.0,2.0,-1.0,3.0,0,1,0,1,0.25,0.5624991555795675,0.246093855551841,0.11044612330299675,0.6028391820962578,0.23942410262577274,0.18779161151498075,0.4689647623805849,0.24903681402590644,0.16426649183283576,0.4943016042204983,0.24996752828554017,0.15724276193733666,0.5583432779581805,0.2465960619170945,0.06598895075040723,0.5746618804180057,0.24442560361244736,0.12149622562258378,0.7170063927560206,0.20290822550301968,-0.010024904949861635,0.7439351594771603,0.19049563797085245,0.03501570648021857,0.7254840158637635,0.19915695858995003,0.033936431733449846,0.8470706524629408,0.12954196219894862,0.10508468453091697,0.9999030258861413,9.696470987998844e-05,0.07670105005420974
10.0,0.0,10.0,0.0,6.0,0.0,6.0,0.0,,,,left,0.5605866999831051,422.3572975000134,xm15,419.6080290999962,421.6226281000127,422.3572975000134,,False,5.0,['r'],False,0.4081632653061224,0.5714285714285714,0.2857142857142857,2.0,2.0,0.9885754083994552,0.0,wait_cost,1.0,4.0,421.6226281000127,,xm15,1,2023-03-20_11h32.12.195,threat_forest,2021.2.3,59.997468115504944,False,14.0,0.5357142857142857,0.5357142857142857,-0.326530612244898,-0.5535714285714286,0,0,0.0,-0.5787713651438257,0.0,0.0,0.4081632653061224,0.5714285714285714,0.2857142857142857,0.4285714285714285,0.346938775510204,5.346938775510204,5.346938775510204,0.0,2.0,1.0,5.0,0,0,0,0,-0.84,0.33333225458715277,0.22222186263899832,0.32108395924898625,0.02220719269624489,0.021714033288796737,-0.09975621517407836,0.4689647623805849,0.24903681402590644,0.16426649183283576,0.556303232489861,0.2468299460111927,0.13770515671139338,0.5048928674874762,0.24997605984774998,0.21686355752136421,0.6288654839792853,0.23339368703878458,0.15391023727966446,0.6121724941288343,0.23741733156091666,0.15511980266799297,0.6267024336007015,0.23394649331965986,0.18218899700211222,0.34482262283420523,0.22591998161594465,0.24871224545502035,0.05411096498692801,0.05118296845511147,-0.019750814419302765,0.3292192047442561,0.2208339199718157,0.20052622787167906
10.0,0.0,10.0,0.0,7.0,0.0,7.0,0.0,,,,right,0.7559860000037588,427.8669327000098,xm15,427.8669327000098,,422.9384815999947,424.9527900000103,False,4.0,['r'],True,0.5,0.5,0.0,0.0,2.0,0.6309297535714574,0.0,wait_cost,0.0,3.0,424.9527900000103,,xm15,1,2023-03-20_11h32.12.195,threat_forest,2021.2.3,59.997468115504944,False,14.0,0.5357142857142857,0.5357142857142857,-0.326530612244898,-0.5535714285714286,1,0,0.0,-0.2797324214876204,0.0,0.0,0.5,0.5,0.0,1.0,1.0,5.0,5.0,1.0,2.0,-1.0,4.0,0,0,0,1,-0.84,0.5624991555795675,0.246093855551841,0.11044612330299675,0.02220719269624489,0.021714033288796737,-0.09975621517407836,0.4689647623805849,0.24903681402590644,0.16426649183283576,0.4943016042204983,0.24996752828554017,0.15724276193733666,0.5583432779581805,0.2465960619170945,0.06598895075040723,0.5746618804180057,0.24442560361244736,0.12149622562258378,0.7170063927560206,0.20290822550301968,-0.010024904949861635,0.7439351594771603,0.19049563797085245,0.03501570648021857,0.7254840158637635,0.19915695858995003,0.033936431733449846,0.05411096498692801,0.05118296845511147,-0.019750814419302765,0.3292192047442561,0.2208339199718157,0.20052622787167906
11.0,0.0,11.0,0.0,0.0,0.0,0.0,0.0,432.775435699994,436.275527299993,,left,1.279394399985904,439.7418565000117,xm15,432.775435699994,436.275527299993,439.7418565000117,,False,5.0,['p'],False,0.1728395061728395,0.2222222222222222,0.2222222222222222,2.0,2.0,0.8571721972794328,-0.0270759260606772,wait_cost,1.0,4.0,,,xm15,1,2023-03-20_11h32.12.195,threat_forest,2021.2.3,59.997468115504944,False,59.0,0.3611111111111111,0.4484126984126984,-1.1404320987654322,-0.7334813555051651,0,0,0.0,0.2463868409615602,-0.0270759260606772,0.1728395061728395,0.1728395061728395,0.2222222222222222,0.2222222222222222,-0.7777777777777777,-0.5308641975308643,4.469135802469136,4.469135802469136,0.0,2.0,-1.0,5.0,0,1,0,0,-0.0270759260606772,0.5624991555795675,0.246093855551841,0.11044612330299675,0.6028391820962578,0.23942410262577274,0.18779161151498075,0.4689647623805849,0.24903681402590644,0.16426649183283576,0.556303232489861,0.2468299460111927,0.13770515671139338,0.5168238334968932,0.2497169586264688,0.20529793065511015,0.3589872503953361,0.23011540444893236,0.16354249740175075,0.36759710417839986,0.23246947317805453,0.13144162843185292,0.2916876286255397,0.20660595593234893,0.08958329753714533,0.34482262283420523,0.22591998161594465,0.24871224545502035,0.2174933618949971,0.1701899994266089,0.16984199911883135,0.1431178983597035,0.1226351655288051,0.14544039860520735
11.0,0.0,11.0,0.0,1.0,0.0,1.0,0.0,,,,left,1.0907281000108924,443.6357605000085,xm15,432.775435699994,436.275527299993,443.6357605000085,,False,4.0,['p'],False,0.1728395061728395,0.2222222222222222,0.2222222222222222,2.0,2.0,0.8571721972794328,0.0062757750896342,wait_cost,1.0,3.0,443.0525166000007,,xm15,1,2023-03-20_11h32.12.195,threat_forest,2021.2.3,59.997468115504944,False,59.0,0.3611111111111111,0.4484126984126984,-1.1404320987654322,-0.7334813555051651,0,0,0.0,0.0868454549019728,0.0062757750896342,0.1728395061728395,0.1728395061728395,0.2222222222222222,0.2222222222222222,-0.7777777777777777,-0.5308641975308643,3.469135802469136,3.469135802469136,0.0,2.0,-1.0,4.0,0,1,0,0,0.0062757750896342,0.5624991555795675,0.246093855551841,0.11044612330299675,0.6028391820962578,0.23942410262577274,0.18779161151498075,0.4689647623805849,0.24903681402590644,0.16426649183283576,0.556303232489861,0.2468299460111927,0.13770515671139338,0.5168238334968932,0.2497169586264688,0.20529793065511015,0.3589872503953361,0.23011540444893236,0.16354249740175075,0.36759710417839986,0.23246947317805453,0.13144162843185292,0.2916876286255397,0.20660595593234893,0.08958329753714533,0.34482262283420523,0.22591998161594465,0.24871224545502035,0.2174933618949971,0.1701899994266089,0.16984199911883135,0.3865410527896189,0.23712706729791197,0.20966607426697814
11.0,0.0,11.0,0.0,2.0,0.0,2.0,0.0,,,,left,1.4369175999891013,448.9807397999976,xm15,432.775435699994,436.275527299993,448.9807397999976,,False,3.0,['p'],False,0.1728395061728395,0.2222222222222222,0.2222222222222222,2.0,2.0,0.8571721972794328,0.0140809028074422,wait_cost,1.0,2.0,446.7657257000101,,xm15,1,2023-03-20_11h32.12.195,threat_forest,2021.2.3,59.997468115504944,False,59.0,0.3611111111111111,0.4484126984126984,-1.1404320987654322,-0.7334813555051651,0,0,0.0,0.3625002637611418,0.0140809028074422,0.1728395061728395,0.1728395061728395,0.2222222222222222,0.2222222222222222,-0.7777777777777777,-0.5308641975308643,2.469135802469136,2.469135802469136,0.0,2.0,-1.0,3.0,0,1,0,0,0.0140809028074422,0.5624991555795675,0.246093855551841,0.11044612330299675,0.6028391820962578,0.23942410262577274,0.18779161151498075,0.4689647623805849,0.24903681402590644,0.16426649183283576,0.556303232489861,0.2468299460111927,0.13770515671139338,0.5168238334968932,0.2497169586264688,0.20529793065511015,0.3589872503953361,0.23011540444893236,0.16354249740175075,0.36759710417839986,0.23246947317805453,0.13144162843185292,0.2916876286255397,0.20660595593234893,0.08958329753714533,0.34482262283420523,0.22591998161594465,0.24871224545502035,0.2174933618949971,0.1701899994266089,0.16984199911883135,0.4622849592299305,0.24857757569971206,0.2160893813080254
11.0,0.0,11.0,0.0,3.0,0.0,3.0,0.0,,,,left,0.8212641999998596,453.8446929999918,xm15,453.8446929999918,,450.4495839000156,452.4603931000165,True,2.0,['p'],True,0.375,0.5,0.25,1.0,2.0,0.9850568223215076,0.0747935552891219,unsucc_cost,0.0,0.0,452.4603931000165,,xm15,1,2023-03-20_11h32.12.195,threat_forest,2021.2.3,59.997468115504944,True,59.0,0.3611111111111111,0.4484126984126984,-1.1404320987654322,-0.7334813555051651,0,0,1.0,-0.1969104186175976,0.0747935552891219,0.375,0.375,0.5,0.25,0.25,0.25,2.25,2.25,1.0,2.0,-1.0,2.0,0,1,0,0,0.0747935552891219,0.5624991555795675,0.246093855551841,0.11044612330299675,0.6028391820962578,0.23942410262577274,0.18779161151498075,0.4689647623805849,0.24903681402590644,0.16426649183283576,0.4943016042204983,0.24996752828554017,0.15724276193733666,0.5116055931291794,0.24986531020811997,0.2119199721488254,0.5746618804180057,0.24442560361244736,0.12149622562258378,0.5765376979411989,0.24414198079386185,0.1873008805998344,0.5793371233593677,0.24370562085706046,0.2152443396592848,0.34482262283420523,0.22591998161594465,0.24871224545502035,0.6384363647716552,0.23083537290880923,0.2664575258881287,0.9060106101672729,0.08515538443159876,0.1244156429025917
12.0,0.0,12.0,0.0,0.0,0.0,0.0,0.0,458.1158065999916,461.6070233999926,,left,1.7686435999930836,462.2683377999929,xm15,458.1158065999916,461.6070233999926,462.2683377999929,,False,5.0,['p'],False,0.375,0.5,0.25,1.0,1.0,0.9850568223215076,0.0363579936230754,wait_cost,1.0,4.0,,,xm15,1,2023-03-20_11h32.12.195,threat_forest,2021.2.3,59.997468115504944,False,3.0,0.35,0.3555555555555555,-1.4225000000000003,-1.281466049382716,1,1,0.0,0.5702129251190551,0.0363579936230754,0.375,0.375,0.5,0.25,-0.25,-0.125,4.875,4.875,0.0,1.0,-1.0,5.0,0,1,1,1,0.0363579936230754,0.5624991555795675,0.246093855551841,0.11044612330299675,0.6028391820962578,0.23942410262577274,0.18779161151498075,0.4689647623805849,0.24903681402590644,0.16426649183283576,0.556303232489861,0.2468299460111927,0.13770515671139338,0.5116055931291794,0.24986531020811997,0.2119199721488254,0.5746618804180057,0.24442560361244736,0.12149622562258378,0.4736544448606602,0.2493059117244,0.21201307865711683,0.5793371233593677,0.24370562085706046,0.2152443396592848,0.7254840158637635,0.19915695858995003,0.033936431733449846,0.6384363647716552,0.23083537290880923,0.2664575258881287,0.6760593365262694,0.21900311002192982,0.19949921194982947
12.0,0.0,12.0,0.0,1.0,0.0,1.0,0.0,,,,right,1.7064329000131693,469.5121218000131,xm15,458.1158065999916,461.6070233999926,469.5121218000131,,True,4.0,['p'],False,0.375,0.5,0.25,1.0,1.0,0.9850568223215076,0.0507783712463378,unsucc_cost,1.0,2.0,466.0813288000063,,xm15,1,2023-03-20_11h32.12.195,threat_forest,2021.2.3,59.997468115504944,True,3.0,0.35,0.3555555555555555,-1.4225000000000003,-1.281466049382716,1,1,1.0,0.5344051683531632,0.0507783712463378,0.375,0.375,0.5,0.25,-0.25,-0.125,3.875,3.875,0.0,1.0,-1.0,4.0,0,1,1,1,0.0507783712463378,0.5624991555795675,0.246093855551841,0.11044612330299675,0.6028391820962578,0.23942410262577274,0.18779161151498075,0.4689647623805849,0.24903681402590644,0.16426649183283576,0.556303232489861,0.2468299460111927,0.13770515671139338,0.5116055931291794,0.24986531020811997,0.2119199721488254,0.5746618804180057,0.24442560361244736,0.12149622562258378,0.4736544448606602,0.2493059117244,0.21201307865711683,0.5793371233593677,0.24370562085706046,0.2152443396592848,0.7254840158637635,0.19915695858995003,0.033936431733449846,0.6384363647716552,0.23083537290880923,0.2664575258881287,0.7874807861611268,0.16735479758818053,0.17052643997563868
12.0,0.0,12.0,0.0,2.0,0.0,2.0,0.0,,,,right,1.7161096999770962,474.7138852000062,xm15,474.7138852000062,,471.243175999989,473.257649200008,False,2.0,['p'],True,0.16,0.2,0.2,2.0,1.0,0.8198746470064713,-0.0050492087890624,wait_cost,0.0,1.0,473.257649200008,,xm15,1,2023-03-20_11h32.12.195,threat_forest,2021.2.3,59.997468115504944,False,3.0,0.35,0.3555555555555555,-1.4225000000000003,-1.281466049382716,0,0,0.0,0.5400599267480611,-0.0050492087890624,0.16,0.16,0.2,0.2,-1.0,-0.7200000000000004,1.2799999999999996,1.2799999999999996,1.0,1.0,-1.0,2.0,0,1,0,0,-0.0050492087890624,0.5624991555795675,0.246093855551841,0.11044612330299675,0.6028391820962578,0.23942410262577274,0.18779161151498075,0.4689647623805849,0.24903681402590644,0.16426649183283576,0.4943016042204983,0.24996752828554017,0.15724276193733666,0.5209958403380177,0.24955917468850042,0.19825485249821462,0.3429410298108086,0.22533247988311064,0.17759570126676227,0.32594915910650535,0.21970630478426742,0.07036297547766912,0.27610278233898317,0.19987003592365526,0.06676792360690764,0.34482262283420523,0.22591998161594465,0.24871224545502035,0.198171561371993,0.15889959363537942,0.15185499631343308,0.2864412344571494,0.20439265365981374,0.19130329226394546
12.0,0.0,12.0,0.0,3.0,0.0,3.0,0.0,,,,left,1.969501399988076,479.7519356000121,xm15,479.7519356000121,,471.243175999989,473.257649200008,True,1.0,['p'],True,0.16,0.2,0.2,2.0,1.0,0.8198746470064713,0.0189724374999998,unsucc_cost,0.0,0.0,478.46948100000736,,xm15,1,2023-03-20_11h32.12.195,threat_forest,2021.2.3,59.997468115504944,True,3.0,0.35,0.3555555555555555,-1.4225000000000003,-1.281466049382716,0,0,1.0,0.6777804142628313,0.0189724374999998,1.0,0.16,0.2,0.2,-1.0,-0.7200000000000004,0.2799999999999996,1.0,1.0,1.0,-1.0,1.0,1,1,0,0,0.625,0.5624991555795675,0.246093855551841,0.11044612330299675,0.6028391820962578,0.23942410262577274,0.18779161151498075,0.9459448756528128,0.05113316787899744,0.022457354942394418,0.4943016042204983,0.24996752828554017,0.15724276193733666,0.5209958403380177,0.24955917468850042,0.19825485249821462,0.3429410298108086,0.22533247988311064,0.17759570126676227,0.32594915910650535,0.21970630478426742,0.07036297547766912,0.27610278233898317,0.19987003592365526,0.06676792360690764,0.34482262283420523,0.22591998161594465,0.24871224545502035,0.9981388625271908,0.001857673640116643,-0.09833206584815805,0.5108953791102258,0.24988129071404447,0.21682071668085162
13.0,0.0,13.0,0.0,0.0,0.0,0.0,0.0,486.5049366999883,490.0087431000138,,left,0.6831739000044763,491.9408264000085,xm15,491.9408264000085,,486.5049366999883,490.0087431000138,True,4.0,['p'],True,0.4444444444444445,0.6666666666666666,0.3333333333333333,1.0,1.0,0.9656336071428248,0.042368878985042,figh_cost,0.0,1.0,,,xm15,1,2023-03-20_11h32.12.195,threat_forest,2021.2.3,59.997468115504944,True,6.0,0.4833333333333333,0.4166666666666666,-1.145,-1.2837500000000002,1,1,1.0,-0.3810058398070741,0.042368878985042,0.4444444444444445,0.4444444444444445,0.6666666666666666,0.3333333333333333,0.0,0.0,4.0,4.0,1.0,1.0,-1.0,4.0,0,1,1,1,0.042368878985042,0.5624991555795675,0.246093855551841,0.11044612330299675,0.6028391820962578,0.23942410262577274,0.18779161151498075,0.4689647623805849,0.24903681402590644,0.16426649183283576,0.4943016042204983,0.24996752828554017,0.15724276193733666,0.49594024045405716,0.24998351835242913,0.21719648641175304,0.6962054880800099,0.21150340644728507,0.21822832793343105,0.5253652470158537,0.24935660424382475,0.21225566973683851,0.6758486393159093,0.2190772560507432,0.13182509601903747,0.7254840158637635,0.19915695858995003,0.033936431733449846,0.7691838412529027,0.17754005960833202,0.18155154752241476,0.7261186316104927,0.19887036443859826,0.1882054945074933
13.0,0.0,13.0,0.0,1.0,0.0,1.0,0.0,,,,right,2.0913600999920163,496.9713686000032,xm15,492.65674040000886,494.6710577000049,496.9713686000032,,True,1.0,['p'],False,0.27,0.3,0.1,1.0,1.0,0.7963326591781347,0.0251461423113625,figh_cost,1.0,0.0,494.6710577000049,,xm15,1,2023-03-20_11h32.12.195,threat_forest,2021.2.3,59.997468115504944,True,6.0,0.4833333333333333,0.4166666666666666,-1.145,-1.2837500000000002,0,0,1.0,0.7378146198670614,0.0251461423113625,1.0,0.27,0.3,0.1,-0.3999999999999999,-0.29,0.71,1.0,0.0,1.0,-1.0,1.0,1,1,0,0,0.625,0.5624991555795675,0.246093855551841,0.11044612330299675,0.6028391820962578,0.23942410262577274,0.18779161151498075,0.9459448756528128,0.05113316787899744,0.022457354942394418,0.556303232489861,0.2468299460111927,0.13770515671139338,0.5397253207565643,0.2484218988907881,0.14748972119036985,0.41746763953279814,0.2431884094757118,0.12513135329078584,0.4428269647702702,0.2467312440426201,0.19969190346331955,0.423851496512282,0.24420140541658095,0.21692362179145075,0.34482262283420523,0.22591998161594465,0.24871224545502035,0.9981388625271908,0.001857673640116643,-0.09833206584815805,0.5718414630557722,0.24483880418600612,0.21399207029386302
14.0,0.0,14.0,0.0,0.0,0.0,0.0,0.0,504.45369280001614,507.9586085999909,,right,1.3347603000001982,509.4083830000018,xm15,509.4083830000018,,504.45369280001614,507.9586085999909,False,5.0,['p'],True,0.2448979591836734,0.2857142857142857,0.1428571428571428,1.0,2.0,0.8400769154957735,-0.0142294939424326,wait_cost,0.0,4.0,,,xm15,1,2023-03-20_11h32.12.195,threat_forest,2021.2.3,59.997468115504944,False,42.0,0.3928571428571428,0.4380952380952381,-0.9566326530612244,-1.0508163265306123,0,0,0.0,0.2887517251694317,-0.0142294939424326,0.2448979591836734,0.2448979591836734,0.2857142857142857,0.1428571428571428,-0.2857142857142856,-0.1632653061224489,4.836734693877551,4.836734693877551,1.0,2.0,-1.0,5.0,0,1,0,0,-0.0142294939424326,0.5624991555795675,0.246093855551841,0.11044612330299675,0.6028391820962578,0.23942410262577274,0.18779161151498075,0.4689647623805849,0.24903681402590644,0.16426649183283576,0.4943016042204983,0.24996752828554017,0.15724276193733666,0.5317090284780263,0.24899453751297973,0.17305086907198053,0.40649626012731954,0.24125705062982214,0.1308060778707495,0.4662873903918307,0.2488634599534072,0.20989570800622204,0.3877248739005223,0.23739429605934637,0.19386712094689185,0.34482262283420523,0.22591998161594465,0.24871224545502035,0.349485302987505,0.2273453259832368,0.2608974525832341,0.21785584962357876,0.17039467840836744,0.17223169944457034
14.0,0.0,14.0,0.0,1.0,0.0,1.0,0.0,,,,right,1.128274100017734,515.3354384000122,xm15,515.3354384000122,,504.45369280001614,507.9586085999909,False,4.0,['p'],True,0.2448979591836734,0.2857142857142857,0.1428571428571428,1.0,2.0,0.8400769154957735,0.0164149019132137,wait_cost,0.0,3.0,512.7875042000087,,xm15,1,2023-03-20_11h32.12.195,threat_forest,2021.2.3,59.997468115504944,False,42.0,0.3928571428571428,0.4380952380952381,-0.9566326530612244,-1.0508163265306123,0,0,0.0,0.1206891200266293,0.0164149019132137,0.2448979591836734,0.2448979591836734,0.2857142857142857,0.1428571428571428,-0.2857142857142856,-0.1632653061224489,3.836734693877551,3.836734693877551,1.0,2.0,-1.0,4.0,0,1,0,0,0.0164149019132137,0.5624991555795675,0.246093855551841,0.11044612330299675,0.6028391820962578,0.23942410262577274,0.18779161151498075,0.4689647623805849,0.24903681402590644,0.16426649183283576,0.4943016042204983,0.24996752828554017,0.15724276193733666,0.5317090284780263,0.24899453751297973,0.17305086907198053,0.40649626012731954,0.24125705062982214,0.1308060778707495,0.4662873903918307,0.2488634599534072,0.20989570800622204,0.3877248739005223,0.23739429605934637,0.19386712094689185,0.34482262283420523,0.22591998161594465,0.24871224545502035,0.349485302987505,0.2273453259832368,0.2608974525832341,0.4854468618915132,0.24978820617119532,0.21676849973305204
14.0,0.0,14.0,0.0,2.0,0.0,2.0,0.0,,,,right,1.722677699988708,521.7132176000159,xm15,521.7132176000159,,504.45369280001614,507.9586085999909,False,3.0,['p'],True,0.2448979591836734,0.2857142857142857,0.1428571428571428,1.0,2.0,0.8400769154957735,0.0632224829122191,wait_cost,0.0,2.0,518.4990348000138,,xm15,1,2023-03-20_11h32.12.195,threat_forest,2021.2.3,59.997468115504944,False,42.0,0.3928571428571428,0.4380952380952381,-0.9566326530612244,-1.0508163265306123,0,0,0.0,0.5438798825838871,0.0632224829122191,0.2448979591836734,0.2448979591836734,0.2857142857142857,0.1428571428571428,-0.2857142857142856,-0.1632653061224489,2.836734693877551,2.836734693877551,1.0,2.0,-1.0,3.0,0,1,0,0,0.0632224829122191,0.5624991555795675,0.246093855551841,0.11044612330299675,0.6028391820962578,0.23942410262577274,0.18779161151498075,0.4689647623805849,0.24903681402590644,0.16426649183283576,0.4943016042204983,0.24996752828554017,0.15724276193733666,0.5317090284780263,0.24899453751297973,0.17305086907198053,0.40649626012731954,0.24125705062982214,0.1308060778707495,0.4662873903918307,0.2488634599534072,0.20989570800622204,0.3877248739005223,0.23739429605934637,0.19386712094689185,0.34482262283420523,0.22591998161594465,0.24871224545502035,0.349485302987505,0.2273453259832368,0.2608974525832341,0.8587826921455355,0.12127497981680191,0.1446773852826139
14.0,0.0,14.0,0.0,3.0,0.0,3.0,0.0,,,,right,1.2335262999986298,526.4916033000045,xm15,523.4611936000001,525.4755861000158,526.4916033000045,,True,2.0,['p'],False,0.375,0.5,0.25,1.0,2.0,0.9850568223215076,0.0589669677188606,figh_cost,1.0,0.0,525.4755861000158,,xm15,1,2023-03-20_11h32.12.195,threat_forest,2021.2.3,59.997468115504944,True,42.0,0.3928571428571428,0.4380952380952381,-0.9566326530612244,-1.0508163265306123,1,0,1.0,0.209876978201913,0.0589669677188606,0.375,0.375,0.5,0.25,0.25,0.25,2.25,2.25,0.0,2.0,-1.0,2.0,0,1,0,1,0.0589669677188606,0.5624991555795675,0.246093855551841,0.11044612330299675,0.6028391820962578,0.23942410262577274,0.18779161151498075,0.4689647623805849,0.24903681402590644,0.16426649183283576,0.556303232489861,0.2468299460111927,0.13770515671139338,0.5116055931291794,0.24986531020811997,0.2119199721488254,0.5746618804180057,0.24442560361244736,0.12149622562258378,0.5765376979411989,0.24414198079386185,0.1873008805998344,0.5793371233593677,0.24370562085706046,0.2152443396592848,0.7254840158637635,0.19915695858995003,0.033936431733449846,0.6384363647716552,0.23083537290880923,0.2664575258881287,0.8369627354206979,0.13645611493780077,0.1531934344126658
15.0,0.0,15.0,0.0,0.0,0.0,0.0,0.0,531.4239509000035,534.9333456000022,,left,1.2545932999928482,537.9011905000079,xm15,537.9011905000079,,531.4239509000035,534.9333456000022,True,5.0,['r'],True,0.4081632653061224,0.5714285714285714,0.2857142857142857,2.0,1.0,0.9885754083994552,-0.0004231906775603,succ_gain,0.0,6.0,,,xm15,1,2023-03-20_11h32.12.195,threat_forest,2021.2.3,59.997468115504944,True,35.0,0.5357142857142857,0.4642857142857143,-0.7806122448979592,-0.8686224489795918,0,0,1.0,0.2268114563130245,-0.0004231906775603,0.4081632653061224,0.4081632653061224,0.5714285714285714,0.2857142857142857,-0.1428571428571428,-0.0612244897959184,4.938775510204081,4.938775510204081,1.0,1.0,-1.0,5.0,0,1,0,0,-0.0004231906775603,0.5624991555795675,0.246093855551841,0.11044612330299675,0.6028391820962578,0.23942410262577274,0.18779161151498075,0.4689647623805849,0.24903681402590644,0.16426649183283576,0.4943016042204983,0.24996752828554017,0.15724276193733666,0.5048928674874762,0.24997605984774998,0.21686355752136421,0.6288654839792853,0.23339368703878458,0.15391023727966446,0.4958116997046721,0.24998245814063608,0.2152507185980579,0.6267024336007015,0.23394649331965986,0.18218899700211222,0.34482262283420523,0.22591998161594465,0.24871224545502035,0.7051384637979435,0.2079182106706198,0.2299476723813318,0.32550945816737764,0.21955305081095786,0.1998077081683701
15.0,0.0,15.0,0.0,1.0,0.0,1.0,0.0,,,,right,1.6234524000028614,543.093105900014,xm15,543.093105900014,,531.4239509000035,534.9333456000022,False,6.0,['r'],True,0.4081632653061224,0.5714285714285714,0.2857142857142857,2.0,1.0,0.9885754083994552,-0.1076532809956411,wait_cost,0.0,5.0,541.1942184999934,,xm15,1,2023-03-20_11h32.12.195,threat_forest,2021.2.3,59.997468115504944,False,35.0,0.5357142857142857,0.4642857142857143,-0.7806122448979592,-0.8686224489795918,0,0,0.0,0.4845549927609772,-0.1076532809956411,0.4081632653061224,0.4081632653061224,0.5714285714285714,0.2857142857142857,-0.1428571428571428,-0.0612244897959184,5.938775510204081,5.938775510204081,1.0,1.0,1.0,6.0,0,1,0,0,-0.1076532809956411,0.33333225458715277,0.22222186263899832,0.32108395924898625,0.6028391820962578,0.23942410262577274,0.18779161151498075,0.4689647623805849,0.24903681402590644,0.16426649183283576,0.4943016042204983,0.24996752828554017,0.15724276193733666,0.5048928674874762,0.24997605984774998,0.21686355752136421,0.6288654839792853,0.23339368703878458,0.15391023727966446,0.4958116997046721,0.24998245814063608,0.2152507185980579,0.6267024336007015,0.23394649331965986,0.18218899700211222,0.34482262283420523,0.22591998161594465,0.24871224545502035,0.7051384637979435,0.2079182106706198,0.2299476723813318,0.006709646800416115,0.006664627440229783,0.08038526325931489
15.0,0.0,15.0,0.0,2.0,0.0,2.0,0.0,,,,right,1.8547972000087607,549.2204429999983,xm15,549.2204429999983,,531.4239509000035,534.9333456000022,False,5.0,['r'],True,0.4081632653061224,0.5714285714285714,0.2857142857142857,2.0,1.0,0.9885754083994552,-0.0007263192497883,wait_cost,0.0,4.0,546.7557017999934,,xm15,1,2023-03-20_11h32.12.195,threat_forest,2021.2.3,59.997468115504944,False,35.0,0.5357142857142857,0.4642857142857143,-0.7806122448979592,-0.8686224489795918,0,0,0.0,0.6177753639420305,-0.0007263192497883,0.4081632653061224,0.4081632653061224,0.5714285714285714,0.2857142857142857,-0.1428571428571428,-0.0612244897959184,4.938775510204081,4.938775510204081,1.0,1.0,-1.0,5.0,0,1,0,0,-0.0007263192497883,0.5624991555795675,0.246093855551841,0.11044612330299675,0.6028391820962578,0.23942410262577274,0.18779161151498075,0.4689647623805849,0.24903681402590644,0.16426649183283576,0.4943016042204983,0.24996752828554017,0.15724276193733666,0.5048928674874762,0.24997605984774998,0.21686355752136421,0.6288654839792853,0.23339368703878458,0.15391023727966446,0.4958116997046721,0.24998245814063608,0.2152507185980579,0.6267024336007015,0.23394649331965986,0.18218899700211222,0.34482262283420523,0.22591998161594465,0.24871224545502035,0.7051384637979435,0.2079182106706198,0.2299476723813318,0.3228655404309843,0.21862338323319275,0.19928619942058792
15.0,0.0,15.0,0.0,3.0,0.0,3.0,0.0,,,,left,2.0360479000082705,556.4802788000088,xm15,556.4802788000088,,531.4239509000035,534.9333456000022,True,4.0,['r'],True,0.4081632653061224,0.5714285714285714,0.2857142857142857,2.0,1.0,0.9885754083994552,0.0159395449535031,succ_gain,0.0,5.0,553.1164788000169,,xm15,1,2023-03-20_11h32.12.195,threat_forest,2021.2.3,59.997468115504944,True,35.0,0.5357142857142857,0.4642857142857143,-0.7806122448979592,-0.8686224489795918,0,0,1.0,0.7110106249381873,0.0159395449535031,0.4081632653061224,0.4081632653061224,0.5714285714285714,0.2857142857142857,-0.1428571428571428,-0.0612244897959184,3.938775510204081,3.938775510204081,1.0,1.0,-1.0,4.0,0,1,0,0,0.0159395449535031,0.5624991555795675,0.246093855551841,0.11044612330299675,0.6028391820962578,0.23942410262577274,0.18779161151498075,0.4689647623805849,0.24903681402590644,0.16426649183283576,0.4943016042204983,0.24996752828554017,0.15724276193733666,0.5048928674874762,0.24997605984774998,0.21686355752136421,0.6288654839792853,0.23339368703878458,0.15391023727966446,0.4958116997046721,0.24998245814063608,0.2152507185980579,0.6267024336007015,0.23394649331965986,0.18218899700211222,0.34482262283420523,0.22591998161594465,0.24871224545502035,0.7051384637979435,0.2079182106706198,0.2299476723813318,0.4807212328982858,0.24962832913903787,0.21667881469634248
15.0,0.0,15.0,0.0,4.0,0.0,4.0,0.0,,,,right,1.4091692000220064,562.6427126000053,xm15,562.6427126000053,,531.4239509000035,534.9333456000022,False,5.0,['r'],True,0.4081632653061224,0.5714285714285714,0.2857142857142857,2.0,1.0,0.9885754083994552,-0.2605074203775637,wait_cost,0.0,4.0,560.5594776000071,,xm15,1,2023-03-20_11h32.12.195,threat_forest,2021.2.3,59.997468115504944,False,35.0,0.5357142857142857,0.4642857142857143,-0.7806122448979592,-0.8686224489795918,0,0,0.0,0.3430003108892982,-0.2605074203775637,0.0,0.4081632653061224,0.5714285714285714,0.2857142857142857,-0.1428571428571428,-0.0612244897959184,4.938775510204081,4.938775510204081,1.0,1.0,1.0,5.0,0,0,0,0,-0.84,0.33333225458715277,0.22222186263899832,0.32108395924898625,0.02220719269624489,0.021714033288796737,-0.09975621517407836,0.4689647623805849,0.24903681402590644,0.16426649183283576,0.4943016042204983,0.24996752828554017,0.15724276193733666,0.5048928674874762,0.24997605984774998,0.21686355752136421,0.6288654839792853,0.23339368703878458,0.15391023727966446,0.4958116997046721,0.24998245814063608,0.2152507185980579,0.6267024336007015,0.23394649331965986,0.18218899700211222,0.34482262283420523,0.22591998161594465,0.24871224545502035,0.05411096498692801,0.05118296845511147,-0.019750814419302765,1.537557447460301e-05,1.5375338066312596e-05,0.0766552814675186
15.0,0.0,15.0,0.0,5.0,0.0,5.0,0.0,,,,left,0.7548710000119172,569.7254551000078,xm15,564.0736053000146,566.0876441000146,569.7254551000078,,False,4.0,['r'],False,0.5,0.5,0.0,0.0,1.0,0.6309297535714574,-0.2614795918367347,wait_cost,1.0,3.0,566.0876441000146,,xm15,1,2023-03-20_11h32.12.195,threat_forest,2021.2.3,59.997468115504944,False,35.0,0.5357142857142857,0.4642857142857143,-0.7806122448979592,-0.8686224489795918,1,1,0.0,-0.2812084052428687,-0.2614795918367347,0.0,0.5,0.5,0.0,0.5,0.5,4.5,4.5,0.0,1.0,-1.0,4.0,0,0,1,1,-0.84,0.5624991555795675,0.246093855551841,0.11044612330299675,0.02220719269624489,0.021714033288796737,-0.09975621517407836,0.4689647623805849,0.24903681402590644,0.16426649183283576,0.556303232489861,0.2468299460111927,0.13770515671139338,0.5583432779581805,0.2465960619170945,0.06598895075040723,0.5746618804180057,0.24442560361244736,0.12149622562258378,0.6261193327296433,0.2340939139118295,0.1392154545510147,0.7439351594771603,0.19049563797085245,0.03501570648021857,0.7254840158637635,0.19915695858995003,0.033936431733449846,0.05411096498692801,0.05118296845511147,-0.019750814419302765,1.4791872635142719e-05,1.4791653835646674e-05,0.07665495404249108
15.0,0.0,15.0,0.0,6.0,0.0,6.0,0.0,,,,right,1.4343022000102792,575.9631932000048,xm15,575.9631932000048,,570.5005797999911,572.5149571000075,False,3.0,['r'],True,0.4081632653061224,0.5714285714285714,0.2857142857142857,2.0,1.0,0.9885754083994552,-0.452832153269471,wait_cost,0.0,2.0,572.5149571000075,,xm15,1,2023-03-20_11h32.12.195,threat_forest,2021.2.3,59.997468115504944,False,35.0,0.5357142857142857,0.4642857142857143,-0.7806122448979592,-0.8686224489795918,0,0,0.0,0.3606784591732851,-0.452832153269471,0.0,0.4081632653061224,0.5714285714285714,0.2857142857142857,-0.1428571428571428,-0.0612244897959184,2.9387755102040813,2.9387755102040813,1.0,1.0,-1.0,3.0,0,0,0,0,-0.84,0.5624991555795675,0.246093855551841,0.11044612330299675,0.02220719269624489,0.021714033288796737,-0.09975621517407836,0.4689647623805849,0.24903681402590644,0.16426649183283576,0.4943016042204983,0.24996752828554017,0.15724276193733666,0.5048928674874762,0.24997605984774998,0.21686355752136421,0.6288654839792853,0.23339368703878458,0.15391023727966446,0.4958116997046721,0.24998245814063608,0.2152507185980579,0.6267024336007015,0.23394649331965986,0.18218899700211222,0.34482262283420523,0.22591998161594465,0.24871224545502035,0.05411096498692801,0.05118296845511147,-0.019750814419302765,7.271470232381167e-09,7.2714701795068935e-09,0.07664666055682098
15.0,0.0,15.0,0.0,7.0,0.0,7.0,0.0,,,,left,1.031935400009388,581.7234151000157,xm15,577.4275403000065,579.4419122000108,581.7234151000157,,False,2.0,['r'],False,0.5,0.5,0.0,0.0,1.0,0.6309297535714574,-0.5,wait_cost,1.0,1.0,579.4419122000108,,xm15,1,2023-03-20_11h32.12.195,threat_forest,2021.2.3,59.997468115504944,False,35.0,0.5357142857142857,0.4642857142857143,-0.7806122448979592,-0.8686224489795918,1,1,0.0,0.0314360682099761,-0.5,0.0,0.5,0.5,0.0,0.5,0.5,2.5,2.5,0.0,1.0,-1.0,2.0,0,0,1,1,-0.84,0.5624991555795675,0.246093855551841,0.11044612330299675,0.02220719269624489,0.021714033288796737,-0.09975621517407836,0.4689647623805849,0.24903681402590644,0.16426649183283576,0.556303232489861,0.2468299460111927,0.13770515671139338,0.5583432779581805,0.2465960619170945,0.06598895075040723,0.5746618804180057,0.24442560361244736,0.12149622562258378,0.6261193327296433,0.2340939139118295,0.1392154545510147,0.7439351594771603,0.19049563797085245,0.03501570648021857,0.7254840158637635,0.19915695858995003,0.033936431733449846,0.05411096498692801,0.05118296845511147,-0.019750814419302765,1.11201206192597e-09,1.1120120606894005e-09,0.0766466571015953
16.0,0.0,16.0,0.0,0.0,0.0,0.0,0.0,587.2090198000078,590.7147608000087,,right,0.9373892999719828,593.6806524000131,xm15,593.6806524000131,,587.2090198000078,590.7147608000087,False,5.0,['p'],True,0.2040816326530612,0.2857142857142857,0.2857142857142857,2.0,2.0,0.9335459102197724,-0.0417655517413427,wait_cost,0.0,4.0,,,xm15,1,2023-03-20_11h32.12.195,threat_forest,2021.2.3,59.997468115504944,False,21.0,0.4761904761904761,0.5059523809523809,-1.012471655328798,-0.8965419501133787,0,0,0.0,-0.0646566081394517,-0.0417655517413427,0.2040816326530612,0.2040816326530612,0.2857142857142857,0.2857142857142857,-0.7142857142857144,-0.4693877551020406,4.530612244897959,4.530612244897959,1.0,2.0,-1.0,5.0,0,1,0,0,-0.0417655517413427,0.5624991555795675,0.246093855551841,0.11044612330299675,0.6028391820962578,0.23942410262577274,0.18779161151498075,0.4689647623805849,0.24903681402590644,0.16426649183283576,0.4943016042204983,0.24996752828554017,0.15724276193733666,0.5048928674874762,0.24997605984774998,0.21686355752136421,0.40649626012731954,0.24125705062982214,0.1308060778707495,0.37990284609289654,0.23557667362341345,0.14631126047036358,0.33167230626412786,0.22166578752156244,0.1405927644831383,0.34482262283420523,0.22591998161594465,0.24871224545502035,0.2700044388416806,0.19710204184746977,0.21271618729894531,0.08514291733939618,0.07789360096633292,0.12034205392066757
16.0,0.0,16.0,0.0,1.0,0.0,1.0,0.0,,,,right,1.6455952000105754,598.7575007000123,xm15,594.6447286999901,596.6591865000082,598.7575007000123,,True,4.0,['p'],False,0.4444444444444445,0.6666666666666666,0.3333333333333333,1.0,2.0,0.9656336071428248,0.1275977123343487,unsucc_cost,1.0,2.0,596.6591865000082,,xm15,1,2023-03-20_11h32.12.195,threat_forest,2021.2.3,59.997468115504944,True,21.0,0.4761904761904761,0.5059523809523809,-1.012471655328798,-0.8965419501133787,1,0,1.0,0.4981021424895557,0.1275977123343487,0.4444444444444445,0.4444444444444445,0.6666666666666666,0.3333333333333333,0.6666666666666665,0.4444444444444444,4.444444444444445,4.444444444444445,0.0,2.0,-1.0,4.0,0,1,0,1,0.1275977123343487,0.5624991555795675,0.246093855551841,0.11044612330299675,0.6028391820962578,0.23942410262577274,0.18779161151498075,0.4689647623805849,0.24903681402590644,0.16426649183283576,0.556303232489861,0.2468299460111927,0.13770515671139338,0.49594024045405716,0.24998351835242913,0.21719648641175304,0.6962054880800099,0.21150340644728507,0.21822832793343105,0.657826436808683,0.2250908158442748,0.09613076856909664,0.6758486393159093,0.2190772560507432,0.13182509601903747,0.7254840158637635,0.19915695858995003,0.033936431733449846,0.7691838412529027,0.17754005960833202,0.18155154752241476,0.9874826387729101,0.012360676895000375,0.0835805340093219
16.0,0.0,16.0,0.0,2.0,0.0,2.0,0.0,,,,right,1.623892400006298,603.6364142000093,xm15,603.6364142000093,,600.422619399993,602.4371639000019,False,2.0,['p'],True,0.2040816326530612,0.2857142857142857,0.2857142857142857,2.0,2.0,0.9335459102197724,-0.0410602699792536,wait_cost,0.0,1.0,602.4371639000019,,xm15,1,2023-03-20_11h32.12.195,threat_forest,2021.2.3,59.997468115504944,False,21.0,0.4761904761904761,0.5059523809523809,-1.012471655328798,-0.8965419501133787,0,0,0.0,0.4848259833906929,-0.0410602699792536,0.2040816326530612,0.2040816326530612,0.2857142857142857,0.2857142857142857,-0.7142857142857144,-0.4693877551020406,1.530612244897959,1.530612244897959,1.0,2.0,-1.0,2.0,0,1,0,0,-0.0410602699792536,0.5624991555795675,0.246093855551841,0.11044612330299675,0.6028391820962578,0.23942410262577274,0.18779161151498075,0.4689647623805849,0.24903681402590644,0.16426649183283576,0.4943016042204983,0.24996752828554017,0.15724276193733666,0.5048928674874762,0.24997605984774998,0.21686355752136421,0.40649626012731954,0.24125705062982214,0.1308060778707495,0.37990284609289654,0.23557667362341345,0.14631126047036358,0.33167230626412786,0.22166578752156244,0.1405927644831383,0.34482262283420523,0.22591998161594465,0.24871224545502035,0.2700044388416806,0.19710204184746977,0.21271618729894531,0.08735562698182577,0.0797246214164379,0.1213691879252688
16.0,0.0,16.0,0.0,3.0,0.0,3.0,0.0,,,,right,0.7551884000131395,610.0806040999887,xm15,605.2847610999888,607.29918490001,610.0806040999887,,True,1.0,['p'],False,0.4444444444444445,0.6666666666666666,0.3333333333333333,1.0,2.0,0.9656336071428248,0.2001903642115282,figh_cost,1.0,0.0,607.29918490001,,xm15,1,2023-03-20_11h32.12.195,threat_forest,2021.2.3,59.997468115504944,True,21.0,0.4761904761904761,0.5059523809523809,-1.012471655328798,-0.8965419501133787,1,0,1.0,-0.2807880244209073,0.2001903642115282,1.0,0.4444444444444445,0.6666666666666666,0.3333333333333333,0.6666666666666665,0.4444444444444444,1.4444444444444444,1.4444444444444444,0.0,2.0,-1.0,1.0,1,1,0,1,0.625,0.5624991555795675,0.246093855551841,0.11044612330299675,0.6028391820962578,0.23942410262577274,0.18779161151498075,0.9459448756528128,0.05113316787899744,0.022457354942394418,0.556303232489861,0.2468299460111927,0.13770515671139338,0.49594024045405716,0.24998351835242913,0.21719648641175304,0.6962054880800099,0.21150340644728507,0.21822832793343105,0.657826436808683,0.2250908158442748,0.09613076856909664,0.6758486393159093,0.2190772560507432,0.13182509601903747,0.7254840158637635,0.19915695858995003,0.033936431733449846,0.9981388625271908,0.001857673640116643,-0.09833206584815805,0.9992959876692358,0.0007035166974024409,0.07704130303822586
17.0,0.0,17.0,0.0,0.0,0.0,0.0,0.0,614.5045978999988,617.9954481000022,,right,0.8703968999907374,620.3734534000105,xm15,620.3734534000105,,614.5045978999988,617.9954481000022,False,5.0,['p'],True,0.2962962962962963,0.3333333333333333,0.1111111111111111,1.0,2.0,0.8325252476189534,-0.0036833572583059,wait_cost,0.0,4.0,,,xm15,1,2023-03-20_11h32.12.195,threat_forest,2021.2.3,59.997468115504944,False,22.0,0.4166666666666666,0.4464285714285714,-0.7129629629629629,-0.8627173091458804,0,0,0.0,-0.1388059644783254,-0.0036833572583059,0.2962962962962963,0.2962962962962963,0.3333333333333333,0.1111111111111111,-2.220446049250313e-16,0.0740740740740739,5.074074074074074,5.074074074074074,1.0,2.0,-1.0,5.0,0,1,0,0,-0.0036833572583059,0.5624991555795675,0.246093855551841,0.11044612330299675,0.6028391820962578,0.23942410262577274,0.18779161151498075,0.4689647623805849,0.24903681402590644,0.16426649183283576,0.4943016042204983,0.24996752828554017,0.15724276193733666,0.537648826621693,0.24858256585400967,0.15466149034362253,0.44336940491453547,0.24679297570026612,0.11454040557637335,0.5253652470158536,0.2493566042438247,0.2122556697368383,0.4625833184812876,0.2485999919441273,0.23182216516205978,0.34482262283420523,0.22591998161594465,0.24871224545502035,0.4622659254310139,0.24857613961642214,0.29472074569087775,0.2976829766110095,0.20906782204701868,0.19392588690916612
17.0,0.0,17.0,0.0,1.0,0.0,1.0,0.0,,,,right,0.7757879999990109,626.8812975999899,xm15,621.269995700015,623.2844822999905,626.8812975999899,,True,4.0,['p'],False,0.4166666666666667,0.5,0.1666666666666666,1.0,2.0,0.9358932809493992,0.0740380070829472,figh_cost,1.0,1.0,623.2844822999905,,xm15,1,2023-03-20_11h32.12.195,threat_forest,2021.2.3,59.997468115504944,True,22.0,0.4166666666666666,0.4464285714285714,-0.7129629629629629,-0.8627173091458804,1,0,1.0,-0.2538759920012734,0.0740380070829472,0.4166666666666667,0.4166666666666667,0.5,0.1666666666666666,0.5000000000000002,0.5000000000000002,4.5,4.5,0.0,2.0,-1.0,4.0,0,1,0,1,0.0740380070829472,0.5624991555795675,0.246093855551841,0.11044612330299675,0.6028391820962578,0.23942410262577274,0.18779161151498075,0.4689647623805849,0.24903681402590644,0.16426649183283576,0.556303232489861,0.2468299460111927,0.13770515671139338,0.5272481822441413,0.24925753656439012,0.18479048527197683,0.5746618804180057,0.24442560361244736,0.12149622562258378,0.6261193327296434,0.23409391391182952,0.1392154545510147,0.6385038401210472,0.23081668627172333,0.171587962839592,0.7254840158637635,0.19915695858995003,0.033936431733449846,0.7210465260476789,0.20113843332225284,0.21914665455788185,0.9034177568526265,0.08725411345599521,0.12559295140686183
17.0,0.0,17.0,0.0,2.0,0.0,2.0,0.0,,,,right,0.6336719999962952,632.8090406999981,xm15,621.269995700015,623.2844822999905,632.8090406999981,,True,1.0,['p'],False,0.4166666666666667,0.5,0.1666666666666666,1.0,2.0,0.9358932809493992,0.1887375616854816,succ_gain,1.0,3.0,629.6949427000072,,xm15,1,2023-03-20_11h32.12.195,threat_forest,2021.2.3,59.997468115504944,True,22.0,0.4166666666666666,0.4464285714285714,-0.7129629629629629,-0.8627173091458804,1,0,1.0,-0.4562238085802536,0.1887375616854816,1.0,0.4166666666666667,0.5,0.1666666666666666,0.5000000000000002,0.5000000000000002,1.5000000000000002,1.5000000000000002,0.0,2.0,-1.0,1.0,1,1,0,1,0.625,0.5624991555795675,0.246093855551841,0.11044612330299675,0.6028391820962578,0.23942410262577274,0.18779161151498075,0.9459448756528128,0.05113316787899744,0.022457354942394418,0.556303232489861,0.2468299460111927,0.13770515671139338,0.5272481822441413,0.24925753656439012,0.18479048527197683,0.5746618804180057,0.24442560361244736,0.12149622562258378,0.6261193327296434,0.23409391391182952,0.1392154545510147,0.6385038401210472,0.23081668627172333,0.171587962839592,0.7254840158637635,0.19915695858995003,0.033936431733449846,0.9981388625271908,0.001857673640116643,-0.09833206584815805,0.9988897572571612,0.0011090101038908366,0.07726876967652689
17.0,0.0,17.0,0.0,3.0,0.0,3.0,0.0,,,,right,2.2865850999951363,639.0698496999976,xm15,621.269995700015,623.2844822999905,639.0698496999976,,True,3.0,['p'],False,0.4166666666666667,0.5,0.1666666666666666,1.0,2.0,0.9358932809493992,0.1097621337919566,unsucc_cost,1.0,1.0,635.4729308999958,,xm15,1,2023-03-20_11h32.12.195,threat_forest,2021.2.3,59.997468115504944,True,22.0,0.4166666666666666,0.4464285714285714,-0.7129629629629629,-0.8627173091458804,1,0,1.0,0.8270594818774119,0.1097621337919566,0.4166666666666667,0.4166666666666667,0.5,0.1666666666666666,0.5000000000000002,0.5000000000000002,3.5,3.5,0.0,2.0,1.0,3.0,0,1,0,1,0.1097621337919566,0.33333225458715277,0.22222186263899832,0.32108395924898625,0.6028391820962578,0.23942410262577274,0.18779161151498075,0.4689647623805849,0.24903681402590644,0.16426649183283576,0.556303232489861,0.2468299460111927,0.13770515671139338,0.5272481822441413,0.24925753656439012,0.18479048527197683,0.5746618804180057,0.24442560361244736,0.12149622562258378,0.6261193327296434,0.23409391391182952,0.1392154545510147,0.6385038401210472,0.23081668627172333,0.171587962839592,0.7254840158637635,0.19915695858995003,0.033936431733449846,0.7210465260476789,0.20113843332225284,0.21914665455788185,0.974863942244151,0.024504236356343592,0.0903926167793026
0.0,0.0,0.0,0.0,0.0,0.0,0.0,0.0,13.018176000012318,16.509402199997567,,right,1.9894248000055088,17.950148500007344,xm15,17.950148500007344,,13.018176000012318,16.509402199997567,False,5.0,['r'],True,0.375,0.5,0.25,1.0,1.0,0.9850568223215076,0.037518611380037,wait_cost,0.0,4.0,,,xm15,2,2023-03-20_11h43.45.188,threat_forest,2021.2.3,60.10193287418021,False,9.0,0.4,0.4083333333333333,-1.3025,-1.0077314814814815,0,0,0.0,0.6878455517314167,0.037518611380037,0.375,0.375,0.5,0.25,-0.25,-0.125,4.875,4.875,1.0,1.0,-1.0,5.0,0,1,0,0,0.037518611380037,0.5624991555795675,0.246093855551841,0.11044612330299675,0.6028391820962578,0.23942410262577274,0.18779161151498075,0.4689647623805849,0.24903681402590644,0.16426649183283576,0.4943016042204983,0.24996752828554017,0.15724276193733666,0.5116055931291794,0.24986531020811997,0.2119199721488254,0.5746618804180057,0.24442560361244736,0.12149622562258378,0.4736544448606602,0.2493059117244,0.21201307865711683,0.5793371233593677,0.24370562085706046,0.2152443396592848,0.34482262283420523,0.22591998161594465,0.24871224545502035,0.6384363647716552,0.23083537290880923,0.2664575258881287,0.6860949661719707,0.215368663565453,0.19746042339171388
