miniblock.thisRepN,miniblock.thisTrialN,miniblock.thisN,miniblock.thisIndex,day.thisRepN,day.thisTrialN,day.thisN,day.thisIndex,forest.started,fixation_forest.started,fixation_forest.stopped,key_resp.keys,key_resp.rt,key_resp.started,Subject_ID,weather_left.started,weather_left.stopped,weather_right.started,weather_right.stopped,foraging T/F,in_LP,p/r heuristic,good_weather.T/F,p_succ_correct,p_succ_uncorrected,r_threat,n_oponents,gain_if_succ,weather_entropy,OP_value_difference,action_outcome,forest_side_L=0_R=1,out_LP,fixation_day.started,fixation_day.stopped,participant,session,date,expName,psychopyVersion,frameRate,foraging T/F NaNs,fora_NR,forest_mean_p,mvt_cutoff_p,forest_mean_ev,mvt_cutoff_ev,mvt_policy_eg,mvt_policy_p,fora_response,logRT,optimal policy values,multi-heuristic policy,** $\mathit{p}$ success,* $\mathit{p}$ gain,* $\mathit{r}$ predator,expected gain naive,expected gain correct,expected state no bounds,expected state with bounds,weather type,gain magnitude,win stay lose shift,continuous energy state,** binary energy state,** wait when safe,$\mathit{p}$ success based MVT,marginal value,$\mathit{OP}$ values + cap,win stay lose shift fit,win stay lose shift_uncertain,win stay lose shift_uncertain_fit,** wait when safe fit,** wait when safe_uncertain,** wait when safe_uncertain_fit,** binary energy state fit,** binary energy state_uncertain,** binary energy state_uncertain_fit,weather type fit,weather type_uncertain,weather type_uncertain_fit,* $\mathit{r}$ predator fit,* $\mathit{r}$ predator_uncertain,* $\mathit{r}$ predator_uncertain_fit,* $\mathit{p}$ gain fit,* $\mathit{p}$ gain_uncertain,* $\mathit{p}$ gain_uncertain_fit,expected gain naive fit,expected gain naive_uncertain,expected gain naive_uncertain_fit,** $\mathit{p}$ success fit,** $\mathit{p}$ success_uncertain,** $\mathit{p}$ success_uncertain_fit,marginal value fit,marginal value_uncertain,marginal value_uncertain_fit,multi-heuristic policy fit,multi-heuristic policy_uncertain,multi-heuristic policy_uncertain_fit,optimal policy values fit,optimal policy values_uncertain,optimal policy values_uncertain_fit
0.0,0.0,0.0,0.0,0.0,0.0,0.0,0.0,27.59787599999981,31.098168100000294,,left,1.1492470000002868,34.83265519999986,wp8,34.83265519999986,,27.59787599999981,31.098168100000294,True,4.0,['p'],True,0.4444444444444445,0.6666666666666666,0.3333333333333333,1.0,2.0,0.9656336071428248,0.0822356493687493,succ_gain,0.0,6.0,,,wp8,1,2023-04-18_11h23.46.740,threat_forest,2021.2.3,60.11074804224691,True,21.0,0.4761904761904761,0.4761904761904761,-1.012471655328798,-1.012471655328798,1,0,1,0.139106945302957,0.0822356493687493,0.4444444444444445,0.4444444444444445,0.6666666666666666,0.3333333333333333,0.6666666666666665,0.4444444444444444,4.444444444444445,4.444444444444445,1.0,2.0,,4.0,0,1,0,1,0.0822356493687493,,,,0.766549061043701,0.17895159805672134,-0.028165314753092474,0.6424035166470313,0.22972123844655867,-0.0829675042930198,0.6724993489078845,0.22024397462635592,-0.026159575331002216,0.7129717210911912,0.2046430460154559,-0.07745039673430049,0.7525342020042557,0.18622647681807372,-0.13250748397420364,0.6402840440043416,0.23032038699778792,-0.13714383013047948,0.6864713141150519,0.21522844901220556,-0.1206950621306142,0.6593305733634571,0.224613768391672,-0.15709183170609542,0.7651948188961365,0.1796717080306453,-0.08351500679004689,0.7842815266237325,0.16918401362048,-0.08816639105475324
0.0,0.0,0.0,0.0,1.0,0.0,1.0,0.0,,,,right,0.5813062999995964,39.19098579999991,wp8,39.19098579999991,,27.59787599999981,31.098168100000294,False,6.0,['p'],True,0.4444444444444445,0.6666666666666666,0.3333333333333333,1.0,2.0,0.9656336071428248,-0.0745100407362003,wait_cost,0.0,5.0,38.02506530000028,,wp8,1,2023-04-18_11h23.46.740,threat_forest,2021.2.3,60.11074804224691,False,21.0,0.4761904761904761,0.4761904761904761,-1.012471655328798,-1.012471655328798,1,0,0,-0.5424774665568594,-0.0745100407362003,0.4444444444444445,0.4444444444444445,0.6666666666666666,0.3333333333333333,0.6666666666666665,0.4444444444444444,6.444444444444445,6.444444444444445,1.0,2.0,1.0,6.0,0,1,0,1,-0.0745100407362003,0.5731756694598882,0.2446453213990972,-0.1035411815988064,0.766549061043701,0.17895159805672134,-0.028165314753092474,0.6424035166470313,0.22972123844655867,-0.0829675042930198,0.6724993489078845,0.22024397462635592,-0.026159575331002216,0.7129717210911912,0.2046430460154559,-0.07745039673430049,0.7525342020042557,0.18622647681807372,-0.13250748397420364,0.6402840440043416,0.23032038699778792,-0.13714383013047948,0.6864713141150519,0.21522844901220556,-0.1206950621306142,0.6593305733634571,0.224613768391672,-0.15709183170609542,0.7651948188961365,0.1796717080306453,-0.08351500679004689,0.6048952419894574,0.2389969882079732,-0.0734198063401052
0.0,0.0,0.0,0.0,2.0,0.0,2.0,0.0,,,,right,0.5064039999997476,45.2854883,wp8,45.2854883,,27.59787599999981,31.098168100000294,False,5.0,['p'],True,0.4444444444444445,0.6666666666666666,0.3333333333333333,1.0,2.0,0.9656336071428248,0.0918775427186178,wait_cost,0.0,4.0,41.80483650000042,,wp8,1,2023-04-18_11h23.46.740,threat_forest,2021.2.3,60.11074804224691,False,21.0,0.4761904761904761,0.4761904761904761,-1.012471655328798,-1.012471655328798,1,0,0,-0.6804205092897103,0.0918775427186178,0.4444444444444445,0.4444444444444445,0.6666666666666666,0.3333333333333333,0.6666666666666665,0.4444444444444444,5.444444444444445,5.444444444444445,1.0,2.0,-1.0,5.0,0,1,0,1,0.0918775427186178,0.6900352312751002,0.21388661087421917,-0.07924124019636702,0.766549061043701,0.17895159805672134,-0.028165314753092474,0.6424035166470313,0.22972123844655867,-0.0829675042930198,0.6724993489078845,0.22024397462635592,-0.026159575331002216,0.7129717210911912,0.2046430460154559,-0.07745039673430049,0.7525342020042557,0.18622647681807372,-0.13250748397420364,0.6402840440043416,0.23032038699778792,-0.13714383013047948,0.6864713141150519,0.21522844901220556,-0.1206950621306142,0.6593305733634571,0.224613768391672,-0.15709183170609542,0.7651948188961365,0.1796717080306453,-0.08351500679004689,0.7931462775169902,0.16406525997793184,-0.08924762466024372
0.0,0.0,0.0,0.0,3.0,0.0,3.0,0.0,,,,right,1.224311499999203,49.53481800000009,wp8,45.81794350000018,47.83250109999972,49.53481800000009,,True,4.0,['p'],False,0.2040816326530612,0.2857142857142857,0.2857142857142857,2.0,2.0,0.9335459102197724,-0.0085171946857663,figh_cost,1.0,1.0,47.83250109999972,,wp8,1,2023-04-18_11h23.46.740,threat_forest,2021.2.3,60.11074804224691,True,21.0,0.4761904761904761,0.4761904761904761,-1.012471655328798,-1.012471655328798,0,0,1,0.2023786451755673,-0.0085171946857663,0.2040816326530612,0.2040816326530612,0.2857142857142857,0.2857142857142857,-0.7142857142857144,-0.4693877551020406,3.5306122448979598,3.5306122448979598,0.0,2.0,-1.0,4.0,0,1,0,0,-0.0085171946857663,0.6900352312751002,0.21388661087421917,-0.07924124019636702,0.766549061043701,0.17895159805672134,-0.028165314753092474,0.6424035166470313,0.22972123844655867,-0.0829675042930198,0.6557463245473086,0.22574308239000437,-0.13853747900225866,0.6973741343259565,0.21104345109907924,-0.0803097434720528,0.5894874610746688,0.24199199431040963,-0.04958401493429487,0.6936888388628657,0.21248463369995485,-0.014967569222171573,0.6264947196900561,0.23399908589053417,-0.02424092190510896,0.6686077481725458,0.2215714272561834,-0.007179841095949158,0.5738079723672784,0.24455238321503112,-0.08704797641444378,0.6878396809123664,0.21471625427474042,-0.07854862232303557
0.0,0.0,0.0,0.0,4.0,0.0,4.0,0.0,,,,left,0.5761864999994941,54.77629390000038,wp8,54.77629390000038,,50.78005970000049,52.77786780000042,True,1.0,['p'],True,0.4444444444444445,0.6666666666666666,0.3333333333333333,1.0,2.0,0.9656336071428248,0.2001903642115282,figh_cost,0.0,0.0,52.77786780000042,,wp8,1,2023-04-18_11h23.46.740,threat_forest,2021.2.3,60.11074804224691,True,21.0,0.4761904761904761,0.4761904761904761,-1.012471655328798,-1.012471655328798,1,0,1,-0.5513238859718627,0.2001903642115282,1.0,0.4444444444444445,0.6666666666666666,0.3333333333333333,0.6666666666666665,0.4444444444444444,1.4444444444444444,1.4444444444444444,1.0,2.0,-1.0,1.0,1,1,0,1,0.625,0.6900352312751002,0.21388661087421917,-0.07924124019636702,0.766549061043701,0.17895159805672134,-0.028165314753092474,0.8421037645080328,0.13296501430943242,-0.0949451232215897,0.6724993489078845,0.22024397462635592,-0.026159575331002216,0.7129717210911912,0.2046430460154559,-0.07745039673430049,0.7525342020042557,0.18622647681807372,-0.13250748397420364,0.6402840440043416,0.23032038699778792,-0.13714383013047948,0.6864713141150519,0.21522844901220556,-0.1206950621306142,0.6593305733634571,0.224613768391672,-0.15709183170609542,0.9617463377295031,0.036790319593391754,-0.0757346376153137,0.8745325303819081,0.10972538368572501,-0.10072582901783428
1.0,0.0,1.0,0.0,0.0,0.0,0.0,0.0,60.665927799999736,64.16720220000025,,right,0.9610436000002665,67.74777749999976,wp8,60.665927799999736,64.16720220000025,67.74777749999976,,True,5.0,['r'],False,0.25,0.25,0.0,0.0,2.0,0.5118595071429148,0.0218437876829995,unsucc_cost,1.0,3.0,,,wp8,1,2023-04-18_11h23.46.740,threat_forest,2021.2.3,60.11074804224691,True,34.0,0.4583333333333333,0.4672619047619047,-1.3888888888888888,-1.2006802721088434,1,0,1,-0.0397355016338598,0.0218437876829995,0.25,0.25,0.25,0.0,0.0,0.0,5.0,5.0,0.0,2.0,-1.0,5.0,0,1,0,1,0.0218437876829995,0.6900352312751002,0.21388661087421917,-0.07924124019636702,0.766549061043701,0.17895159805672134,-0.028165314753092474,0.6424035166470313,0.22972123844655867,-0.0829675042930198,0.6557463245473086,0.22574308239000437,-0.13853747900225866,0.5949838450072772,0.24097806918763356,-0.09368287399411565,0.5723642507917157,0.24476341520735362,-0.04546290487778232,0.6666022824796219,0.22224367947258025,-0.08181777188096584,0.6383276796327821,0.23086545304741032,-0.04034329837880635,0.6593305733634571,0.224613768391672,-0.15709183170609542,0.6145020337115756,0.23688928427591321,-0.08663069506366082,0.7226338838780402,0.20043415374937926,-0.08156542839017153
1.0,0.0,1.0,0.0,1.0,0.0,1.0,0.0,,,,left,0.8525200999993103,73.09298620000027,wp8,60.665927799999736,64.16720220000025,73.09298620000027,,False,3.0,['r'],False,0.25,0.25,0.0,0.0,2.0,0.5118595071429148,0.0633364704901298,wait_cost,1.0,2.0,70.74440680000043,,wp8,1,2023-04-18_11h23.46.740,threat_forest,2021.2.3,60.11074804224691,False,34.0,0.4583333333333333,0.4672619047619047,-1.3888888888888888,-1.2006802721088434,1,0,0,-0.1595584923906141,0.0633364704901298,0.25,0.25,0.25,0.0,0.0,0.0,3.0,3.0,0.0,2.0,-1.0,3.0,0,1,0,1,0.0633364704901298,0.6900352312751002,0.21388661087421917,-0.07924124019636702,0.766549061043701,0.17895159805672134,-0.028165314753092474,0.6424035166470313,0.22972123844655867,-0.0829675042930198,0.6557463245473086,0.22574308239000437,-0.13853747900225866,0.5949838450072772,0.24097806918763356,-0.09368287399411565,0.5723642507917157,0.24476341520735362,-0.04546290487778232,0.6666022824796219,0.22224367947258025,-0.08181777188096584,0.6383276796327821,0.23086545304741032,-0.04034329837880635,0.6593305733634571,0.224613768391672,-0.15709183170609542,0.6145020337115756,0.23688928427591321,-0.08663069506366082,0.7661166916077048,0.1791819064477697,-0.08605453757169006
1.0,0.0,1.0,0.0,2.0,0.0,2.0,0.0,,,,left,0.7482064000005266,78.35456119999981,wp8,60.665927799999736,64.16720220000025,78.35456119999981,,False,2.0,['r'],False,0.25,0.25,0.0,0.0,2.0,0.5118595071429148,0.0165064514746228,wait_cost,1.0,1.0,75.98956369999996,,wp8,1,2023-04-18_11h23.46.740,threat_forest,2021.2.3,60.11074804224691,False,34.0,0.4583333333333333,0.4672619047619047,-1.3888888888888888,-1.2006802721088434,1,0,0,-0.2900764032413679,0.0165064514746228,0.25,0.25,0.25,0.0,0.0,0.0,2.0,2.0,0.0,2.0,-1.0,2.0,0,1,0,1,0.0165064514746228,0.6900352312751002,0.21388661087421917,-0.07924124019636702,0.766549061043701,0.17895159805672134,-0.028165314753092474,0.6424035166470313,0.22972123844655867,-0.0829675042930198,0.6557463245473086,0.22574308239000437,-0.13853747900225866,0.5949838450072772,0.24097806918763356,-0.09368287399411565,0.5723642507917157,0.24476341520735362,-0.04546290487778232,0.6666022824796219,0.22224367947258025,-0.08181777188096584,0.6383276796327821,0.23086545304741032,-0.04034329837880635,0.6593305733634571,0.224613768391672,-0.15709183170609542,0.6145020337115756,0.23688928427591321,-0.08663069506366082,0.7166925139216228,0.20304435441032737,-0.08101407607498458
1.0,0.0,1.0,0.0,3.0,0.0,3.0,0.0,,,,left,0.9204939999999624,83.14975549999963,wp8,83.14975549999963,,79.12019820000023,81.13467430000037,True,1.0,['r'],True,0.2222222222222222,0.6666666666666666,0.6666666666666666,2.0,2.0,0.77250688571426,0.0750600137174211,succ_gain,0.0,3.0,81.13467430000037,,wp8,1,2023-04-18_11h23.46.740,threat_forest,2021.2.3,60.11074804224691,True,34.0,0.4583333333333333,0.4672619047619047,-1.3888888888888888,-1.2006802721088434,0,0,1,-0.0828447965269211,0.0750600137174211,1.0,0.2222222222222222,0.6666666666666666,0.6666666666666666,-0.3333333333333335,-0.7777777777777779,0.2222222222222221,1.0,1.0,2.0,-1.0,1.0,1,1,0,0,0.625,0.6900352312751002,0.21388661087421917,-0.07924124019636702,0.766549061043701,0.17895159805672134,-0.028165314753092474,0.8421037645080328,0.13296501430943242,-0.0949451232215897,0.6724993489078845,0.22024397462635592,-0.026159575331002216,0.8076969991161453,0.1553225567349188,-0.05541673194494362,0.7525342020042557,0.18622647681807372,-0.13250748397420364,0.6793938551999533,0.2178178447164982,-0.051500468604415595,0.6311884818301254,0.23278958223510685,-0.03045603521959328,0.6686077481725458,0.2215714272561834,-0.007179841095949158,0.9617463377295031,0.036790319593391754,-0.0757346376153137,0.777507555060948,0.17298955688409487,-0.08736254669124136
1.0,0.0,1.0,0.0,4.0,0.0,4.0,0.0,,,,right,1.0167492999999013,88.6447347000003,wp8,84.09890460000042,86.11338179999984,88.6447347000003,,True,3.0,['r'],False,0.25,0.25,0.0,0.0,2.0,0.5118595071429148,0.1840277777777776,unsucc_cost,1.0,1.0,86.11338179999984,,wp8,1,2023-04-18_11h23.46.740,threat_forest,2021.2.3,60.11074804224691,True,34.0,0.4583333333333333,0.4672619047619047,-1.3888888888888888,-1.2006802721088434,1,0,1,0.0166105773367044,0.1840277777777776,0.25,0.25,0.25,0.0,0.0,0.0,3.0,3.0,0.0,2.0,1.0,3.0,0,1,0,1,0.1840277777777776,0.5731756694598882,0.2446453213990972,-0.1035411815988064,0.766549061043701,0.17895159805672134,-0.028165314753092474,0.6424035166470313,0.22972123844655867,-0.0829675042930198,0.6557463245473086,0.22574308239000437,-0.13853747900225866,0.5949838450072772,0.24097806918763356,-0.09368287399411565,0.5723642507917157,0.24476341520735362,-0.04546290487778232,0.6666022824796219,0.22224367947258025,-0.08181777188096584,0.6383276796327821,0.23086545304741032,-0.04034329837880635,0.6593305733634571,0.224613768391672,-0.15709183170609542,0.6145020337115756,0.23688928427591321,-0.08663069506366082,0.8644158226591097,0.11720110819568437,-0.0991467327905087
1.0,0.0,1.0,0.0,5.0,0.0,5.0,0.0,,,,left,0.6854008999998769,94.3725886000002,wp8,84.09890460000042,86.11338179999984,94.3725886000002,,False,1.0,['r'],False,0.25,0.25,0.0,0.0,2.0,0.5118595071429148,0.25,wait_cost,1.0,0.0,91.70811870000034,,wp8,1,2023-04-18_11h23.46.740,threat_forest,2021.2.3,60.11074804224691,False,34.0,0.4583333333333333,0.4672619047619047,-1.3888888888888888,-1.2006802721088434,1,0,0,-0.377751356440832,0.25,1.0,0.25,0.25,0.0,0.0,0.0,1.0,1.0,0.0,2.0,-1.0,1.0,1,1,0,1,0.625,0.6900352312751002,0.21388661087421917,-0.07924124019636702,0.766549061043701,0.17895159805672134,-0.028165314753092474,0.8421037645080328,0.13296501430943242,-0.0949451232215897,0.6557463245473086,0.22574308239000437,-0.13853747900225866,0.5949838450072772,0.24097806918763356,-0.09368287399411565,0.5723642507917157,0.24476341520735362,-0.04546290487778232,0.6666022824796219,0.22224367947258025,-0.08181777188096584,0.6383276796327821,0.23086545304741032,-0.04034329837880635,0.6593305733634571,0.224613768391672,-0.15709183170609542,0.9617463377295031,0.036790319593391754,-0.0757346376153137,0.9017198658595076,0.08862114937381921,-0.10518367343654286
2.0,0.0,2.0,0.0,0.0,0.0,0.0,0.0,99.15384670000005,102.6645053000002,,right,0.7332672000002276,103.93064930000035,wp8,99.15384670000005,102.6645053000002,103.93064930000035,,True,5.0,['r'],False,0.5,0.5,0.0,0.0,1.0,0.6309297535714574,0.0772781267414693,unsucc_cost,1.0,3.0,,,wp8,1,2023-04-18_11h23.46.740,threat_forest,2021.2.3,60.11074804224691,True,30.0,0.5833333333333333,0.5208333333333333,-1.25,-1.3194444444444444,1,0,1,-0.3102451141883356,0.0772781267414693,0.5,0.5,0.5,0.0,0.5,0.5,5.5,5.5,0.0,1.0,-1.0,5.0,0,1,0,1,0.0772781267414693,0.6900352312751002,0.21388661087421917,-0.07924124019636702,0.766549061043701,0.17895159805672134,-0.028165314753092474,0.6424035166470313,0.22972123844655867,-0.0829675042930198,0.6557463245473086,0.22574308239000437,-0.13853747900225866,0.5949838450072772,0.24097806918763356,-0.09368287399411565,0.6865213271939069,0.21520979450182354,-0.08940921546172048,0.6469506704721993,0.2284055004477711,-0.12402671223599238,0.6995723533746446,0.21017087576850596,-0.14668373166860804,0.6593305733634571,0.224613768391672,-0.15709183170609542,0.7999029685476085,0.16005820945633215,-0.08244698623547848,0.7796175947234569,0.1718140007210686,-0.08761085925272903
2.0,0.0,2.0,0.0,1.0,0.0,1.0,0.0,,,,right,0.6245350999997754,109.67526640000052,wp8,99.15384670000005,102.6645053000002,109.67526640000052,,True,3.0,['r'],False,0.5,0.5,0.0,0.0,1.0,0.6309297535714574,0.1098696443115568,succ_gain,1.0,4.0,106.71078080000008,,wp8,1,2023-04-18_11h23.46.740,threat_forest,2021.2.3,60.11074804224691,True,30.0,0.5833333333333333,0.5208333333333333,-1.25,-1.3194444444444444,1,0,1,-0.4707477460323329,0.1098696443115568,0.5,0.5,0.5,0.0,0.5,0.5,3.5,3.5,0.0,1.0,-1.0,3.0,0,1,0,1,0.1098696443115568,0.6900352312751002,0.21388661087421917,-0.07924124019636702,0.766549061043701,0.17895159805672134,-0.028165314753092474,0.6424035166470313,0.22972123844655867,-0.0829675042930198,0.6557463245473086,0.22574308239000437,-0.13853747900225866,0.5949838450072772,0.24097806918763356,-0.09368287399411565,0.6865213271939069,0.21520979450182354,-0.08940921546172048,0.6469506704721993,0.2284055004477711,-0.12402671223599238,0.6995723533746446,0.21017087576850596,-0.14668373166860804,0.6593305733634571,0.224613768391672,-0.15709183170609542,0.7999029685476085,0.16005820945633215,-0.08244698623547848,0.8089608869061596,0.15454317036215925,-0.0912589742984615
2.0,0.0,2.0,0.0,2.0,0.0,2.0,0.0,,,,left,1.05517189999955,116.0023798000002,wp8,116.0023798000002,,110.32434590000048,112.3388705999996,True,4.0,['r'],True,0.2222222222222222,0.6666666666666666,0.6666666666666666,2.0,1.0,0.77250688571426,-0.0770792252514861,figh_cost,0.0,1.0,112.3388705999996,,wp8,1,2023-04-18_11h23.46.740,threat_forest,2021.2.3,60.11074804224691,True,30.0,0.5833333333333333,0.5208333333333333,-1.25,-1.3194444444444444,0,0,1,0.0537036920432115,-0.0770792252514861,0.2222222222222222,0.2222222222222222,0.6666666666666666,0.6666666666666666,-1.0,-1.0,3.0,3.0,1.0,1.0,1.0,4.0,0,1,0,0,-0.0770792252514861,0.5731756694598882,0.2446453213990972,-0.1035411815988064,0.766549061043701,0.17895159805672134,-0.028165314753092474,0.6424035166470313,0.22972123844655867,-0.0829675042930198,0.6724993489078845,0.22024397462635592,-0.026159575331002216,0.8076969991161453,0.1553225567349188,-0.05541673194494362,0.7525342020042557,0.18622647681807372,-0.13250748397420364,0.7041727171152787,0.2083135015857643,0.013605001667126304,0.6311884818301254,0.23278958223510685,-0.03045603521959328,0.6686077481725458,0.2215714272561834,-0.007179841095949158,0.5900372733437085,0.24189328940883034,-0.0869031798688001,0.601502180405988,0.23969730737283024,-0.07327187802229784
2.0,0.0,2.0,0.0,3.0,0.0,3.0,0.0,,,,right,0.8934574000004432,122.66282620000038,wp8,117.0848108,119.09917419999964,122.66282620000038,,True,1.0,['r'],False,0.5,0.5,0.0,0.0,1.0,0.6309297535714574,0.1083140432098765,unsucc_cost,1.0,0.0,119.09917419999964,,wp8,1,2023-04-18_11h23.46.740,threat_forest,2021.2.3,60.11074804224691,True,30.0,0.5833333333333333,0.5208333333333333,-1.25,-1.3194444444444444,1,0,1,-0.1126566231908507,0.1083140432098765,1.0,0.5,0.5,0.0,0.5,0.5,1.5,1.5,0.0,1.0,-1.0,1.0,1,1,0,1,0.625,0.6900352312751002,0.21388661087421917,-0.07924124019636702,0.766549061043701,0.17895159805672134,-0.028165314753092474,0.8421037645080328,0.13296501430943242,-0.0949451232215897,0.6557463245473086,0.22574308239000437,-0.13853747900225866,0.5949838450072772,0.24097806918763356,-0.09368287399411565,0.6865213271939069,0.21520979450182354,-0.08940921546172048,0.6469506704721993,0.2284055004477711,-0.12402671223599238,0.6995723533746446,0.21017087576850596,-0.14668373166860804,0.6593305733634571,0.224613768391672,-0.15709183170609542,0.9617463377295031,0.036790319593391754,-0.0757346376153137,0.8076308500837555,0.15536326007674595,-0.09108574686443191
3.0,0.0,3.0,0.0,0.0,0.0,0.0,0.0,126.33744260000005,129.83013130000018,,right,0.7677797000005739,132.6537140999999,wp8,126.33744260000005,129.83013130000018,132.6537140999999,,True,5.0,['r'],False,0.4285714285714285,0.4285714285714285,0.0,0.0,2.0,0.6216097450797565,0.0526055132283747,unsucc_cost,1.0,3.0,,,wp8,1,2023-04-18_11h23.46.740,threat_forest,2021.2.3,60.11074804224691,True,52.0,0.4365079365079364,0.5099206349206349,-0.5626102292768962,-0.906305114638448,1,0,1,-0.2642524359410824,0.0526055132283747,0.4285714285714285,0.4285714285714285,0.4285714285714285,0.0,0.714285714285714,0.714285714285714,5.7142857142857135,5.7142857142857135,0.0,2.0,-1.0,5.0,0,1,0,1,0.0526055132283747,0.6900352312751002,0.21388661087421917,-0.07924124019636702,0.766549061043701,0.17895159805672134,-0.028165314753092474,0.6424035166470313,0.22972123844655867,-0.0829675042930198,0.6557463245473086,0.22574308239000437,-0.13853747900225866,0.5949838450072772,0.24097806918763356,-0.09368287399411565,0.6554809001286754,0.22582568969517686,-0.07362335179573848,0.6383691733859118,0.23085397185649942,-0.14079892682452155,0.6826716187012329,0.21663107972107135,-0.11348755287269774,0.6593305733634571,0.224613768391672,-0.15709183170609542,0.754544570150317,0.18520706180699034,-0.08381642530482868,0.7553404717117358,0.18480124350602822,-0.08486756580233909
3.0,0.0,3.0,0.0,1.0,0.0,1.0,0.0,,,,left,0.6677495000003546,139.16766910000024,wp8,139.16766910000024,,133.4529736000004,135.46730370000023,True,3.0,['r'],True,0.345679012345679,0.4444444444444444,0.2222222222222222,2.0,2.0,0.9685033186841367,0.0688188688757238,unsucc_cost,0.0,1.0,135.46730370000023,,wp8,1,2023-04-18_11h23.46.740,threat_forest,2021.2.3,60.11074804224691,True,52.0,0.4365079365079364,0.5099206349206349,-0.5626102292768962,-0.906305114638448,1,0,1,-0.4038421757750433,0.0688188688757238,0.345679012345679,0.345679012345679,0.4444444444444444,0.2222222222222222,0.111111111111111,0.1604938271604937,3.1604938271604937,3.1604938271604937,1.0,2.0,-1.0,3.0,0,1,0,1,0.0688188688757238,0.6900352312751002,0.21388661087421917,-0.07924124019636702,0.766549061043701,0.17895159805672134,-0.028165314753092474,0.6424035166470313,0.22972123844655867,-0.0829675042930198,0.6724993489078845,0.22024397462635592,-0.026159575331002216,0.6758525535515426,0.21907587940940185,-0.0838981878572554,0.6625063086357286,0.22359169965358935,-0.0769453007774637,0.6622821192863917,0.22366451375991736,-0.0915505943582906,0.6624390722347882,0.22361354781150125,-0.07760768578667432,0.6593305733634571,0.224613768391672,-0.15709183170609542,0.6938434818284801,0.21242470455261173,-0.08529851692601928,0.7714933784311918,0.17629134546801767,-0.08666511035723079
3.0,0.0,3.0,0.0,2.0,0.0,2.0,0.0,,,,left,0.770154800000455,143.01048530000023,wp8,143.01048530000023,,133.4529736000004,135.46730370000023,True,1.0,['r'],True,0.345679012345679,0.4444444444444444,0.2222222222222222,2.0,2.0,0.9685033186841367,0.1728580921228106,unsucc_cost,0.0,0.0,141.8779671000002,,wp8,1,2023-04-18_11h23.46.740,threat_forest,2021.2.3,60.11074804224691,True,52.0,0.4365079365079364,0.5099206349206349,-0.5626102292768962,-0.906305114638448,1,0,1,-0.2611637453784016,0.1728580921228106,1.0,0.345679012345679,0.4444444444444444,0.2222222222222222,0.111111111111111,0.1604938271604937,1.1604938271604937,1.1604938271604937,1.0,2.0,-1.0,1.0,1,1,0,1,0.625,0.6900352312751002,0.21388661087421917,-0.07924124019636702,0.766549061043701,0.17895159805672134,-0.028165314753092474,0.8421037645080328,0.13296501430943242,-0.0949451232215897,0.6724993489078845,0.22024397462635592,-0.026159575331002216,0.6758525535515426,0.21907587940940185,-0.0838981878572554,0.6625063086357286,0.22359169965358935,-0.0769453007774637,0.6622821192863917,0.22366451375991736,-0.0915505943582906,0.6624390722347882,0.22361354781150125,-0.07760768578667432,0.6593305733634571,0.224613768391672,-0.15709183170609542,0.9617463377295031,0.036790319593391754,-0.0757346376153137,0.857028919593055,0.12253035057421587,-0.09802103767918786
4.0,0.0,4.0,0.0,0.0,0.0,0.0,0.0,146.8499068000001,150.35336350000034,,right,0.6197333000000071,153.33559570000034,wp8,146.8499068000001,150.35336350000034,153.33559570000034,,True,4.0,['r'],False,0.3061224489795918,0.4285714285714285,0.2857142857142857,2.0,1.0,0.9885754083994552,0.0089248953748402,figh_cost,1.0,1.0,,,wp8,1,2023-04-18_11h23.46.740,threat_forest,2021.2.3,60.11074804224691,True,36.0,0.4142857142857142,0.4253968253968253,-1.083673469387755,-0.8231418493323256,0,0,1,-0.4784660547792194,0.0089248953748402,0.3061224489795918,0.3061224489795918,0.4285714285714285,0.2857142857142857,-0.5714285714285716,-0.3673469387755101,3.63265306122449,3.63265306122449,0.0,1.0,-1.0,4.0,0,1,0,0,0.0089248953748402,0.6900352312751002,0.21388661087421917,-0.07924124019636702,0.766549061043701,0.17895159805672134,-0.028165314753092474,0.6424035166470313,0.22972123844655867,-0.0829675042930198,0.6557463245473086,0.22574308239000437,-0.13853747900225866,0.6973741343259565,0.21104345109907924,-0.0803097434720528,0.6554809001286754,0.22582568969517686,-0.07362335179573848,0.6883698359130692,0.2145168049180833,-0.028888095975957873,0.6525643524878905,0.22672411834995068,-0.061623816467710535,0.6686077481725458,0.2215714272561834,-0.007179841095949158,0.6621018476412147,0.22372299099130444,-0.08591374638659745,0.7081220326981484,0.20668521950559077,-0.08024501665760336
4.0,0.0,4.0,0.0,1.0,0.0,1.0,0.0,,,,right,0.5758598000002166,158.4627448000001,wp8,146.8499068000001,150.35336350000034,158.4627448000001,,True,1.0,['r'],False,0.3061224489795918,0.4285714285714285,0.2857142857142857,2.0,1.0,0.9885754083994552,0.0293165938133219,figh_cost,1.0,0.0,155.99832179999976,,wp8,1,2023-04-18_11h23.46.740,threat_forest,2021.2.3,60.11074804224691,True,36.0,0.4142857142857142,0.4253968253968253,-1.083673469387755,-0.8231418493323256,0,0,1,-0.5518910506909112,0.0293165938133219,1.0,0.3061224489795918,0.4285714285714285,0.2857142857142857,-0.5714285714285716,-0.3673469387755101,0.6326530612244898,1.0,0.0,1.0,-1.0,1.0,1,1,0,0,0.625,0.6900352312751002,0.21388661087421917,-0.07924124019636702,0.766549061043701,0.17895159805672134,-0.028165314753092474,0.8421037645080328,0.13296501430943242,-0.0949451232215897,0.6557463245473086,0.22574308239000437,-0.13853747900225866,0.6973741343259565,0.21104345109907924,-0.0803097434720528,0.6554809001286754,0.22582568969517686,-0.07362335179573848,0.6883698359130692,0.2145168049180833,-0.028888095975957873,0.6525643524878905,0.22672411834995068,-0.061623816467710535,0.6686077481725458,0.2215714272561834,-0.007179841095949158,0.9617463377295031,0.036790319593391754,-0.0757346376153137,0.7308221299063676,0.19672114434548799,-0.08234972683962588
5.0,0.0,5.0,0.0,0.0,0.0,0.0,0.0,164.4176453,167.9201463999998,,left,1.4205933000002915,171.31781669999964,wp8,171.31781669999964,,164.4176453,167.9201463999998,True,5.0,['p'],True,0.32,0.4,0.2,1.0,1.0,0.9455672104350704,0.029786704162101,unsucc_cost,0.0,3.0,,,wp8,1,2023-04-18_11h23.46.740,threat_forest,2021.2.3,60.11074804224691,True,48.0,0.3111111111111111,0.3626984126984127,-1.3792592592592592,-1.231466364323507,0,0,1,0.3510746012536067,0.029786704162101,0.32,0.32,0.4,0.2,-0.3999999999999999,-0.24,4.76,4.76,1.0,1.0,-1.0,5.0,0,1,0,0,0.029786704162101,0.6900352312751002,0.21388661087421917,-0.07924124019636702,0.766549061043701,0.17895159805672134,-0.028165314753092474,0.6424035166470313,0.22972123844655867,-0.0829675042930198,0.6724993489078845,0.22024397462635592,-0.026159575331002216,0.6681344542614897,0.22173080529019107,-0.0850842617942993,0.6426639036728171,0.2296470105888331,-0.06794103772306426,0.6819209125261958,0.21690478158563614,-0.04524591700577285,0.6560441771591431,0.225650214774726,-0.06714213993775653,0.6686077481725458,0.2215714272561834,-0.007179841095949158,0.6734238120630021,0.21992418140953648,-0.08570688850752772,0.7313321128768115,0.1964854535519501,-0.08239951177249696
5.0,0.0,5.0,0.0,1.0,0.0,1.0,0.0,,,,left,1.1489150999996127,176.29761700000017,wp8,172.76611169999978,174.78044580000005,176.29761700000017,,False,3.0,['p'],False,0.1975308641975308,0.2222222222222222,0.1111111111111111,1.0,1.0,0.7461067557824965,0.0102042008928614,wait_cost,1.0,2.0,174.78044580000005,,wp8,1,2023-04-18_11h23.46.740,threat_forest,2021.2.3,60.11074804224691,False,48.0,0.3111111111111111,0.3626984126984127,-1.3792592592592592,-1.231466364323507,0,0,0,0.1388181057968303,0.0102042008928614,0.1975308641975308,0.1975308641975308,0.2222222222222222,0.1111111111111111,-0.6666666666666667,-0.5185185185185184,2.481481481481482,2.481481481481482,0.0,1.0,-1.0,3.0,0,1,0,0,0.0102042008928614,0.6900352312751002,0.21388661087421917,-0.07924124019636702,0.766549061043701,0.17895159805672134,-0.028165314753092474,0.6424035166470313,0.22972123844655867,-0.0829675042930198,0.6557463245473086,0.22574308239000437,-0.13853747900225866,0.6363812420689922,0.231400156811719,-0.08940399286882209,0.5589230508520925,0.24652807407828173,-0.042838852563204244,0.6919214689644582,0.21316614975052456,-0.019636005784238186,0.6247938260892298,0.2344265009700111,-0.022044621679517817,0.6686077481725458,0.2215714272561834,-0.007179841095949158,0.56790615115731,0.2453887546350006,-0.08709351963379329,0.7095788642814929,0.20607669964647954,-0.08037355422108569
5.0,0.0,5.0,0.0,2.0,0.0,2.0,0.0,,,,left,1.0589800999996442,180.6918787000004,wp8,180.6918787000004,,177.47828589999972,179.4932202,True,2.0,['p'],True,0.32,0.4,0.2,1.0,1.0,0.9455672104350704,0.0231674818752166,succ_gain,0.0,3.0,179.4932202,,wp8,1,2023-04-18_11h23.46.740,threat_forest,2021.2.3,60.11074804224691,True,48.0,0.3111111111111111,0.3626984126984127,-1.3792592592592592,-1.231466364323507,0,0,1,0.0573062751298154,0.0231674818752166,0.32,0.32,0.4,0.2,-0.3999999999999999,-0.24,1.76,1.76,1.0,1.0,-1.0,2.0,0,1,0,0,0.0231674818752166,0.6900352312751002,0.21388661087421917,-0.07924124019636702,0.766549061043701,0.17895159805672134,-0.028165314753092474,0.6424035166470313,0.22972123844655867,-0.0829675042930198,0.6724993489078845,0.22024397462635592,-0.026159575331002216,0.6681344542614897,0.22173080529019107,-0.0850842617942993,0.6426639036728171,0.2296470105888331,-0.06794103772306426,0.6819209125261958,0.21690478158563614,-0.04524591700577285,0.6560441771591431,0.225650214774726,-0.06714213993775653,0.6686077481725458,0.2215714272561834,-0.007179841095949158,0.6734238120630021,0.21992418140953648,-0.08570688850752772,0.724095444566221,0.19978123172466783,-0.08170334501679227
5.0,0.0,5.0,0.0,3.0,0.0,3.0,0.0,,,,left,0.8086108000006789,186.6030926000003,wp8,186.6030926000003,,177.47828589999972,179.4932202,True,3.0,['p'],True,0.32,0.4,0.2,1.0,1.0,0.9455672104350704,0.0712389763770579,unsucc_cost,0.0,1.0,183.7886502000001,,wp8,1,2023-04-18_11h23.46.740,threat_forest,2021.2.3,60.11074804224691,True,48.0,0.3111111111111111,0.3626984126984127,-1.3792592592592592,-1.231466364323507,0,0,1,-0.212437565445322,0.0712389763770579,0.32,0.32,0.4,0.2,-0.3999999999999999,-0.24,2.76,2.76,1.0,1.0,1.0,3.0,0,1,0,0,0.0712389763770579,0.5731756694598882,0.2446453213990972,-0.1035411815988064,0.766549061043701,0.17895159805672134,-0.028165314753092474,0.6424035166470313,0.22972123844655867,-0.0829675042930198,0.6724993489078845,0.22024397462635592,-0.026159575331002216,0.6681344542614897,0.22173080529019107,-0.0850842617942993,0.6426639036728171,0.2296470105888331,-0.06794103772306426,0.6819209125261958,0.21690478158563614,-0.04524591700577285,0.6560441771591431,0.225650214774726,-0.06714213993775653,0.6686077481725458,0.2215714272561834,-0.007179841095949158,0.6734238120630021,0.21992418140953648,-0.08570688850752772,0.7738389710323352,0.17501221794395186,-0.08693530028261255
5.0,0.0,5.0,0.0,4.0,0.0,4.0,0.0,,,,left,0.7678598000002239,190.39947680000023,wp8,190.39947680000023,,177.47828589999972,179.4932202,True,1.0,['p'],True,0.32,0.4,0.2,1.0,1.0,0.9455672104350704,0.0926024691358025,unsucc_cost,0.0,0.0,189.4503107999999,,wp8,1,2023-04-18_11h23.46.740,threat_forest,2021.2.3,60.11074804224691,True,48.0,0.3111111111111111,0.3626984126984127,-1.3792592592592592,-1.231466364323507,0,0,1,-0.2641481145821663,0.0926024691358025,1.0,0.32,0.4,0.2,-0.3999999999999999,-0.24,0.76,1.0,1.0,1.0,-1.0,1.0,1,1,0,0,0.625,0.6900352312751002,0.21388661087421917,-0.07924124019636702,0.766549061043701,0.17895159805672134,-0.028165314753092474,0.8421037645080328,0.13296501430943242,-0.0949451232215897,0.6724993489078845,0.22024397462635592,-0.026159575331002216,0.6681344542614897,0.22173080529019107,-0.0850842617942993,0.6426639036728171,0.2296470105888331,-0.06794103772306426,0.6819209125261958,0.21690478158563614,-0.04524591700577285,0.6560441771591431,0.225650214774726,-0.06714213993775653,0.6686077481725458,0.2215714272561834,-0.007179841095949158,0.9617463377295031,0.036790319593391754,-0.0757346376153137,0.7938017674846515,0.16368052142289485,-0.08932889293062424
6.0,0.0,6.0,0.0,0.0,0.0,0.0,0.0,194.60436279999976,198.1086611000001,,left,1.0784803999995347,201.84029259999988,wp8,201.84029259999988,,194.60436279999976,198.1086611000001,True,4.0,['r'],True,0.3061224489795918,0.4285714285714285,0.2857142857142857,2.0,2.0,0.9885754083994552,-0.0033191472701769,succ_gain,0.0,6.0,,,wp8,1,2023-04-18_11h23.46.740,threat_forest,2021.2.3,60.11074804224691,True,33.0,0.4142857142857142,0.3626984126984127,-0.7306122448979593,-1.0549357520786091,0,0,1,0.0755530132925384,-0.0033191472701769,0.3061224489795918,0.3061224489795918,0.4285714285714285,0.2857142857142857,-0.1428571428571432,-0.0612244897959186,3.938775510204081,3.938775510204081,1.0,2.0,-1.0,4.0,0,1,0,0,-0.0033191472701769,0.6900352312751002,0.21388661087421917,-0.07924124019636702,0.766549061043701,0.17895159805672134,-0.028165314753092474,0.6424035166470313,0.22972123844655867,-0.0829675042930198,0.6724993489078845,0.22024397462635592,-0.026159575331002216,0.6973741343259565,0.21104345109907924,-0.0803097434720528,0.6554809001286754,0.22582568969517686,-0.07362335179573848,0.6721158512529419,0.22037613374747514,-0.06902494222255395,0.6525643524878905,0.22672411834995068,-0.061623816467710535,0.6686077481725458,0.2215714272561834,-0.007179841095949158,0.6621018476412147,0.22372299099130444,-0.08591374638659745,0.6939646944893589,0.2123776972916496,-0.07904259538269887
6.0,0.0,6.0,0.0,1.0,0.0,1.0,0.0,,,,left,1.396777099999781,207.90014690000044,wp8,207.90014690000044,,194.60436279999976,198.1086611000001,True,6.0,['r'],True,0.3061224489795918,0.4285714285714285,0.2857142857142857,2.0,2.0,0.9885754083994552,-0.1118857253410899,unsucc_cost,0.0,4.0,204.9522327000004,,wp8,1,2023-04-18_11h23.46.740,threat_forest,2021.2.3,60.11074804224691,True,33.0,0.4142857142857142,0.3626984126984127,-0.7306122448979593,-1.0549357520786091,0,0,1,0.334167511352385,-0.1118857253410899,0.3061224489795918,0.3061224489795918,0.4285714285714285,0.2857142857142857,-0.1428571428571432,-0.0612244897959186,5.938775510204081,5.938775510204081,1.0,2.0,1.0,6.0,0,1,0,0,-0.1118857253410899,0.5731756694598882,0.2446453213990972,-0.1035411815988064,0.766549061043701,0.17895159805672134,-0.028165314753092474,0.6424035166470313,0.22972123844655867,-0.0829675042930198,0.6724993489078845,0.22024397462635592,-0.026159575331002216,0.6973741343259565,0.21104345109907924,-0.0803097434720528,0.6554809001286754,0.22582568969517686,-0.07362335179573848,0.6721158512529419,0.22037613374747514,-0.06902494222255395,0.6525643524878905,0.22672411834995068,-0.061623816467710535,0.6686077481725458,0.2215714272561834,-0.007179841095949158,0.6621018476412147,0.22372299099130444,-0.08591374638659745,0.5546985246395802,0.24700807140225323,-0.0717276263738657
6.0,0.0,6.0,0.0,2.0,0.0,2.0,0.0,,,,right,0.7114637999993647,212.59548670000004,wp8,209.3153768000002,211.3295919000002,212.59548670000004,,True,4.0,['r'],False,0.4,0.4,0.0,0.0,2.0,0.6126016192893442,0.0798721815028828,succ_gain,1.0,6.0,211.3295919000002,,wp8,1,2023-04-18_11h23.46.740,threat_forest,2021.2.3,60.11074804224691,True,33.0,0.4142857142857142,0.3626984126984127,-0.7306122448979593,-1.0549357520786091,1,1,1,-0.3404307411733347,0.0798721815028828,0.4,0.4,0.4,0.0,0.6000000000000001,0.6000000000000001,4.6,4.6,0.0,2.0,-1.0,4.0,0,1,1,1,0.0798721815028828,0.6900352312751002,0.21388661087421917,-0.07924124019636702,0.766549061043701,0.17895159805672134,-0.028165314753092474,0.6424035166470313,0.22972123844655867,-0.0829675042930198,0.6557463245473086,0.22574308239000437,-0.13853747900225866,0.5949838450072772,0.24097806918763356,-0.09368287399411565,0.6426639036728171,0.2296470105888331,-0.06794103772306426,0.6429573650710154,0.2295631917719524,-0.13195698548616352,0.6757706536626025,0.21910467731102146,-0.10077681053885712,0.6593305733634571,0.224613768391672,-0.15709183170609542,0.7345678945879239,0.19497790282858862,-0.08434848025703154,0.7820669998341533,0.17043820760455983,-0.08790146783748429
6.0,0.0,6.0,0.0,3.0,0.0,3.0,0.0,,,,left,0.7241720000001806,215.9793669000001,wp8,215.9793669000001,,213.3281282999997,215.3426244000002,True,6.0,['r'],True,0.3061224489795918,0.4285714285714285,0.2857142857142857,2.0,2.0,0.9885754083994552,-0.2999903101598824,figh_cost,0.0,3.0,215.3426244000002,,wp8,1,2023-04-18_11h23.46.740,threat_forest,2021.2.3,60.11074804224691,True,33.0,0.4142857142857142,0.3626984126984127,-0.7306122448979593,-1.0549357520786091,0,0,1,-0.3227263457504586,-0.2999903101598824,0.0,0.3061224489795918,0.4285714285714285,0.2857142857142857,-0.1428571428571432,-0.0612244897959186,5.938775510204081,5.938775510204081,1.0,2.0,1.0,6.0,0,0,0,0,-0.84,0.5731756694598882,0.2446453213990972,-0.1035411815988064,0.22388084511006917,0.1737582123028704,-0.32451045828175396,0.6424035166470313,0.22972123844655867,-0.0829675042930198,0.6724993489078845,0.22024397462635592,-0.026159575331002216,0.6973741343259565,0.21104345109907924,-0.0803097434720528,0.6554809001286754,0.22582568969517686,-0.07362335179573848,0.6721158512529419,0.22037613374747514,-0.06902494222255395,0.6525643524878905,0.22672411834995068,-0.061623816467710535,0.6686077481725458,0.2215714272561834,-0.007179841095949158,0.3886155598398551,0.23759350649021108,-0.08666904231705899,0.3061356879751226,0.21241662852312096,-0.07903437194420009
6.0,0.0,6.0,0.0,4.0,0.0,4.0,0.0,,,,right,0.5570081000005302,222.13658020000003,wp8,216.72505499999988,218.73942139999963,222.13658020000003,,True,3.0,['r'],False,0.4,0.4,0.0,0.0,2.0,0.6126016192893442,0.2353061224489796,succ_gain,1.0,5.0,218.73942139999963,,wp8,1,2023-04-18_11h23.46.740,threat_forest,2021.2.3,60.11074804224691,True,33.0,0.4142857142857142,0.3626984126984127,-0.7306122448979593,-1.0549357520786091,1,1,1,-0.5851754969693325,0.2353061224489796,0.4,0.4,0.4,0.0,0.6000000000000001,0.6000000000000001,3.6,3.6,0.0,2.0,-1.0,3.0,0,1,1,1,0.2353061224489796,0.6900352312751002,0.21388661087421917,-0.07924124019636702,0.766549061043701,0.17895159805672134,-0.028165314753092474,0.6424035166470313,0.22972123844655867,-0.0829675042930198,0.6557463245473086,0.22574308239000437,-0.13853747900225866,0.5949838450072772,0.24097806918763356,-0.09368287399411565,0.6426639036728171,0.2296470105888331,-0.06794103772306426,0.6429573650710154,0.2295631917719524,-0.13195698548616352,0.6757706536626025,0.21910467731102146,-0.10077681053885712,0.6593305733634571,0.224613768391672,-0.15709183170609542,0.7345678945879239,0.19497790282858862,-0.08434848025703154,0.8942969647000313,0.09452990362834222,-0.10393556811389743
6.0,0.0,6.0,0.0,5.0,0.0,5.0,0.0,,,,right,0.4739775999996709,226.98271939999995,wp8,216.72505499999988,218.73942139999963,226.98271939999995,,True,5.0,['r'],False,0.4,0.4,0.0,0.0,2.0,0.6126016192893442,0.0,unsucc_cost,1.0,3.0,224.73389510000013,,wp8,1,2023-04-18_11h23.46.740,threat_forest,2021.2.3,60.11074804224691,True,33.0,0.4142857142857142,0.3626984126984127,-0.7306122448979593,-1.0549357520786091,1,1,1,-0.7465952157883865,0.0,0.0,0.4,0.4,0.0,0.6000000000000001,0.6000000000000001,5.6,5.6,0.0,2.0,1.0,5.0,0,0,1,1,-0.84,0.5731756694598882,0.2446453213990972,-0.1035411815988064,0.22388084511006917,0.1737582123028704,-0.32451045828175396,0.6424035166470313,0.22972123844655867,-0.0829675042930198,0.6557463245473086,0.22574308239000437,-0.13853747900225866,0.5949838450072772,0.24097806918763356,-0.09368287399411565,0.6426639036728171,0.2296470105888331,-0.06794103772306426,0.6429573650710154,0.2295631917719524,-0.13195698548616352,0.6757706536626025,0.21910467731102146,-0.10077681053885712,0.6593305733634571,0.224613768391672,-0.15709183170609542,0.3886155598398551,0.23759350649021108,-0.08666904231705899,0.6978403781787482,0.21085918476208987,-0.07936335056881894
6.0,0.0,6.0,0.0,6.0,0.0,6.0,0.0,,,,right,0.6908038000001397,230.3621665000001,wp8,216.72505499999988,218.73942139999963,230.3621665000001,,True,3.0,['r'],False,0.4,0.4,0.0,0.0,2.0,0.6126016192893442,-0.3881632653061224,unsucc_cost,1.0,1.0,229.49599089999992,,wp8,1,2023-04-18_11h23.46.740,threat_forest,2021.2.3,60.11074804224691,True,33.0,0.4142857142857142,0.3626984126984127,-0.7306122448979593,-1.0549357520786091,1,1,1,-0.3698994318559827,-0.3881632653061224,0.0,0.4,0.4,0.0,0.6000000000000001,0.6000000000000001,3.6,3.6,0.0,2.0,-1.0,3.0,0,0,1,1,-0.84,0.6900352312751002,0.21388661087421917,-0.07924124019636702,0.22388084511006917,0.1737582123028704,-0.32451045828175396,0.6424035166470313,0.22972123844655867,-0.0829675042930198,0.6557463245473086,0.22574308239000437,-0.13853747900225866,0.5949838450072772,0.24097806918763356,-0.09368287399411565,0.6426639036728171,0.2296470105888331,-0.06794103772306426,0.6429573650710154,0.2295631917719524,-0.13195698548616352,0.6757706536626025,0.21910467731102146,-0.10077681053885712,0.6593305733634571,0.224613768391672,-0.15709183170609542,0.3886155598398551,0.23759350649021108,-0.08666904231705899,0.21336371781403102,0.16783964173460555,-0.08845036253742075
6.0,0.0,6.0,0.0,7.0,0.0,7.0,0.0,,,,right,0.6857631000002584,236.55636119999963,wp8,216.72505499999988,218.73942139999963,236.55636119999963,,True,1.0,['r'],False,0.4,0.4,0.0,0.0,2.0,0.6126016192893442,0.4,unsucc_cost,1.0,0.0,233.0926916999997,,wp8,1,2023-04-18_11h23.46.740,threat_forest,2021.2.3,60.11074804224691,True,33.0,0.4142857142857142,0.3626984126984127,-0.7306122448979593,-1.0549357520786091,1,1,1,-0.377223046174801,0.4,1.0,0.4,0.4,0.0,0.6000000000000001,0.6000000000000001,1.6,1.6,0.0,2.0,-1.0,1.0,1,1,1,1,0.625,0.6900352312751002,0.21388661087421917,-0.07924124019636702,0.766549061043701,0.17895159805672134,-0.028165314753092474,0.8421037645080328,0.13296501430943242,-0.0949451232215897,0.6557463245473086,0.22574308239000437,-0.13853747900225866,0.5949838450072772,0.24097806918763356,-0.09368287399411565,0.6426639036728171,0.2296470105888331,-0.06794103772306426,0.6429573650710154,0.2295631917719524,-0.13195698548616352,0.6757706536626025,0.21910467731102146,-0.10077681053885712,0.6593305733634571,0.224613768391672,-0.15709183170609542,0.9617463377295031,0.036790319593391754,-0.0757346376153137,0.9545293011639558,0.04340311438340591,-0.11473507255047642
7.0,0.0,7.0,0.0,0.0,0.0,0.0,0.0,242.8732022000004,246.38024330000007,,left,1.322246300000188,249.3615016000004,wp8,249.3615016000004,,242.8732022000004,246.38024330000007,True,4.0,['r'],True,0.5,0.5,0.0,0.0,2.0,0.6309297535714574,0.0723560159877321,unsucc_cost,0.0,2.0,,,wp8,1,2023-04-18_11h23.46.740,threat_forest,2021.2.3,60.11074804224691,True,58.0,0.5357142857142857,0.475,-0.326530612244898,-0.5285714285714287,1,1,1,0.2793320326996386,0.0723560159877321,0.5,0.5,0.5,0.0,1.0,1.0,5.0,5.0,1.0,2.0,-1.0,4.0,0,1,1,1,0.0723560159877321,0.6900352312751002,0.21388661087421917,-0.07924124019636702,0.766549061043701,0.17895159805672134,-0.028165314753092474,0.6424035166470313,0.22972123844655867,-0.0829675042930198,0.6724993489078845,0.22024397462635592,-0.026159575331002216,0.5949838450072772,0.24097806918763356,-0.09368287399411565,0.6865213271939069,0.21520979450182354,-0.08940921546172048,0.6267892412382258,0.23392448830623497,-0.16183219705548613,0.6995723533746446,0.21017087576850596,-0.14668373166860804,0.6593305733634571,0.224613768391672,-0.15709183170609542,0.7999029685476085,0.16005820945633215,-0.08244698623547848,0.774915853211535,0.1744212736529737,-0.08706012536133236
7.0,0.0,7.0,0.0,1.0,0.0,1.0,0.0,,,,right,0.9793055999998614,256.3378257000004,wp8,256.3378257000004,,242.8732022000004,246.38024330000007,False,2.0,['r'],True,0.5,0.5,0.0,0.0,2.0,0.6309297535714574,0.0536521501003592,wait_cost,0.0,1.0,252.72433079999973,,wp8,1,2023-04-18_11h23.46.740,threat_forest,2021.2.3,60.11074804224691,False,58.0,0.5357142857142857,0.475,-0.326530612244898,-0.5285714285714287,1,1,0,-0.020911529901615,0.0536521501003592,0.5,0.5,0.5,0.0,1.0,1.0,3.0,3.0,1.0,2.0,-1.0,2.0,0,1,1,1,0.0536521501003592,0.6900352312751002,0.21388661087421917,-0.07924124019636702,0.766549061043701,0.17895159805672134,-0.028165314753092474,0.6424035166470313,0.22972123844655867,-0.0829675042930198,0.6724993489078845,0.22024397462635592,-0.026159575331002216,0.5949838450072772,0.24097806918763356,-0.09368287399411565,0.6865213271939069,0.21520979450182354,-0.08940921546172048,0.6267892412382258,0.23392448830623497,-0.16183219705548613,0.6995723533746446,0.21017087576850596,-0.14668373166860804,0.6593305733634571,0.224613768391672,-0.15709183170609542,0.7999029685476085,0.16005820945633215,-0.08244698623547848,0.7564061467269289,0.18425588792064856,-0.08498276118524502
7.0,0.0,7.0,0.0,2.0,0.0,2.0,0.0,,,,right,0.8695417000008092,260.41780089999975,wp8,257.3368895000003,259.35149490000003,260.41780089999975,,True,1.0,['r'],False,0.4081632653061224,0.5714285714285714,0.2857142857142857,2.0,2.0,0.9885754083994552,0.2329331374998628,unsucc_cost,1.0,0.0,259.35149490000003,,wp8,1,2023-04-18_11h23.46.740,threat_forest,2021.2.3,60.11074804224691,True,58.0,0.5357142857142857,0.475,-0.326530612244898,-0.5285714285714287,0,0,1,-0.1397889877399507,0.2329331374998628,1.0,0.4081632653061224,0.5714285714285714,0.2857142857142857,0.4285714285714285,0.346938775510204,1.346938775510204,1.346938775510204,0.0,2.0,-1.0,1.0,1,1,0,0,0.625,0.6900352312751002,0.21388661087421917,-0.07924124019636702,0.766549061043701,0.17895159805672134,-0.028165314753092474,0.8421037645080328,0.13296501430943242,-0.0949451232215897,0.6557463245473086,0.22574308239000437,-0.13853747900225866,0.6973741343259565,0.21104345109907924,-0.0803097434720528,0.71597689207326,0.20335398209037542,-0.10703883924453217,0.6497905589822809,0.22756278843977584,-0.11825407115713737,0.677750337489987,0.21840481752219568,-0.10437308564913494,0.6686077481725458,0.2215714272561834,-0.007179841095949158,0.9617463377295031,0.036790319593391754,-0.0757346376153137,0.8930528198285486,0.09550948082482652,-0.10372865216170019
8.0,0.0,8.0,0.0,0.0,0.0,0.0,0.0,265.8714590999998,269.37542459999986,,left,0.5938475000002654,270.89258210000025,wp8,270.89258210000025,,265.8714590999998,269.37542459999986,True,5.0,['r'],True,0.4081632653061224,0.5714285714285714,0.2857142857142857,2.0,1.0,0.9885754083994552,-0.0004231906775603,succ_gain,0.0,6.0,,,wp8,1,2023-04-18_11h23.46.740,threat_forest,2021.2.3,60.11074804224691,True,44.0,0.5357142857142857,0.5357142857142857,-0.7806122448979592,-0.5535714285714286,0,0,1,-0.521132726587596,-0.0004231906775603,0.4081632653061224,0.4081632653061224,0.5714285714285714,0.2857142857142857,-0.1428571428571428,-0.0612244897959184,4.938775510204081,4.938775510204081,1.0,1.0,-1.0,5.0,0,1,0,0,-0.0004231906775603,0.6900352312751002,0.21388661087421917,-0.07924124019636702,0.766549061043701,0.17895159805672134,-0.028165314753092474,0.6424035166470313,0.22972123844655867,-0.0829675042930198,0.6724993489078845,0.22024397462635592,-0.026159575331002216,0.6973741343259565,0.21104345109907924,-0.0803097434720528,0.71597689207326,0.20335398209037542,-0.10703883924453217,0.6721158512529419,0.22037613374747514,-0.06902494222255395,0.677750337489987,0.21840481752219568,-0.10437308564913494,0.6686077481725458,0.2215714272561834,-0.007179841095949158,0.7403800779515809,0.19221741812399193,-0.08419816263807589,0.6973477785115395,0.2110538543165604,-0.07932223054645454
8.0,0.0,8.0,0.0,1.0,0.0,1.0,0.0,,,,right,1.1169018000000506,274.4541937000004,wp8,271.5071317000002,273.52150859999983,274.4541937000004,,True,6.0,['r'],False,0.5,0.5,0.0,0.0,1.0,0.6309297535714574,-0.0434388067740604,unsucc_cost,1.0,4.0,273.52150859999983,,wp8,1,2023-04-18_11h23.46.740,threat_forest,2021.2.3,60.11074804224691,True,44.0,0.5357142857142857,0.5357142857142857,-0.7806122448979592,-0.5535714285714286,1,0,1,0.110558602166936,-0.0434388067740604,0.5,0.5,0.5,0.0,0.5,0.5,6.5,6.5,0.0,1.0,1.0,6.0,0,1,0,1,-0.0434388067740604,0.5731756694598882,0.2446453213990972,-0.1035411815988064,0.766549061043701,0.17895159805672134,-0.028165314753092474,0.6424035166470313,0.22972123844655867,-0.0829675042930198,0.6557463245473086,0.22574308239000437,-0.13853747900225866,0.5949838450072772,0.24097806918763356,-0.09368287399411565,0.6865213271939069,0.21520979450182354,-0.08940921546172048,0.6469506704721993,0.2284055004477711,-0.12402671223599238,0.6995723533746446,0.21017087576850596,-0.14668373166860804,0.6593305733634571,0.224613768391672,-0.15709183170609542,0.7999029685476085,0.16005820945633215,-0.08244698623547848,0.6450495273372571,0.22896063461923832,-0.07553978388435031
8.0,0.0,8.0,0.0,2.0,0.0,2.0,0.0,,,,left,0.6149089000000458,281.20023670000046,wp8,281.20023670000046,,275.60351139999966,277.6177134,True,4.0,['r'],True,0.4081632653061224,0.5714285714285714,0.2857142857142857,2.0,1.0,0.9885754083994552,0.0111203127993457,succ_gain,0.0,5.0,277.6177134,,wp8,1,2023-04-18_11h23.46.740,threat_forest,2021.2.3,60.11074804224691,True,44.0,0.5357142857142857,0.5357142857142857,-0.7806122448979592,-0.5535714285714286,0,0,1,-0.4862811522291895,0.0111203127993457,0.4081632653061224,0.4081632653061224,0.5714285714285714,0.2857142857142857,-0.1428571428571428,-0.0612244897959184,3.938775510204081,3.938775510204081,1.0,1.0,-1.0,4.0,0,1,0,0,0.0111203127993457,0.6900352312751002,0.21388661087421917,-0.07924124019636702,0.766549061043701,0.17895159805672134,-0.028165314753092474,0.6424035166470313,0.22972123844655867,-0.0829675042930198,0.6724993489078845,0.22024397462635592,-0.026159575331002216,0.6973741343259565,0.21104345109907924,-0.0803097434720528,0.71597689207326,0.20335398209037542,-0.10703883924453217,0.6721158512529419,0.22037613374747514,-0.06902494222255395,0.677750337489987,0.21840481752219568,-0.10437308564913494,0.6686077481725458,0.2215714272561834,-0.007179841095949158,0.7403800779515809,0.19221741812399193,-0.08419816263807589,0.7106194591094928,0.20563944344442472,-0.08046591578659276
8.0,0.0,8.0,0.0,3.0,0.0,3.0,0.0,,,,right,1.20996710000054,287.39292750000004,wp8,281.8474938999998,283.8618069000004,287.39292750000004,,True,5.0,['r'],False,0.5,0.5,0.0,0.0,1.0,0.6309297535714574,0.0835247683256976,unsucc_cost,1.0,3.0,283.8618069000004,,wp8,1,2023-04-18_11h23.46.740,threat_forest,2021.2.3,60.11074804224691,True,44.0,0.5357142857142857,0.5357142857142857,-0.7806122448979592,-0.5535714285714286,1,0,1,0.1905931691567944,0.0835247683256976,0.5,0.5,0.5,0.0,0.5,0.5,5.5,5.5,0.0,1.0,1.0,5.0,0,1,0,1,0.0835247683256976,0.5731756694598882,0.2446453213990972,-0.1035411815988064,0.766549061043701,0.17895159805672134,-0.028165314753092474,0.6424035166470313,0.22972123844655867,-0.0829675042930198,0.6557463245473086,0.22574308239000437,-0.13853747900225866,0.5949838450072772,0.24097806918763356,-0.09368287399411565,0.6865213271939069,0.21520979450182354,-0.08940921546172048,0.6469506704721993,0.2284055004477711,-0.12402671223599238,0.6995723533746446,0.21017087576850596,-0.14668373166860804,0.6593305733634571,0.224613768391672,-0.15709183170609542,0.7999029685476085,0.16005820945633215,-0.08244698623547848,0.7854825133315918,0.16849973458187753,-0.08831093121896819
8.0,0.0,8.0,0.0,4.0,0.0,4.0,0.0,,,,right,1.2758905000000595,292.4398239000002,wp8,292.4398239000002,,288.62442889999966,290.63892620000024,False,3.0,['r'],True,0.4081632653061224,0.5714285714285714,0.2857142857142857,2.0,1.0,0.9885754083994552,-0.0025666920245815,wait_cost,0.0,2.0,290.63892620000024,,wp8,1,2023-04-18_11h23.46.740,threat_forest,2021.2.3,60.11074804224691,False,44.0,0.5357142857142857,0.5357142857142857,-0.7806122448979592,-0.5535714285714286,0,0,0,0.243644366193301,-0.0025666920245815,0.4081632653061224,0.4081632653061224,0.5714285714285714,0.2857142857142857,-0.1428571428571428,-0.0612244897959184,2.9387755102040813,2.9387755102040813,1.0,1.0,-1.0,3.0,0,1,0,0,-0.0025666920245815,0.6900352312751002,0.21388661087421917,-0.07924124019636702,0.766549061043701,0.17895159805672134,-0.028165314753092474,0.6424035166470313,0.22972123844655867,-0.0829675042930198,0.6724993489078845,0.22024397462635592,-0.026159575331002216,0.6973741343259565,0.21104345109907924,-0.0803097434720528,0.71597689207326,0.20335398209037542,-0.10703883924453217,0.6721158512529419,0.22037613374747514,-0.06902494222255395,0.677750337489987,0.21840481752219568,-0.10437308564913494,0.6686077481725458,0.2215714272561834,-0.007179841095949158,0.7403800779515809,0.19221741812399193,-0.08419816263807589,0.6948457522301231,0.2120351328378775,-0.07911495522365432
8.0,0.0,8.0,0.0,5.0,0.0,5.0,0.0,,,,right,0.741327600000659,298.01555970000027,wp8,298.01555970000027,,288.62442889999966,290.63892620000024,False,2.0,['r'],True,0.4081632653061224,0.5714285714285714,0.2857142857142857,2.0,1.0,0.9885754083994552,-0.0459183673469387,wait_cost,0.0,1.0,295.75073989999964,,wp8,1,2023-04-18_11h23.46.740,threat_forest,2021.2.3,60.11074804224691,False,44.0,0.5357142857142857,0.5357142857142857,-0.7806122448979592,-0.5535714285714286,0,0,0,-0.2993126461217405,-0.0459183673469387,0.4081632653061224,0.4081632653061224,0.5714285714285714,0.2857142857142857,-0.1428571428571428,-0.0612244897959184,1.9387755102040816,1.9387755102040816,1.0,1.0,-1.0,2.0,0,1,0,0,-0.0459183673469387,0.6900352312751002,0.21388661087421917,-0.07924124019636702,0.766549061043701,0.17895159805672134,-0.028165314753092474,0.6424035166470313,0.22972123844655867,-0.0829675042930198,0.6724993489078845,0.22024397462635592,-0.026159575331002216,0.6973741343259565,0.21104345109907924,-0.0803097434720528,0.71597689207326,0.20335398209037542,-0.10703883924453217,0.6721158512529419,0.22037613374747514,-0.06902494222255395,0.677750337489987,0.21840481752219568,-0.10437308564913494,0.6686077481725458,0.2215714272561834,-0.007179841095949158,0.7403800779515809,0.19221741812399193,-0.08419816263807589,0.6419107789992359,0.2298613308038301,-0.07534952995710079
8.0,0.0,8.0,0.0,6.0,0.0,6.0,0.0,,,,right,1.0131596000001082,302.71126939999976,wp8,302.71126939999976,,288.62442889999966,290.63892620000024,False,1.0,['r'],True,0.4081632653061224,0.5714285714285714,0.2857142857142857,2.0,1.0,0.9885754083994552,0.4081632653061224,wait_cost,0.0,0.0,300.7961653000002,,wp8,1,2023-04-18_11h23.46.740,threat_forest,2021.2.3,60.11074804224691,False,44.0,0.5357142857142857,0.5357142857142857,-0.7806122448979592,-0.5535714285714286,0,0,0,0.0130737646829262,0.4081632653061224,1.0,0.4081632653061224,0.5714285714285714,0.2857142857142857,-0.1428571428571428,-0.0612244897959184,0.9387755102040816,1.0,1.0,1.0,-1.0,1.0,1,1,0,0,0.625,0.6900352312751002,0.21388661087421917,-0.07924124019636702,0.766549061043701,0.17895159805672134,-0.028165314753092474,0.8421037645080328,0.13296501430943242,-0.0949451232215897,0.6724993489078845,0.22024397462635592,-0.026159575331002216,0.6973741343259565,0.21104345109907924,-0.0803097434720528,0.71597689207326,0.20335398209037542,-0.10703883924453217,0.6721158512529419,0.22037613374747514,-0.06902494222255395,0.677750337489987,0.21840481752219568,-0.10437308564913494,0.6686077481725458,0.2215714272561834,-0.007179841095949158,0.9617463377295031,0.036790319593391754,-0.0757346376153137,0.956444774763627,0.04165816759098192,-0.11510365741380703
9.0,0.0,9.0,0.0,0.0,0.0,0.0,0.0,309.1159276999997,312.6157205999998,,left,1.3299976999996943,315.7353914000005,wp8,309.1159276999997,312.6157205999998,315.7353914000005,,False,4.0,['p'],False,0.16,0.2,0.2,2.0,1.0,0.8198746470064713,-0.0034169425027313,wait_cost,1.0,3.0,,,wp8,1,2023-04-18_11h23.46.740,threat_forest,2021.2.3,60.11074804224691,False,3.0,0.35,0.4428571428571428,-1.4225000000000003,-1.1015561224489798,0,0,0,0.285177212908629,-0.0034169425027313,0.16,0.16,0.2,0.2,-1.0,-0.7200000000000004,3.28,3.28,0.0,1.0,-1.0,4.0,0,1,0,0,-0.0034169425027313,0.6900352312751002,0.21388661087421917,-0.07924124019636702,0.766549061043701,0.17895159805672134,-0.028165314753092474,0.6424035166470313,0.22972123844655867,-0.0829675042930198,0.6557463245473086,0.22574308239000437,-0.13853747900225866,0.6681344542614897,0.22173080529019107,-0.0850842617942993,0.5481065747695872,0.2476857574639381,-0.041117374368337956,0.7041727171152787,0.2083135015857643,0.013605001667126304,0.6149906535338497,0.2367771495998581,-0.009965660585452785,0.6686077481725458,0.2215714272561834,-0.007179841095949158,0.5337705344850738,0.24885955100059243,-0.08728251609687347,0.6938500806510142,0.21242214623159528,-0.0790332064394221
9.0,0.0,9.0,0.0,1.0,0.0,1.0,0.0,,,,left,1.0564610999999786,321.46026379999967,wp8,321.46026379999967,,317.0979576,319.1122178000005,True,3.0,['p'],True,0.375,0.5,0.25,1.0,1.0,0.9850568223215076,0.0398144030189514,figh_cost,0.0,0.0,319.1122178000005,,wp8,1,2023-04-18_11h23.46.740,threat_forest,2021.2.3,60.11074804224691,True,3.0,0.35,0.4428571428571428,-1.4225000000000003,-1.1015561224489798,0,0,1,0.0549247377084448,0.0398144030189514,0.375,0.375,0.5,0.25,-0.25,-0.125,2.875,2.875,1.0,1.0,-1.0,3.0,0,1,0,0,0.0398144030189514,0.6900352312751002,0.21388661087421917,-0.07924124019636702,0.766549061043701,0.17895159805672134,-0.028165314753092474,0.6424035166470313,0.22972123844655867,-0.0829675042930198,0.6724993489078845,0.22024397462635592,-0.026159575331002216,0.685367000917987,0.21563907497067103,-0.08236281385642505,0.6865213271939069,0.21520979450182354,-0.08940921546172048,0.6762201917675986,0.21894644401339083,-0.059231459264330155,0.6696688524342952,0.2212124805136294,-0.08994572649040711,0.6686077481725458,0.2215714272561834,-0.007179841095949158,0.7162594450347927,0.20323185243324343,-0.08479793540144358,0.7420636944383625,0.191405167834851,-0.08347261980355399
10.0,0.0,10.0,0.0,0.0,0.0,0.0,0.0,325.73351189999994,329.2257183000001,,right,0.5828578000000562,332.7665206000001,wp8,332.7665206000001,,325.73351189999994,329.2257183000001,False,5.0,['p'],True,0.4166666666666667,0.5,0.1666666666666666,1.0,2.0,0.9358932809493992,0.0277169847623575,wait_cost,0.0,4.0,,,wp8,1,2023-04-18_11h23.46.740,threat_forest,2021.2.3,60.11074804224691,False,22.0,0.4166666666666666,0.3833333333333333,-0.7129629629629629,-1.0677314814814816,1,1,0,-0.5398120331888018,0.0277169847623575,0.4166666666666667,0.4166666666666667,0.5,0.1666666666666666,0.5000000000000002,0.5000000000000002,5.5,5.5,1.0,2.0,-1.0,5.0,0,1,1,1,0.0277169847623575,0.6900352312751002,0.21388661087421917,-0.07924124019636702,0.766549061043701,0.17895159805672134,-0.028165314753092474,0.6424035166470313,0.22972123844655867,-0.0829675042930198,0.6724993489078845,0.22024397462635592,-0.026159575331002216,0.6563869157537868,0.225543132581018,-0.08678739862077327,0.6865213271939069,0.21520979450182354,-0.08940921546172048,0.6469506704721993,0.2284055004477711,-0.12402671223599238,0.6798057456984773,0.21766989381381452,-0.10814953899393775,0.6593305733634571,0.224613768391672,-0.15709183170609542,0.7463458657603645,0.1893137144227765,-0.08404004626605158,0.7290822760062778,0.1975213108197835,-0.08218070778881562
10.0,0.0,10.0,0.0,1.0,0.0,1.0,0.0,,,,right,1.0749417999995785,338.2643202,wp8,333.3659440000001,335.38023200000043,338.2643202,,True,4.0,['p'],False,0.2962962962962963,0.3333333333333333,0.1111111111111111,1.0,2.0,0.8325252476189534,0.0174761721107346,succ_gain,1.0,6.0,335.38023200000043,,wp8,1,2023-04-18_11h23.46.740,threat_forest,2021.2.3,60.11074804224691,True,22.0,0.4166666666666666,0.3833333333333333,-0.7129629629629629,-1.0677314814814816,1,0,1,0.0722665205787527,0.0174761721107346,0.2962962962962963,0.2962962962962963,0.3333333333333333,0.1111111111111111,-2.220446049250313e-16,0.0740740740740739,4.074074074074074,4.074074074074074,0.0,2.0,-1.0,4.0,0,1,0,1,0.0174761721107346,0.6900352312751002,0.21388661087421917,-0.07924124019636702,0.766549061043701,0.17895159805672134,-0.028165314753092474,0.6424035166470313,0.22972123844655867,-0.0829675042930198,0.6557463245473086,0.22574308239000437,-0.13853747900225866,0.6363812420689922,0.231400156811719,-0.08940399286882209,0.6119788468769173,0.23746073785211586,-0.05632200503154183,0.6666022824796219,0.22224367947258025,-0.08181777188096584,0.650090505683425,0.22747284010369373,-0.05777646096807931,0.6593305733634571,0.224613768391672,-0.15709183170609542,0.6539703949599964,0.22629311747586273,-0.0860536983642086,0.7177776851836919,0.20257287983603275,-0.0811136655824038
10.0,0.0,10.0,0.0,2.0,0.0,2.0,0.0,,,,left,0.4996781999998347,344.4554943000003,wp8,333.3659440000001,335.38023200000043,344.4554943000003,,False,6.0,['p'],False,0.2962962962962963,0.3333333333333333,0.1111111111111111,1.0,2.0,0.8325252476189534,0.0083709863502963,wait_cost,1.0,5.0,341.37464439999985,,wp8,1,2023-04-18_11h23.46.740,threat_forest,2021.2.3,60.11074804224691,False,22.0,0.4166666666666666,0.3833333333333333,-0.7129629629629629,-1.0677314814814816,1,0,0,-0.6937909877596632,0.0083709863502963,0.2962962962962963,0.2962962962962963,0.3333333333333333,0.1111111111111111,-2.220446049250313e-16,0.0740740740740739,6.074074074074074,6.074074074074074,0.0,2.0,1.0,6.0,0,1,0,1,0.0083709863502963,0.5731756694598882,0.2446453213990972,-0.1035411815988064,0.766549061043701,0.17895159805672134,-0.028165314753092474,0.6424035166470313,0.22972123844655867,-0.0829675042930198,0.6557463245473086,0.22574308239000437,-0.13853747900225866,0.6363812420689922,0.231400156811719,-0.08940399286882209,0.6119788468769173,0.23746073785211586,-0.05632200503154183,0.6666022824796219,0.22224367947258025,-0.08181777188096584,0.650090505683425,0.22747284010369373,-0.05777646096807931,0.6593305733634571,0.224613768391672,-0.15709183170609542,0.6539703949599964,0.22629311747586273,-0.0860536983642086,0.7074899281995531,0.20694792969574433,-0.0801895244214196
10.0,0.0,10.0,0.0,3.0,0.0,3.0,0.0,,,,right,1.0729077999994845,348.5851511999999,wp8,348.5851511999999,,344.97171270000035,346.9860705000001,False,5.0,['p'],True,0.4166666666666667,0.5,0.1666666666666666,1.0,2.0,0.9358932809493992,0.1035147319387288,wait_cost,0.0,4.0,346.9860705000001,,wp8,1,2023-04-18_11h23.46.740,threat_forest,2021.2.3,60.11074804224691,False,22.0,0.4166666666666666,0.3833333333333333,-0.7129629629629629,-1.0677314814814816,1,1,0,0.0703725326495014,0.1035147319387288,0.4166666666666667,0.4166666666666667,0.5,0.1666666666666666,0.5000000000000002,0.5000000000000002,5.5,5.5,1.0,2.0,-1.0,5.0,0,1,1,1,0.1035147319387288,0.6900352312751002,0.21388661087421917,-0.07924124019636702,0.766549061043701,0.17895159805672134,-0.028165314753092474,0.6424035166470313,0.22972123844655867,-0.0829675042930198,0.6724993489078845,0.22024397462635592,-0.026159575331002216,0.6563869157537868,0.225543132581018,-0.08678739862077327,0.6865213271939069,0.21520979450182354,-0.08940921546172048,0.6469506704721993,0.2284055004477711,-0.12402671223599238,0.6798057456984773,0.21766989381381452,-0.10814953899393775,0.6593305733634571,0.224613768391672,-0.15709183170609542,0.7463458657603645,0.1893137144227765,-0.08404004626605158,0.8034830370988624,0.1578980461932505,-0.09055032435276536
10.0,0.0,10.0,0.0,4.0,0.0,4.0,0.0,,,,left,1.1368287000004784,354.72051459999966,wp8,349.6840570000004,351.6986318,354.72051459999966,,False,4.0,['p'],False,0.2962962962962963,0.3333333333333333,0.1111111111111111,1.0,2.0,0.8325252476189534,0.0286136831275719,wait_cost,1.0,3.0,351.6986318,,wp8,1,2023-04-18_11h23.46.740,threat_forest,2021.2.3,60.11074804224691,False,22.0,0.4166666666666666,0.3833333333333333,-0.7129629629629629,-1.0677314814814816,1,0,0,0.1282425437879107,0.0286136831275719,0.2962962962962963,0.2962962962962963,0.3333333333333333,0.1111111111111111,-2.220446049250313e-16,0.0740740740740739,4.074074074074074,4.074074074074074,0.0,2.0,-1.0,4.0,0,1,0,1,0.0286136831275719,0.6900352312751002,0.21388661087421917,-0.07924124019636702,0.766549061043701,0.17895159805672134,-0.028165314753092474,0.6424035166470313,0.22972123844655867,-0.0829675042930198,0.6557463245473086,0.22574308239000437,-0.13853747900225866,0.6363812420689922,0.231400156811719,-0.08940399286882209,0.6119788468769173,0.23746073785211586,-0.05632200503154183,0.6666022824796219,0.22224367947258025,-0.08181777188096584,0.650090505683425,0.22747284010369373,-0.05777646096807931,0.6593305733634571,0.224613768391672,-0.15709183170609542,0.6539703949599964,0.22629311747586273,-0.0860536983642086,0.7300584618313427,0.19707310413979665,-0.08227538242222224
10.0,0.0,10.0,0.0,5.0,0.0,5.0,0.0,,,,left,0.8747930999998061,361.4063028000001,wp8,349.6840570000004,351.6986318,361.4063028000001,,False,3.0,['p'],False,0.2962962962962963,0.3333333333333333,0.1111111111111111,1.0,2.0,0.8325252476189534,0.1209705075445815,wait_cost,1.0,2.0,357.8926585999998,,wp8,1,2023-04-18_11h23.46.740,threat_forest,2021.2.3,60.11074804224691,False,22.0,0.4166666666666666,0.3833333333333333,-0.7129629629629629,-1.0677314814814816,1,0,0,-0.1337678777279992,0.1209705075445815,0.2962962962962963,0.2962962962962963,0.3333333333333333,0.1111111111111111,-2.220446049250313e-16,0.0740740740740739,3.074074074074074,3.074074074074074,0.0,2.0,-1.0,3.0,0,1,0,1,0.1209705075445815,0.6900352312751002,0.21388661087421917,-0.07924124019636702,0.766549061043701,0.17895159805672134,-0.028165314753092474,0.6424035166470313,0.22972123844655867,-0.0829675042930198,0.6557463245473086,0.22574308239000437,-0.13853747900225866,0.6363812420689922,0.231400156811719,-0.08940399286882209,0.6119788468769173,0.23746073785211586,-0.05632200503154183,0.6666022824796219,0.22224367947258025,-0.08181777188096584,0.650090505683425,0.22747284010369373,-0.05777646096807931,0.6593305733634571,0.224613768391672,-0.15709183170609542,0.6539703949599964,0.22629311747586273,-0.0860536983642086,0.8182483335896634,0.14871799816740225,-0.09248942459448405
10.0,0.0,10.0,0.0,6.0,0.0,6.0,0.0,,,,left,0.8872575000004872,365.9373383000002,wp8,365.9373383000002,,362.3055080000004,364.3199172000004,True,2.0,['p'],True,0.4166666666666667,0.5,0.1666666666666666,1.0,2.0,0.9358932809493992,0.0601851851851852,unsucc_cost,0.0,0.0,364.3199172000004,,wp8,1,2023-04-18_11h23.46.740,threat_forest,2021.2.3,60.11074804224691,True,22.0,0.4166666666666666,0.3833333333333333,-0.7129629629629629,-1.0677314814814816,1,1,1,-0.119620034405333,0.0601851851851852,0.4166666666666667,0.4166666666666667,0.5,0.1666666666666666,0.5000000000000002,0.5000000000000002,2.5,2.5,1.0,2.0,-1.0,2.0,0,1,1,1,0.0601851851851852,0.6900352312751002,0.21388661087421917,-0.07924124019636702,0.766549061043701,0.17895159805672134,-0.028165314753092474,0.6424035166470313,0.22972123844655867,-0.0829675042930198,0.6724993489078845,0.22024397462635592,-0.026159575331002216,0.6563869157537868,0.225543132581018,-0.08678739862077327,0.6865213271939069,0.21520979450182354,-0.08940921546172048,0.6469506704721993,0.2284055004477711,-0.12402671223599238,0.6798057456984773,0.21766989381381452,-0.10814953899393775,0.6593305733634571,0.224613768391672,-0.15709183170609542,0.7463458657603645,0.1893137144227765,-0.08404004626605158,0.7629866496152958,0.18083802212412162,-0.08570471649240094
11.0,0.0,11.0,0.0,0.0,0.0,0.0,0.0,371.4390155000001,374.9433441000001,,right,1.078090599999996,376.7289652999998,wp8,371.4390155000001,374.9433441000001,376.7289652999998,,True,5.0,['p'],False,0.16,0.2,0.2,2.0,2.0,0.8198746470064713,-0.013191945967,unsucc_cost,1.0,3.0,,,wp8,1,2023-04-18_11h23.46.740,threat_forest,2021.2.3,60.11074804224691,True,8.0,0.35,0.3833333333333333,-1.5300000000000002,-1.1214814814814815,0,0,1,0.0751915134821599,-0.013191945967,0.16,0.16,0.2,0.2,-0.8000000000000003,-0.5600000000000003,4.44,4.44,0.0,2.0,-1.0,5.0,0,1,0,0,-0.013191945967,0.6900352312751002,0.21388661087421917,-0.07924124019636702,0.766549061043701,0.17895159805672134,-0.028165314753092474,0.6424035166470313,0.22972123844655867,-0.0829675042930198,0.6557463245473086,0.22574308239000437,-0.13853747900225866,0.6681344542614897,0.22173080529019107,-0.0850842617942993,0.5481065747695872,0.2476857574639381,-0.041117374368337956,0.6968557781223275,0.21124780261985296,-0.006495182650173348,0.6149906535338497,0.2367771495998581,-0.009965660585452785,0.6686077481725458,0.2215714272561834,-0.007179841095949158,0.5337705344850738,0.24885955100059243,-0.08728251609687347,0.6822745727785741,0.21677598011838833,-0.07811354672538663
11.0,0.0,11.0,0.0,1.0,0.0,1.0,0.0,,,,left,0.600717700000132,382.2038714999999,wp8,382.2038714999999,,377.8243895000005,379.8386615,True,3.0,['p'],True,0.25,0.5,0.5,1.0,2.0,0.9463946303571862,0.0267718626953125,succ_gain,0.0,5.0,379.8386615,,wp8,1,2023-04-18_11h23.46.740,threat_forest,2021.2.3,60.11074804224691,True,8.0,0.35,0.3833333333333333,-1.5300000000000002,-1.1214814814814815,0,0,1,-0.5096301719364652,0.0267718626953125,0.25,0.25,0.5,0.5,-0.5,-0.5,2.5,2.5,1.0,2.0,-1.0,3.0,0,1,0,0,0.0267718626953125,0.6900352312751002,0.21388661087421917,-0.07924124019636702,0.766549061043701,0.17895159805672134,-0.028165314753092474,0.6424035166470313,0.22972123844655867,-0.0829675042930198,0.6724993489078845,0.22024397462635592,-0.026159575331002216,0.7635944157974612,0.18051798396039512,-0.06667265429707353,0.6865213271939069,0.21520979450182354,-0.08940921546172048,0.6856914663161675,0.2155186793373516,-0.035751011626442564,0.6383276796327821,0.23086545304741032,-0.04034329837880635,0.6686077481725458,0.2215714272561834,-0.007179841095949158,0.6145020337115756,0.23688928427591321,-0.08663069506366082,0.7280509759548346,0.19799275236604746,-0.08208112525790262
11.0,0.0,11.0,0.0,2.0,0.0,2.0,0.0,,,,left,0.6942167999995945,386.3996323000001,wp8,386.3996323000001,,377.8243895000005,379.8386615,True,5.0,['p'],True,0.25,0.5,0.5,1.0,2.0,0.9463946303571862,0.02289929765625,figh_cost,0.0,2.0,384.8341128000002,,wp8,1,2023-04-18_11h23.46.740,threat_forest,2021.2.3,60.11074804224691,True,8.0,0.35,0.3833333333333333,-1.5300000000000002,-1.1214814814814815,0,0,1,-0.3649709753292805,0.02289929765625,0.25,0.25,0.5,0.5,-0.5,-0.5,4.5,4.5,1.0,2.0,1.0,5.0,0,1,0,0,0.02289929765625,0.5731756694598882,0.2446453213990972,-0.1035411815988064,0.766549061043701,0.17895159805672134,-0.028165314753092474,0.6424035166470313,0.22972123844655867,-0.0829675042930198,0.6724993489078845,0.22024397462635592,-0.026159575331002216,0.7635944157974612,0.18051798396039512,-0.06667265429707353,0.6865213271939069,0.21520979450182354,-0.08940921546172048,0.6856914663161675,0.2155186793373516,-0.035751011626442564,0.6383276796327821,0.23086545304741032,-0.04034329837880635,0.6686077481725458,0.2215714272561834,-0.007179841095949158,0.6145020337115756,0.23688928427591321,-0.08663069506366082,0.7237997135435217,0.19991368821783767,-0.08167536625053748
11.0,0.0,11.0,0.0,3.0,0.0,3.0,0.0,,,,left,0.5101925999997547,390.379183,wp8,390.379183,,377.8243895000005,379.8386615,True,2.0,['p'],True,0.25,0.5,0.5,1.0,2.0,0.9463946303571862,0.0337707499999999,figh_cost,0.0,0.0,389.1300062999999,,wp8,1,2023-04-18_11h23.46.740,threat_forest,2021.2.3,60.11074804224691,True,8.0,0.35,0.3833333333333333,-1.5300000000000002,-1.1214814814814815,0,0,1,-0.6729669774961253,0.0337707499999999,0.25,0.25,0.5,0.5,-0.5,-0.5,1.5,1.5,1.0,2.0,-1.0,2.0,0,1,0,0,0.0337707499999999,0.6900352312751002,0.21388661087421917,-0.07924124019636702,0.766549061043701,0.17895159805672134,-0.028165314753092474,0.6424035166470313,0.22972123844655867,-0.0829675042930198,0.6724993489078845,0.22024397462635592,-0.026159575331002216,0.7635944157974612,0.18051798396039512,-0.06667265429707353,0.6865213271939069,0.21520979450182354,-0.08940921546172048,0.6856914663161675,0.2155186793373516,-0.035751011626442564,0.6383276796327821,0.23086545304741032,-0.04034329837880635,0.6686077481725458,0.2215714272561834,-0.007179841095949158,0.6145020337115756,0.23688928427591321,-0.08663069506366082,0.7356294495756209,0.19447876249268992,-0.08282338484016609
12.0,0.0,12.0,0.0,0.0,0.0,0.0,0.0,394.6832274999997,398.1882822999996,,right,0.7168516000001546,401.3193282000002,wp8,394.6832274999997,398.1882822999996,401.3193282000002,,True,5.0,['p'],False,0.4444444444444445,0.6666666666666666,0.3333333333333333,1.0,1.0,0.9656336071428248,0.0498748920388152,succ_gain,1.0,6.0,,,wp8,1,2023-04-18_11h23.46.740,threat_forest,2021.2.3,60.11074804224691,True,56.0,0.4444444444444444,0.3972222222222222,-1.1666666666666667,-1.3483333333333336,1,1,1,-0.3328864333049693,0.0498748920388152,0.4444444444444445,0.4444444444444445,0.6666666666666666,0.3333333333333333,0.0,0.0,5.0,5.0,0.0,1.0,-1.0,5.0,0,1,1,1,0.0498748920388152,0.6900352312751002,0.21388661087421917,-0.07924124019636702,0.766549061043701,0.17895159805672134,-0.028165314753092474,0.6424035166470313,0.22972123844655867,-0.0829675042930198,0.6557463245473086,0.22574308239000437,-0.13853747900225866,0.7129717210911912,0.2046430460154559,-0.07745039673430049,0.7525342020042557,0.18622647681807372,-0.13250748397420364,0.6666022824796219,0.22224367947258025,-0.08181777188096584,0.6864713141150519,0.21522844901220556,-0.1206950621306142,0.6593305733634571,0.224613768391672,-0.15709183170609542,0.7651948188961365,0.1796717080306453,-0.08351500679004689,0.7525453729302629,0.18622083461151448,-0.08456770577458769
12.0,0.0,12.0,0.0,1.0,0.0,1.0,0.0,,,,right,0.7342498000007254,407.4465068,wp8,394.6832274999997,398.1882822999996,407.4465068,,True,6.0,['p'],False,0.4444444444444445,0.6666666666666666,0.3333333333333333,1.0,1.0,0.9656336071428248,-0.1157947213331301,succ_gain,1.0,6.0,404.08270640000046,,wp8,1,2023-04-18_11h23.46.740,threat_forest,2021.2.3,60.11074804224691,True,56.0,0.4444444444444444,0.3972222222222222,-1.1666666666666667,-1.3483333333333336,1,1,1,-0.308905981289246,-0.1157947213331301,0.4444444444444445,0.4444444444444445,0.6666666666666666,0.3333333333333333,0.0,0.0,6.0,6.0,0.0,1.0,1.0,6.0,0,1,1,1,-0.1157947213331301,0.5731756694598882,0.2446453213990972,-0.1035411815988064,0.766549061043701,0.17895159805672134,-0.028165314753092474,0.6424035166470313,0.22972123844655867,-0.0829675042930198,0.6557463245473086,0.22574308239000437,-0.13853747900225866,0.7129717210911912,0.2046430460154559,-0.07745039673430049,0.7525342020042557,0.18622647681807372,-0.13250748397420364,0.6666022824796219,0.22224367947258025,-0.08181777188096584,0.6864713141150519,0.21522844901220556,-0.1206950621306142,0.6593305733634571,0.224613768391672,-0.15709183170609542,0.7651948188961365,0.1796717080306453,-0.08351500679004689,0.5493647186884505,0.2475631245488101,-0.07161038257648854
12.0,0.0,12.0,0.0,2.0,0.0,2.0,0.0,,,,right,1.4398192999997264,411.7983369000003,wp8,411.7983369000003,,408.2126509,410.2269452000001,False,6.0,['p'],True,0.2222222222222222,0.2222222222222222,0.0,0.0,1.0,0.4821593609696809,0.0165180612711477,wait_cost,0.0,5.0,410.2269452000001,,wp8,1,2023-04-18_11h23.46.740,threat_forest,2021.2.3,60.11074804224691,False,56.0,0.4444444444444444,0.3972222222222222,-1.1666666666666667,-1.3483333333333336,1,0,0,0.3645176196025673,0.0165180612711477,0.2222222222222222,0.2222222222222222,0.2222222222222222,0.0,-0.3333333333333335,-0.3333333333333335,5.666666666666666,5.666666666666666,1.0,1.0,-1.0,6.0,0,1,0,1,0.0165180612711477,0.6900352312751002,0.21388661087421917,-0.07924124019636702,0.766549061043701,0.17895159805672134,-0.028165314753092474,0.6424035166470313,0.22972123844655867,-0.0829675042930198,0.6724993489078845,0.22024397462635592,-0.026159575331002216,0.5949838450072772,0.24097806918763356,-0.09368287399411565,0.5589230508520925,0.24652807407828173,-0.042838852563204244,0.6793938551999533,0.2178178447164982,-0.051500468604415595,0.6311884818301254,0.23278958223510685,-0.03045603521959328,0.6593305733634571,0.224613768391672,-0.15709183170609542,0.5900372733437085,0.24189328940883034,-0.0869031798688001,0.7167055208430292,0.20303871723615144,-0.08101526681448576
12.0,0.0,12.0,0.0,3.0,0.0,3.0,0.0,,,,right,0.8684887999997954,418.5199341999996,wp8,418.5199341999996,,408.2126509,410.2269452000001,False,5.0,['p'],True,0.2222222222222222,0.2222222222222222,0.0,0.0,1.0,0.4821593609696809,0.0081161408321901,wait_cost,0.0,4.0,415.2722360999997,,wp8,1,2023-04-18_11h23.46.740,threat_forest,2021.2.3,60.11074804224691,False,56.0,0.4444444444444444,0.3972222222222222,-1.1666666666666667,-1.3483333333333336,1,0,0,-0.1410005891817162,0.0081161408321901,0.2222222222222222,0.2222222222222222,0.2222222222222222,0.0,-0.3333333333333335,-0.3333333333333335,4.666666666666666,4.666666666666666,1.0,1.0,-1.0,5.0,0,1,0,1,0.0081161408321901,0.6900352312751002,0.21388661087421917,-0.07924124019636702,0.766549061043701,0.17895159805672134,-0.028165314753092474,0.6424035166470313,0.22972123844655867,-0.0829675042930198,0.6724993489078845,0.22024397462635592,-0.026159575331002216,0.5949838450072772,0.24097806918763356,-0.09368287399411565,0.5589230508520925,0.24652807407828173,-0.042838852563204244,0.6793938551999533,0.2178178447164982,-0.051500468604415595,0.6311884818301254,0.23278958223510685,-0.03045603521959328,0.6593305733634571,0.224613768391672,-0.15709183170609542,0.5900372733437085,0.24189328940883034,-0.0869031798688001,0.7071988365382231,0.20706864213720674,-0.08016402634954033
12.0,0.0,12.0,0.0,4.0,0.0,4.0,0.0,,,,right,1.159489499999836,422.3492323,wp8,419.41868710000017,421.43313690000014,422.3492323,,True,4.0,['p'],False,0.4444444444444445,0.6666666666666666,0.3333333333333333,1.0,1.0,0.9656336071428248,0.074074074074074,unsucc_cost,1.0,2.0,421.43313690000014,,wp8,1,2023-04-18_11h23.46.740,threat_forest,2021.2.3,60.11074804224691,True,56.0,0.4444444444444444,0.3972222222222222,-1.1666666666666667,-1.3483333333333336,1,1,1,0.1479798220448797,0.074074074074074,0.4444444444444445,0.4444444444444445,0.6666666666666666,0.3333333333333333,0.0,0.0,4.0,4.0,0.0,1.0,-1.0,4.0,0,1,1,1,0.074074074074074,0.6900352312751002,0.21388661087421917,-0.07924124019636702,0.766549061043701,0.17895159805672134,-0.028165314753092474,0.6424035166470313,0.22972123844655867,-0.0829675042930198,0.6557463245473086,0.22574308239000437,-0.13853747900225866,0.7129717210911912,0.2046430460154559,-0.07745039673430049,0.7525342020042557,0.18622647681807372,-0.13250748397420364,0.6666022824796219,0.22224367947258025,-0.08181777188096584,0.6864713141150519,0.21522844901220556,-0.1206950621306142,0.6593305733634571,0.224613768391672,-0.15709183170609542,0.7651948188961365,0.1796717080306453,-0.08351500679004689,0.7765650356354676,0.17351178106395257,-0.08725223735184116
12.0,0.0,12.0,0.0,5.0,0.0,5.0,0.0,,,,right,0.697569800000565,426.5452874000002,wp8,419.41868710000017,421.43313690000014,426.5452874000002,,True,2.0,['p'],False,0.4444444444444445,0.6666666666666666,0.3333333333333333,1.0,1.0,0.9656336071428248,0.1111111111111111,succ_gain,1.0,3.0,425.5460398000005,,wp8,1,2023-04-18_11h23.46.740,threat_forest,2021.2.3,60.11074804224691,True,56.0,0.4444444444444444,0.3972222222222222,-1.1666666666666667,-1.3483333333333336,1,1,1,-0.3601526986080556,0.1111111111111111,0.4444444444444445,0.4444444444444445,0.6666666666666666,0.3333333333333333,0.0,0.0,2.0,2.0,0.0,1.0,-1.0,2.0,0,1,1,1,0.1111111111111111,0.6900352312751002,0.21388661087421917,-0.07924124019636702,0.766549061043701,0.17895159805672134,-0.028165314753092474,0.6424035166470313,0.22972123844655867,-0.0829675042930198,0.6557463245473086,0.22574308239000437,-0.13853747900225866,0.7129717210911912,0.2046430460154559,-0.07745039673430049,0.7525342020042557,0.18622647681807372,-0.13250748397420364,0.6666022824796219,0.22224367947258025,-0.08181777188096584,0.6864713141150519,0.21522844901220556,-0.1206950621306142,0.6593305733634571,0.224613768391672,-0.15709183170609542,0.7651948188961365,0.1796717080306453,-0.08351500679004689,0.8100172909824076,0.15388927929192925,-0.0913970956164296
12.0,0.0,12.0,0.0,6.0,0.0,6.0,0.0,,,,right,0.8584663000001456,430.84289249999983,wp8,430.84289249999983,,427.2613634999998,429.27576409999983,False,3.0,['p'],True,0.2222222222222222,0.2222222222222222,0.0,0.0,1.0,0.4821593609696809,-0.5185185185185186,wait_cost,0.0,2.0,429.27576409999983,,wp8,1,2023-04-18_11h23.46.740,threat_forest,2021.2.3,60.11074804224691,False,56.0,0.4444444444444444,0.3972222222222222,-1.1666666666666667,-1.3483333333333336,1,0,0,-0.1526078539286025,-0.5185185185185186,0.0,0.2222222222222222,0.2222222222222222,0.0,-0.3333333333333335,-0.3333333333333335,2.6666666666666665,2.6666666666666665,1.0,1.0,1.0,3.0,0,0,0,1,-0.84,0.5731756694598882,0.2446453213990972,-0.1035411815988064,0.22388084511006917,0.1737582123028704,-0.32451045828175396,0.6424035166470313,0.22972123844655867,-0.0829675042930198,0.6724993489078845,0.22024397462635592,-0.026159575331002216,0.5949838450072772,0.24097806918763356,-0.09368287399411565,0.5589230508520925,0.24652807407828173,-0.042838852563204244,0.6793938551999533,0.2178178447164982,-0.051500468604415595,0.6311884818301254,0.23278958223510685,-0.03045603521959328,0.6593305733634571,0.224613768391672,-0.15709183170609542,0.3886155598398551,0.23759350649021108,-0.08666904231705899,0.11670185655852748,0.10308253323432039,-0.10212899737596817
12.0,0.0,12.0,0.0,7.0,0.0,7.0,0.0,,,,left,0.562488000000485,437.11874929999976,wp8,431.72387290000006,433.7383037,437.11874929999976,,False,2.0,['p'],False,0.4444444444444445,0.6666666666666666,0.3333333333333333,1.0,1.0,0.9656336071428248,-0.5555555555555556,wait_cost,1.0,1.0,433.7383037,,wp8,1,2023-04-18_11h23.46.740,threat_forest,2021.2.3,60.11074804224691,False,56.0,0.4444444444444444,0.3972222222222222,-1.1666666666666667,-1.3483333333333336,1,1,0,-0.5753854784635917,-0.5555555555555556,0.0,0.4444444444444445,0.6666666666666666,0.3333333333333333,0.0,0.0,2.0,2.0,0.0,1.0,-1.0,2.0,0,0,1,1,-0.84,0.6900352312751002,0.21388661087421917,-0.07924124019636702,0.22388084511006917,0.1737582123028704,-0.32451045828175396,0.6424035166470313,0.22972123844655867,-0.0829675042930198,0.6557463245473086,0.22574308239000437,-0.13853747900225866,0.7129717210911912,0.2046430460154559,-0.07745039673430049,0.7525342020042557,0.18622647681807372,-0.13250748397420364,0.6666022824796219,0.22224367947258025,-0.08181777188096584,0.6864713141150519,0.21522844901220556,-0.1206950621306142,0.6593305733634571,0.224613768391672,-0.15709183170609542,0.3886155598398551,0.23759350649021108,-0.08666904231705899,0.09722873976831185,0.08777531193137776,-0.10536233955947323
13.0,0.0,13.0,0.0,0.0,0.0,0.0,0.0,442.8241367999999,446.32646399999976,,left,0.7307902000002287,447.1596521000001,wp8,447.1596521000001,,442.8241367999999,446.32646399999976,True,5.0,['p'],True,0.4444444444444445,0.6666666666666666,0.3333333333333333,1.0,1.0,0.9656336071428248,0.0480533547078672,figh_cost,0.0,2.0,,,wp8,1,2023-04-18_11h23.46.740,threat_forest,2021.2.3,60.11074804224691,True,5.0,0.4444444444444444,0.4444444444444444,-1.259259259259259,-1.2129629629629628,1,1,1,-0.3136288645295726,0.0480533547078672,0.4444444444444445,0.4444444444444445,0.6666666666666666,0.3333333333333333,0.0,0.0,5.0,5.0,1.0,1.0,-1.0,5.0,0,1,1,1,0.0480533547078672,0.6900352312751002,0.21388661087421917,-0.07924124019636702,0.766549061043701,0.17895159805672134,-0.028165314753092474,0.6424035166470313,0.22972123844655867,-0.0829675042930198,0.6724993489078845,0.22024397462635592,-0.026159575331002216,0.7129717210911912,0.2046430460154559,-0.07745039673430049,0.7525342020042557,0.18622647681807372,-0.13250748397420364,0.6666022824796219,0.22224367947258025,-0.08181777188096584,0.6864713141150519,0.21522844901220556,-0.1206950621306142,0.6593305733634571,0.224613768391672,-0.15709183170609542,0.7651948188961365,0.1796717080306453,-0.08351500679004689,0.7506689468196098,0.18716507910034758,-0.08436825314521339
13.0,0.0,13.0,0.0,1.0,0.0,1.0,0.0,,,,right,0.5922872999999527,452.0908654000005,wp8,447.9086009000002,449.9231300000001,452.0908654000005,,True,2.0,['p'],False,0.1975308641975308,0.2222222222222222,0.1111111111111111,1.0,1.0,0.7461067557824965,-0.0127461107108468,unsucc_cost,1.0,0.0,449.9231300000001,,wp8,1,2023-04-18_11h23.46.740,threat_forest,2021.2.3,60.11074804224691,True,5.0,0.4444444444444444,0.4444444444444444,-1.259259259259259,-1.2129629629629628,0,0,1,-0.5237634577660839,-0.0127461107108468,0.1975308641975308,0.1975308641975308,0.2222222222222222,0.1111111111111111,-0.6666666666666667,-0.5185185185185184,1.4814814814814816,1.4814814814814816,0.0,1.0,-1.0,2.0,0,1,0,0,-0.0127461107108468,0.6900352312751002,0.21388661087421917,-0.07924124019636702,0.766549061043701,0.17895159805672134,-0.028165314753092474,0.6424035166470313,0.22972123844655867,-0.0829675042930198,0.6557463245473086,0.22574308239000437,-0.13853747900225866,0.6363812420689922,0.231400156811719,-0.08940399286882209,0.5589230508520925,0.24652807407828173,-0.042838852563204244,0.6919214689644582,0.21316614975052456,-0.019636005784238186,0.6247938260892298,0.2344265009700111,-0.022044621679517817,0.6686077481725458,0.2215714272561834,-0.007179841095949158,0.56790615115731,0.2453887546350006,-0.08709351963379329,0.6828076077123876,0.21658137856247378,-0.07815465238442569
14.0,0.0,14.0,0.0,0.0,0.0,0.0,0.0,457.4420387,460.9462113999998,,left,1.0765713000000687,464.6934572999999,wp8,457.4420387,460.9462113999998,464.6934572999999,,False,4.0,['p'],False,0.4444444444444445,0.6666666666666666,0.3333333333333333,1.0,1.0,0.9656336071428248,0.045641051707109,wait_cost,1.0,3.0,,,wp8,1,2023-04-18_11h23.46.740,threat_forest,2021.2.3,60.11074804224691,False,39.0,0.4333333333333333,0.4388888888888889,-1.2000000000000002,-1.2296296296296296,1,1,0,0.0737812687920537,0.045641051707109,0.4444444444444445,0.4444444444444445,0.6666666666666666,0.3333333333333333,0.0,0.0,4.0,4.0,0.0,1.0,-1.0,4.0,0,1,1,1,0.045641051707109,0.6900352312751002,0.21388661087421917,-0.07924124019636702,0.766549061043701,0.17895159805672134,-0.028165314753092474,0.6424035166470313,0.22972123844655867,-0.0829675042930198,0.6557463245473086,0.22574308239000437,-0.13853747900225866,0.7129717210911912,0.2046430460154559,-0.07745039673430049,0.7525342020042557,0.18622647681807372,-0.13250748397420364,0.6666022824796219,0.22224367947258025,-0.08181777188096584,0.6864713141150519,0.21522844901220556,-0.1206950621306142,0.6593305733634571,0.224613768391672,-0.15709183170609542,0.7651948188961365,0.1796717080306453,-0.08351500679004689,0.748169368604347,0.18841196448651973,-0.08410487372204327
14.0,0.0,14.0,0.0,1.0,0.0,1.0,0.0,,,,right,0.5046800000000076,469.7548655000001,wp8,457.4420387,460.9462113999998,469.7548655000001,,True,3.0,['p'],False,0.4444444444444445,0.6666666666666666,0.3333333333333333,1.0,1.0,0.9656336071428248,0.0524121025193765,succ_gain,1.0,4.0,467.80648500000007,,wp8,1,2023-04-18_11h23.46.740,threat_forest,2021.2.3,60.11074804224691,True,39.0,0.4333333333333333,0.4388888888888889,-1.2000000000000002,-1.2296296296296296,1,1,1,-0.6838307139225815,0.0524121025193765,0.4444444444444445,0.4444444444444445,0.6666666666666666,0.3333333333333333,0.0,0.0,3.0,3.0,0.0,1.0,-1.0,3.0,0,1,1,1,0.0524121025193765,0.6900352312751002,0.21388661087421917,-0.07924124019636702,0.766549061043701,0.17895159805672134,-0.028165314753092474,0.6424035166470313,0.22972123844655867,-0.0829675042930198,0.6557463245473086,0.22574308239000437,-0.13853747900225866,0.7129717210911912,0.2046430460154559,-0.07745039673430049,0.7525342020042557,0.18622647681807372,-0.13250748397420364,0.6666022824796219,0.22224367947258025,-0.08181777188096584,0.6864713141150519,0.21522844901220556,-0.1206950621306142,0.6593305733634571,0.224613768391672,-0.15709183170609542,0.7651948188961365,0.1796717080306453,-0.08351500679004689,0.7551431982144446,0.18490194840490468,-0.08484629392084089
14.0,0.0,14.0,0.0,2.0,0.0,2.0,0.0,,,,right,0.5801134000003003,472.9851885999997,wp8,457.4420387,460.9462113999998,472.9851885999997,,True,4.0,['p'],False,0.4444444444444445,0.6666666666666666,0.3333333333333333,1.0,1.0,0.9656336071428248,0.0693087435858353,figh_cost,1.0,1.0,472.30219229999966,,wp8,1,2023-04-18_11h23.46.740,threat_forest,2021.2.3,60.11074804224691,True,39.0,0.4333333333333333,0.4388888888888889,-1.2000000000000002,-1.2296296296296296,1,1,1,-0.5445316773107799,0.0693087435858353,0.4444444444444445,0.4444444444444445,0.6666666666666666,0.3333333333333333,0.0,0.0,4.0,4.0,0.0,1.0,1.0,4.0,0,1,1,1,0.0693087435858353,0.5731756694598882,0.2446453213990972,-0.1035411815988064,0.766549061043701,0.17895159805672134,-0.028165314753092474,0.6424035166470313,0.22972123844655867,-0.0829675042930198,0.6557463245473086,0.22574308239000437,-0.13853747900225866,0.7129717210911912,0.2046430460154559,-0.07745039673430049,0.7525342020042557,0.18622647681807372,-0.13250748397420364,0.6666022824796219,0.22224367947258025,-0.08181777188096584,0.6864713141150519,0.21522844901220556,-0.1206950621306142,0.6593305733634571,0.224613768391672,-0.15709183170609542,0.7651948188961365,0.1796717080306453,-0.08351500679004689,0.771969548588806,0.17603256464040112,-0.0867197725947235
14.0,0.0,14.0,0.0,3.0,0.0,3.0,0.0,,,,left,1.7554825999995955,476.8170016000004,wp8,476.8170016000004,,473.5847512,475.5990932000004,True,1.0,['p'],True,0.2,0.2,0.0,0.0,1.0,0.4554859150035951,0.0339924554183812,unsucc_cost,0.0,0.0,475.5990932000004,,wp8,1,2023-04-18_11h23.46.740,threat_forest,2021.2.3,60.11074804224691,True,39.0,0.4333333333333333,0.4388888888888889,-1.2000000000000002,-1.2296296296296296,0,0,1,0.5627438048709316,0.0339924554183812,1.0,0.2,0.2,0.0,-0.4000000000000001,-0.4000000000000001,0.5999999999999999,1.0,1.0,1.0,-1.0,1.0,1,1,0,0,0.625,0.6900352312751002,0.21388661087421917,-0.07924124019636702,0.766549061043701,0.17895159805672134,-0.028165314753092474,0.8421037645080328,0.13296501430943242,-0.0949451232215897,0.6724993489078845,0.22024397462635592,-0.026159575331002216,0.5949838450072772,0.24097806918763356,-0.09368287399411565,0.5481065747695872,0.2476857574639381,-0.041117374368337956,0.6819209125261959,0.21690478158563617,-0.04524591700577307,0.6254352964495978,0.23426598640460153,-0.02286943622899784,0.6686077481725458,0.2215714272561834,-0.007179841095949158,0.9617463377295031,0.036790319593391754,-0.0757346376153137,0.7358672914317851,0.1943666208326333,-0.08284707250710532
15.0,0.0,15.0,0.0,0.0,0.0,0.0,0.0,481.4140598000004,484.9237076999998,,left,0.7062175999999454,488.4045632999996,wp8,481.4140598000004,484.9237076999998,488.4045632999996,,False,4.0,['r'],False,0.2222222222222222,0.6666666666666666,0.6666666666666666,2.0,2.0,0.77250688571426,-0.0225879671967348,wait_cost,1.0,3.0,,,wp8,1,2023-04-18_11h23.46.740,threat_forest,2021.2.3,60.11074804224691,False,68.0,0.5,0.4666666666666667,-1.2222222222222223,-1.2111111111111112,0,0,0,-0.3478318736800991,-0.0225879671967348,0.2222222222222222,0.2222222222222222,0.6666666666666666,0.6666666666666666,-0.3333333333333335,-0.7777777777777779,3.2222222222222223,3.2222222222222223,0.0,2.0,-1.0,4.0,0,1,0,0,-0.0225879671967348,0.6900352312751002,0.21388661087421917,-0.07924124019636702,0.766549061043701,0.17895159805672134,-0.028165314753092474,0.6424035166470313,0.22972123844655867,-0.0829675042930198,0.6557463245473086,0.22574308239000437,-0.13853747900225866,0.8076969991161453,0.1553225567349188,-0.05541673194494362,0.7525342020042557,0.18622647681807372,-0.13250748397420364,0.6793938551999533,0.2178178447164982,-0.051500468604415595,0.6311884818301254,0.23278958223510685,-0.03045603521959328,0.6686077481725458,0.2215714272561834,-0.007179841095949158,0.5900372733437085,0.24189328940883034,-0.0869031798688001,0.6709311112406843,0.22078255521002482,-0.07726723843737104
15.0,0.0,15.0,0.0,1.0,0.0,1.0,0.0,,,,right,0.7991396999996141,494.1321770000004,wp8,481.4140598000004,484.9237076999998,494.1321770000004,,True,3.0,['r'],False,0.2222222222222222,0.6666666666666666,0.6666666666666666,2.0,2.0,0.77250688571426,-0.0090279894663753,figh_cost,1.0,0.0,491.1512054000005,,wp8,1,2023-04-18_11h23.46.740,threat_forest,2021.2.3,60.11074804224691,True,68.0,0.5,0.4666666666666667,-1.2222222222222223,-1.2111111111111112,0,0,1,-0.224219504945255,-0.0090279894663753,0.2222222222222222,0.2222222222222222,0.6666666666666666,0.6666666666666666,-0.3333333333333335,-0.7777777777777779,2.2222222222222223,2.2222222222222223,0.0,2.0,-1.0,3.0,0,1,0,0,-0.0090279894663753,0.6900352312751002,0.21388661087421917,-0.07924124019636702,0.766549061043701,0.17895159805672134,-0.028165314753092474,0.6424035166470313,0.22972123844655867,-0.0829675042930198,0.6557463245473086,0.22574308239000437,-0.13853747900225866,0.8076969991161453,0.1553225567349188,-0.05541673194494362,0.7525342020042557,0.18622647681807372,-0.13250748397420364,0.6793938551999533,0.2178178447164982,-0.051500468604415595,0.6311884818301254,0.23278958223510685,-0.03045603521959328,0.6686077481725458,0.2215714272561834,-0.007179841095949158,0.5900372733437085,0.24189328940883034,-0.0869031798688001,0.6872341921492695,0.21494335729021047,-0.07850065138530703
16.0,0.0,16.0,0.0,0.0,0.0,0.0,0.0,499.4083455999999,502.9030394000001,,right,0.7755189999998038,505.77160559999993,wp8,499.4083455999999,502.9030394000001,505.77160559999993,,True,5.0,['p'],False,0.5555555555555556,0.6666666666666666,0.1666666666666666,1.0,2.0,0.8929352898779306,0.0304669022621303,succ_gain,1.0,6.0,,,wp8,1,2023-04-18_11h23.46.740,threat_forest,2021.2.3,60.11074804224691,True,51.0,0.5555555555555556,0.5277777777777778,-0.2376543209876542,-0.7299382716049383,1,1,1,-0.2542227963435519,0.0304669022621303,0.5555555555555556,0.5555555555555556,0.6666666666666666,0.1666666666666666,1.1666666666666667,1.0555555555555558,6.055555555555555,6.055555555555555,0.0,2.0,-1.0,5.0,0,1,1,1,0.0304669022621303,0.6900352312751002,0.21388661087421917,-0.07924124019636702,0.766549061043701,0.17895159805672134,-0.028165314753092474,0.6424035166470313,0.22972123844655867,-0.0829675042930198,0.6557463245473086,0.22574308239000437,-0.13853747900225866,0.6563869157537868,0.225543132581018,-0.08678739862077327,0.7525342020042557,0.18622647681807372,-0.13250748397420364,0.6199655438327417,0.23560826829291454,-0.1733662174879027,0.7123553421965438,0.20490520864058878,-0.17374170518485776,0.6593305733634571,0.224613768391672,-0.15709183170609542,0.8306163474194717,0.14069283081900727,-0.08139247664080831,0.732068919331007,0.1961440166805386,-0.0824716334343904
16.0,0.0,16.0,0.0,1.0,0.0,1.0,0.0,,,,right,0.4843057999996745,512.3319653999997,wp8,499.4083455999999,502.9030394000001,512.3319653999997,,True,6.0,['p'],False,0.5555555555555556,0.6666666666666666,0.1666666666666666,1.0,2.0,0.8929352898779306,-0.0252043745840764,unsucc_cost,1.0,4.0,508.5850602,,wp8,1,2023-04-18_11h23.46.740,threat_forest,2021.2.3,60.11074804224691,True,51.0,0.5555555555555556,0.5277777777777778,-0.2376543209876542,-0.7299382716049383,1,1,1,-0.7250387535974339,-0.0252043745840764,0.5555555555555556,0.5555555555555556,0.6666666666666666,0.1666666666666666,1.1666666666666667,1.0555555555555558,7.055555555555555,7.0,0.0,2.0,1.0,6.0,0,1,1,1,-0.0252043745840764,0.5731756694598882,0.2446453213990972,-0.1035411815988064,0.766549061043701,0.17895159805672134,-0.028165314753092474,0.6424035166470313,0.22972123844655867,-0.0829675042930198,0.6557463245473086,0.22574308239000437,-0.13853747900225866,0.6563869157537868,0.225543132581018,-0.08678739862077327,0.7525342020042557,0.18622647681807372,-0.13250748397420364,0.6199655438327417,0.23560826829291454,-0.1733662174879027,0.7123553421965438,0.20490520864058878,-0.17374170518485776,0.6593305733634571,0.224613768391672,-0.15709183170609542,0.8306163474194717,0.14069283081900727,-0.08139247664080831,0.6677358923936684,0.22186467040289967,-0.07703866339874785
16.0,0.0,16.0,0.0,2.0,0.0,2.0,0.0,,,,left,0.9170528000004196,518.2141330000004,wp8,518.2141330000004,,512.8480728000004,514.8624718000001,True,4.0,['p'],True,0.3950617283950617,0.4444444444444444,0.1111111111111111,1.0,2.0,0.8733423231021583,0.0125899016646355,unsucc_cost,0.0,2.0,514.8624718000001,,wp8,1,2023-04-18_11h23.46.740,threat_forest,2021.2.3,60.11074804224691,True,51.0,0.5555555555555556,0.5277777777777778,-0.2376543209876542,-0.7299382716049383,1,0,1,-0.086590229320666,0.0125899016646355,0.3950617283950617,0.3950617283950617,0.4444444444444444,0.1111111111111111,0.4444444444444444,0.4691358024691359,4.469135802469136,4.469135802469136,1.0,2.0,-1.0,4.0,0,1,0,1,0.0125899016646355,0.6900352312751002,0.21388661087421917,-0.07924124019636702,0.766549061043701,0.17895159805672134,-0.028165314753092474,0.6424035166470313,0.22972123844655867,-0.0829675042930198,0.6724993489078845,0.22024397462635592,-0.026159575331002216,0.6363812420689922,0.231400156811719,-0.08940399286882209,0.6625063086357286,0.22359169965358935,-0.0769453007774637,0.6491603811135248,0.22775118070606803,-0.11954457244941641,0.674570001648086,0.21952531452458723,-0.09861533881872697,0.6593305733634571,0.224613768391672,-0.15709183170609542,0.7310118068953813,0.19663354507493103,-0.08443863551125128,0.7122841125059475,0.2049354555775622,-0.0806146190438041
16.0,0.0,16.0,0.0,3.0,0.0,3.0,0.0,,,,left,0.9222670999997716,522.1231710000002,wp8,522.1231710000002,,512.8480728000004,514.8624718000001,True,2.0,['p'],True,0.3950617283950617,0.4444444444444444,0.1111111111111111,1.0,2.0,0.8733423231021583,-0.0206618655692729,unsucc_cost,0.0,0.0,521.1732798000003,,wp8,1,2023-04-18_11h23.46.740,threat_forest,2021.2.3,60.11074804224691,True,51.0,0.5555555555555556,0.5277777777777778,-0.2376543209876542,-0.7299382716049383,1,0,1,-0.0809204010673007,-0.0206618655692729,0.3950617283950617,0.3950617283950617,0.4444444444444444,0.1111111111111111,0.4444444444444444,0.4691358024691359,2.469135802469136,2.469135802469136,1.0,2.0,-1.0,2.0,0,1,0,1,-0.0206618655692729,0.6900352312751002,0.21388661087421917,-0.07924124019636702,0.766549061043701,0.17895159805672134,-0.028165314753092474,0.6424035166470313,0.22972123844655867,-0.0829675042930198,0.6724993489078845,0.22024397462635592,-0.026159575331002216,0.6363812420689922,0.231400156811719,-0.08940399286882209,0.6625063086357286,0.22359169965358935,-0.0769453007774637,0.6491603811135248,0.22775118070606803,-0.11954457244941641,0.674570001648086,0.21952531452458723,-0.09861533881872697,0.6593305733634571,0.224613768391672,-0.15709183170609542,0.7310118068953813,0.19663354507493103,-0.08443863551125128,0.673273271762703,0.21997637329264844,-0.07743752812936963
