miniblock.thisRepN,miniblock.thisTrialN,miniblock.thisN,miniblock.thisIndex,day.thisRepN,day.thisTrialN,day.thisN,day.thisIndex,forest.started,fixation_forest.started,fixation_forest.stopped,key_resp.keys,key_resp.rt,key_resp.started,Subject_ID,weather_left.started,weather_left.stopped,weather_right.started,weather_right.stopped,foraging T/F,in_LP,p/r heuristic,good_weather.T/F,p_succ_correct,p_succ_uncorrected,r_threat,n_oponents,gain_if_succ,weather_entropy,OP_value_difference,action_outcome,forest_side_L=0_R=1,out_LP,fixation_day.started,fixation_day.stopped,participant,session,date,expName,psychopyVersion,frameRate,foraging T/F NaNs,fora_NR,forest_mean_p,mvt_cutoff_p,forest_mean_ev,mvt_cutoff_ev,mvt_policy_eg,mvt_policy_p,fora_response,logRT,optimal policy,$\mathit{p}$ success cor + cap,$\mathit{p}$ success cor,$\mathit{p}$ success,risk threat encounter,expected gain naive,expected gain correct,expected state no bounds,expected state with bounds,weather type,gain magnitude,win stay lose shift,continuous energy state,binary energy state,$\mathit{p}$ success based MVT,expected gain based MVT,weather type fit,weather type_uncertain,weather type_uncertain_fit,risk threat encounter fit,risk threat encounter_uncertain,risk threat encounter_uncertain_fit,win stay lose shift fit,win stay lose shift_uncertain,win stay lose shift_uncertain_fit,$\mathit{p}$ success fit,$\mathit{p}$ success_uncertain,$\mathit{p}$ success_uncertain_fit,expected gain naive fit,expected gain naive_uncertain,expected gain naive_uncertain_fit,expected gain based MVT fit,expected gain based MVT_uncertain,expected gain based MVT_uncertain_fit,$\mathit{p}$ success cor fit,$\mathit{p}$ success cor_uncertain,$\mathit{p}$ success cor_uncertain_fit,binary energy state fit,binary energy state_uncertain,binary energy state_uncertain_fit,$\mathit{p}$ success cor + cap fit,$\mathit{p}$ success cor + cap_uncertain,$\mathit{p}$ success cor + cap_uncertain_fit,optimal policy fit,optimal policy_uncertain,optimal policy_uncertain_fit
0.0,0.0,0.0,0.0,0.0,0.0,0.0,0.0,13.50716649973765,17.011053999885917,None,left,1.5038385996595025,19.75945739960298,qh13,13.50716649973765,17.011053999885917,19.75945739960298,None,False,4.0,['p'],False,0.2592592592592592,0.3333333333333333,0.2222222222222222,2.0,2.0,0.9327883776363324,0.0060894858457368,wait_cost,1.0,3.0,,,qh13,1,2023-02-28_10h21.05.610,threat_forest,2021.2.3,60.06507456375704,False,31.0,0.4166666666666666,0.4166666666666666,-0.9675925925925928,-0.9675925925925928,0,0,0,0.4080209057129009,0.0060894858457368,0.2592592592592592,0.2592592592592592,0.3333333333333333,0.7777777777777778,-1.3333333333333337,-1.1851851851851856,2.8148148148148144,2.8148148148148144,0.0,2.0,,4.0,0,0,0,0.5438726256478913,0.24807519271876,0.24639306379354498,0.5043049051286427,0.24998146779183336,0.23823952721901476,,,,0.4566525882677241,0.24812100189611253,0.14488269405539977,0.43653837969158904,0.2459726227478311,0.2196805075263747,0.3277712648920279,0.220337262803108,0.2747187546514067,0.4055005906763394,0.24106986163747923,0.2184150532788451,0.44999341551954053,0.24749934150859873,0.21342004138573145,0.3799488717080032,0.2355877265958185,0.2734117581431483,0.4794283173169048,0.24957680587158604,0.3367282015113747
0.0,0.0,0.0,0.0,2.0,0.0,2.0,0.0,,,,left,1.5142399999313056,33.13932409975678,qh13,13.50716649973765,17.011053999885917,33.13932409975678,None,False,2.0,['p'],False,0.2592592592592592,0.3333333333333333,0.2222222222222222,2.0,2.0,0.9327883776363324,-0.0142932796568574,wait_cost,1.0,1.0,31.867434399668127,None,qh13,1,2023-02-28_10h21.05.610,threat_forest,2021.2.3,60.06507456375704,False,31.0,0.4166666666666666,0.4166666666666666,-0.9675925925925928,-0.9675925925925928,0,0,0,0.4149136628824099,-0.0142932796568574,0.2592592592592592,0.2592592592592592,0.3333333333333333,0.7777777777777778,-1.3333333333333337,-1.1851851851851856,0.8148148148148144,0.8148148148148144,0.0,2.0,-1.0,2.0,0,0,0,0.5438726256478913,0.24807519271876,0.24639306379354498,0.5043049051286427,0.24998146779183336,0.23823952721901476,0.5448274773504098,0.24799049727439845,0.21208579542869943,0.4566525882677241,0.24812100189611253,0.14488269405539977,0.43653837969158904,0.2459726227478311,0.2196805075263747,0.3277712648920279,0.220337262803108,0.2747187546514067,0.4055005906763394,0.24106986163747923,0.2184150532788451,0.44999341551954053,0.24749934150859873,0.21342004138573145,0.3799488717080032,0.2355877265958185,0.2734117581431483,0.3887889907287936,0.23763211141687965,0.31976953443650663
0.0,0.0,0.0,0.0,3.0,0.0,3.0,0.0,,,,right,1.213789400178939,37.48413759982213,qh13,13.50716649973765,17.011053999885917,37.48413759982213,None,True,1.0,['p'],False,0.2592592592592592,0.3333333333333333,0.2222222222222222,2.0,2.0,0.9327883776363324,0.118950799865366,succ_gain,1.0,3.0,36.6964225997217,None,qh13,1,2023-02-28_10h21.05.610,threat_forest,2021.2.3,60.06507456375704,True,31.0,0.4166666666666666,0.4166666666666666,-0.9675925925925928,-0.9675925925925928,0,0,1,0.1937472016239808,0.118950799865366,1.0,0.2592592592592592,0.3333333333333333,0.7777777777777778,-1.3333333333333337,-1.1851851851851856,-0.1851851851851855,0.0,0.0,2.0,-1.0,1.0,1,0,0,0.5438726256478913,0.24807519271876,0.24639306379354498,0.5043049051286427,0.24998146779183336,0.23823952721901476,0.5448274773504098,0.24799049727439845,0.21208579542869943,0.4566525882677241,0.24812100189611253,0.14488269405539977,0.43653837969158904,0.2459726227478311,0.2196805075263747,0.3277712648920279,0.220337262803108,0.2747187546514067,0.4055005906763394,0.24106986163747923,0.2184150532788451,0.9423001061069406,0.054370616137789145,0.24100719461412842,0.9940645965997141,0.005900174386761712,0.0993518722361642,0.8772661552046771,0.10767024813708057,0.13525414309275882
0.0,0.0,0.0,0.0,4.0,0.0,4.0,0.0,,,,left,1.513109799940139,41.78278899984434,qh13,13.50716649973765,17.011053999885917,41.78278899984434,None,False,3.0,['p'],False,0.2592592592592592,0.3333333333333333,0.2222222222222222,2.0,2.0,0.9327883776363324,0.0776320301783265,wait_cost,1.0,2.0,40.74245899962261,None,qh13,1,2023-02-28_10h21.05.610,threat_forest,2021.2.3,60.06507456375704,False,31.0,0.4166666666666666,0.4166666666666666,-0.9675925925925928,-0.9675925925925928,0,0,0,0.4141670031843982,0.0776320301783265,0.2592592592592592,0.2592592592592592,0.3333333333333333,0.7777777777777778,-1.3333333333333337,-1.1851851851851856,1.8148148148148144,1.8148148148148144,0.0,2.0,1.0,3.0,0,0,0,0.5438726256478913,0.24807519271876,0.24639306379354498,0.5043049051286427,0.24998146779183336,0.23823952721901476,0.42622504528412813,0.24455725605667106,0.2400899173052402,0.4566525882677241,0.24812100189611253,0.14488269405539977,0.43653837969158904,0.2459726227478311,0.2196805075263747,0.3277712648920279,0.220337262803108,0.2747187546514067,0.4055005906763394,0.24106986163747923,0.2184150532788451,0.44999341551954053,0.24749934150859873,0.21342004138573145,0.3799488717080032,0.2355877265958185,0.2734117581431483,0.7714651942743913,0.17630664829756698,0.23270174746245362
0.0,0.0,0.0,0.0,5.0,0.0,5.0,0.0,,,,left,2.3166094003245234,48.47998789977282,qh13,13.50716649973765,17.011053999885917,48.47998789977282,None,False,2.0,['p'],False,0.2592592592592592,0.3333333333333333,0.2222222222222222,2.0,2.0,0.9327883776363324,-0.0578703703703703,wait_cost,1.0,1.0,45.338195899967104,None,qh13,1,2023-02-28_10h21.05.610,threat_forest,2021.2.3,60.06507456375704,False,31.0,0.4166666666666666,0.4166666666666666,-0.9675925925925928,-0.9675925925925928,0,0,0,0.8401046513186862,-0.0578703703703703,0.2592592592592592,0.2592592592592592,0.3333333333333333,0.7777777777777778,-1.3333333333333337,-1.1851851851851856,0.8148148148148144,0.8148148148148144,0.0,2.0,-1.0,2.0,0,0,0,0.5438726256478913,0.24807519271876,0.24639306379354498,0.5043049051286427,0.24998146779183336,0.23823952721901476,0.5448274773504098,0.24799049727439845,0.21208579542869943,0.4566525882677241,0.24812100189611253,0.14488269405539977,0.43653837969158904,0.2459726227478311,0.2196805075263747,0.3277712648920279,0.220337262803108,0.2747187546514067,0.4055005906763394,0.24106986163747923,0.2184150532788451,0.44999341551954053,0.24749934150859873,0.21342004138573145,0.3799488717080032,0.2355877265958185,0.2734117581431483,0.22381047426507866,0.1737193458743192,0.22902838431497097
0.0,0.0,0.0,0.0,6.0,0.0,6.0,0.0,,,,left,1.877822699956596,53.92102460004389,qh13,53.92102460004389,None,50.81679039960727,52.83116719964892,True,1.0,['p'],True,0.375,0.5,0.25,1.0,2.0,0.9850568223215076,0.375,unsucc_cost,0.0,0.0,52.83116719964892,None,qh13,1,2023-02-28_10h21.05.610,threat_forest,2021.2.3,60.06507456375704,True,31.0,0.4166666666666666,0.4166666666666666,-0.9675925925925928,-0.9675925925925928,1,0,1,0.6301129673604652,0.375,1.0,0.375,0.5,0.75,-0.75,-0.75,0.25,0.25,1.0,2.0,-1.0,1.0,1,0,1,0.5027435870702215,0.24999247272998815,0.19019432390584168,0.48715255222437076,0.24983494308565246,0.2379186379547874,0.5448274773504098,0.24799049727439845,0.21208579542869943,0.5713449171980173,0.2449099027900081,0.16917735280645152,0.6203610419888816,0.23551321957135068,0.2188270417478602,0.726736200701073,0.19859069529164272,0.15761052731628533,0.5904247616583743,0.2418233624790262,0.2184478137126813,0.9423001061069406,0.054370616137789145,0.24100719461412842,0.9940645965997141,0.005900174386761712,0.0993518722361642,0.9986625560758788,0.0013356551678710134,-0.015716061088220865
1.0,0.0,1.0,0.0,0.0,0.0,0.0,0.0,59.99087619967759,63.49630289990455,None,left,1.1515937000513077,65.61397029971704,qh13,65.61397029971704,None,59.99087619967759,63.49630289990455,True,4.0,['r'],True,0.5714285714285714,0.5714285714285714,0.0,0.0,2.0,0.6216097450797566,0.0806960090466623,unsucc_cost,0.0,2.0,,,qh13,1,2023-02-28_10h21.05.610,threat_forest,2021.2.3,60.06507456375704,True,19.0,0.5982142857142857,0.5074404761904762,-0.0446428571428572,-0.506117724867725,1,1,1,0.1411468091359422,0.0806960090466623,0.5714285714285714,0.5714285714285714,0.5714285714285714,1.0,0.2857142857142856,0.2857142857142856,4.285714285714286,4.285714285714286,1.0,2.0,-1.0,4.0,0,1,1,0.5027435870702215,0.24999247272998815,0.19019432390584168,0.6378834017347269,0.2309881675260599,0.1966441791961997,0.5448274773504098,0.24799049727439845,0.21208579542869943,0.6189239116621911,0.2358571032349634,0.23766937646071407,0.8601036455288569,0.1203253644768274,0.2094279497762719,0.726736200701073,0.19859069529164272,0.15761052731628533,0.8369525092856942,0.1364630064860742,0.2138669947126935,0.44999341551954053,0.24749934150859873,0.21342004138573145,0.8670029659109686,0.11530882301255237,0.18226301266970973,0.7811247705313747,0.1709688633936819,0.22512334372466883
1.0,0.0,1.0,0.0,1.0,0.0,1.0,0.0,,,,left,1.5995346000418067,70.65182889997959,qh13,70.65182889997959,None,59.99087619967759,63.49630289990455,True,2.0,['r'],True,0.5714285714285714,0.5714285714285714,0.0,0.0,2.0,0.6216097450797566,0.0675204179955718,succ_gain,0.0,4.0,68.79955369979143,None,qh13,1,2023-02-28_10h21.05.610,threat_forest,2021.2.3,60.06507456375704,True,19.0,0.5982142857142857,0.5074404761904762,-0.0446428571428572,-0.506117724867725,1,1,1,0.4697127119595343,0.0675204179955718,0.5714285714285714,0.5714285714285714,0.5714285714285714,1.0,0.2857142857142856,0.2857142857142856,2.2857142857142856,2.2857142857142856,1.0,2.0,-1.0,2.0,0,1,1,0.5027435870702215,0.24999247272998815,0.19019432390584168,0.6378834017347269,0.2309881675260599,0.1966441791961997,0.5448274773504098,0.24799049727439845,0.21208579542869943,0.6189239116621911,0.2358571032349634,0.23766937646071407,0.8601036455288569,0.1203253644768274,0.2094279497762719,0.726736200701073,0.19859069529164272,0.15761052731628533,0.8369525092856942,0.1364630064860742,0.2138669947126935,0.44999341551954053,0.24749934150859873,0.21342004138573145,0.8670029659109686,0.11530882301255237,0.18226301266970973,0.7375000409804032,0.19359373053430684,0.2572453532834653
1.0,0.0,1.0,0.0,2.0,0.0,2.0,0.0,,,,left,1.4749972000718117,77.5539670996368,qh13,72.28295989986509,74.2942883996293,77.5539670996368,None,False,4.0,['r'],False,0.46875,0.625,0.25,2.0,2.0,0.9634951148421658,0.0243316068097185,wait_cost,1.0,3.0,74.2942883996293,None,qh13,1,2023-02-28_10h21.05.610,threat_forest,2021.2.3,60.06507456375704,False,19.0,0.5982142857142857,0.5074404761904762,-0.0446428571428572,-0.506117724867725,1,0,0,0.3886560915335826,0.0243316068097185,0.46875,0.46875,0.625,0.75,-0.25,-0.375,3.625,3.625,0.0,2.0,1.0,4.0,0,0,1,0.5438726256478913,0.24807519271876,0.24639306379354498,0.48715255222437076,0.24983494308565246,0.2379186379547874,0.42622504528412813,0.24455725605667106,0.2400899173052402,0.653218180411687,0.22652418919133174,0.30828070122857576,0.755980966985865,0.1844737445409815,0.21466232560136747,0.726736200701073,0.19859069529164272,0.15761052731628533,0.7254900746684836,0.1991542262260017,0.21659266062194954,0.44999341551954053,0.24749934150859873,0.21342004138573145,0.74969602455611,0.18765189532087453,0.23708543030201684,0.5618991475468266,0.24616849553297618,0.3318891995143382
1.0,0.0,1.0,0.0,3.0,0.0,3.0,0.0,,,,left,0.7839470002800226,82.77844799961895,qh13,82.77844799961895,None,79.06295139994472,81.0712125999853,True,3.0,['r'],True,0.5714285714285714,0.5714285714285714,0.0,0.0,2.0,0.6216097450797566,0.1827383633208046,unsucc_cost,0.0,1.0,81.0712125999853,None,qh13,1,2023-02-28_10h21.05.610,threat_forest,2021.2.3,60.06507456375704,True,19.0,0.5982142857142857,0.5074404761904762,-0.0446428571428572,-0.506117724867725,1,1,1,-0.2434138626004706,0.1827383633208046,0.5714285714285714,0.5714285714285714,0.5714285714285714,1.0,0.2857142857142856,0.2857142857142856,3.2857142857142856,3.2857142857142856,1.0,2.0,-1.0,3.0,0,1,1,0.5027435870702215,0.24999247272998815,0.19019432390584168,0.6378834017347269,0.2309881675260599,0.1966441791961997,0.5448274773504098,0.24799049727439845,0.21208579542869943,0.6189239116621911,0.2358571032349634,0.23766937646071407,0.8601036455288569,0.1203253644768274,0.2094279497762719,0.726736200701073,0.19859069529164272,0.15761052731628533,0.8369525092856942,0.1364630064860742,0.2138669947126935,0.44999341551954053,0.24749934150859873,0.21342004138573145,0.8670029659109686,0.11530882301255237,0.18226301266970973,0.9579093704440517,0.040319008459532256,0.03963116545173995
1.0,0.0,1.0,0.0,4.0,0.0,4.0,0.0,,,,right,1.3979831002652643,86.99201419996098,qh13,83.58583119977266,85.60030629998073,86.99201419996098,None,True,1.0,['r'],False,0.46875,0.625,0.25,2.0,2.0,0.9634951148421658,0.3303161932497608,figh_cost,1.0,0.0,85.60030629998073,None,qh13,1,2023-02-28_10h21.05.610,threat_forest,2021.2.3,60.06507456375704,True,19.0,0.5982142857142857,0.5074404761904762,-0.0446428571428572,-0.506117724867725,1,0,1,0.3350305552301573,0.3303161932497608,1.0,0.46875,0.625,0.75,-0.25,-0.375,0.625,0.625,0.0,2.0,-1.0,1.0,1,0,1,0.5438726256478913,0.24807519271876,0.24639306379354498,0.48715255222437076,0.24983494308565246,0.2379186379547874,0.5448274773504098,0.24799049727439845,0.21208579542869943,0.653218180411687,0.22652418919133174,0.30828070122857576,0.755980966985865,0.1844737445409815,0.21466232560136747,0.726736200701073,0.19859069529164272,0.15761052731628533,0.7254900746684836,0.1991542262260017,0.21659266062194954,0.9423001061069406,0.054370616137789145,0.24100719461412842,0.9940645965997141,0.005900174386761712,0.0993518722361642,0.9969947098504616,0.0029962583806555634,-0.013358393662247193
2.0,0.0,2.0,0.0,0.0,0.0,0.0,0.0,92.4984977999702,96.00765359960496,None,left,2.3195274001918733,99.18164689978585,qh13,92.4984977999702,96.00765359960496,99.18164689978585,None,False,5.0,['p'],False,0.1728395061728395,0.2222222222222222,0.2222222222222222,2.0,2.0,0.8571721972794328,-0.0270759260606772,wait_cost,1.0,4.0,,,qh13,1,2023-02-28_10h21.05.610,threat_forest,2021.2.3,60.06507456375704,False,59.0,0.3611111111111111,0.4796626984126984,-1.1404320987654322,-0.5925374779541447,0,0,0,0.8413634581133197,-0.0270759260606772,0.1728395061728395,0.1728395061728395,0.2222222222222222,0.7777777777777778,-1.7777777777777777,-1.5308641975308643,3.469135802469136,3.469135802469136,0.0,2.0,-1.0,5.0,0,0,0,0.5438726256478913,0.24807519271876,0.24639306379354498,0.5043049051286427,0.24998146779183336,0.23823952721901476,0.5448274773504098,0.24799049727439845,0.21208579542869943,0.3819521947090948,0.23606471566600057,0.23609861423947454,0.30495011901454017,0.21195554392755797,0.21690478388629,0.3277712648920279,0.220337262803108,0.2747187546514067,0.2806292969827566,0.20187649465772042,0.21671101841257734,0.44999341551954053,0.24749934150859873,0.21342004138573145,0.24152460107094403,0.1831904681484654,0.23370450914567553,0.33526014747925953,0.22286078099144466,0.2987977066607764
2.0,0.0,2.0,0.0,1.0,0.0,1.0,0.0,,,,left,2.141581700183451,104.4867112999782,qh13,92.4984977999702,96.00765359960496,104.4867112999782,None,False,4.0,['p'],False,0.1728395061728395,0.2222222222222222,0.2222222222222222,2.0,2.0,0.8571721972794328,0.0062757750896342,wait_cost,1.0,3.0,103.53347979998216,None,qh13,1,2023-02-28_10h21.05.610,threat_forest,2021.2.3,60.06507456375704,False,59.0,0.3611111111111111,0.4796626984126984,-1.1404320987654322,-0.5925374779541447,0,0,0,0.761544668260084,0.0062757750896342,0.1728395061728395,0.1728395061728395,0.2222222222222222,0.7777777777777778,-1.7777777777777777,-1.5308641975308643,2.469135802469136,2.469135802469136,0.0,2.0,-1.0,4.0,0,0,0,0.5438726256478913,0.24807519271876,0.24639306379354498,0.5043049051286427,0.24998146779183336,0.23823952721901476,0.5448274773504098,0.24799049727439845,0.21208579542869943,0.3819521947090948,0.23606471566600057,0.23609861423947454,0.30495011901454017,0.21195554392755797,0.21690478388629,0.3277712648920279,0.220337262803108,0.2747187546514067,0.2806292969827566,0.20187649465772042,0.21671101841257734,0.44999341551954053,0.24749934150859873,0.21342004138573145,0.24152460107094403,0.1831904681484654,0.23370450914567553,0.48027251714803393,0.24961082642032542,0.3367765027184055
2.0,0.0,2.0,0.0,2.0,0.0,2.0,0.0,,,,left,1.813370999880135,109.21895339991896,qh13,109.21895339991896,None,106.64780699973926,108.66215109964833,True,3.0,['p'],True,0.375,0.5,0.25,1.0,2.0,0.9850568223215076,0.1002439100782927,succ_gain,0.0,5.0,108.66215109964833,None,qh13,1,2023-02-28_10h21.05.610,threat_forest,2021.2.3,60.06507456375704,True,59.0,0.3611111111111111,0.4796626984126984,-1.1404320987654322,-0.5925374779541447,0,0,1,0.5951875439767282,0.1002439100782927,0.375,0.375,0.5,0.75,-0.75,-0.75,2.25,2.25,1.0,2.0,-1.0,3.0,0,0,0,0.5027435870702215,0.24999247272998815,0.19019432390584168,0.48715255222437076,0.24983494308565246,0.2379186379547874,0.5448274773504098,0.24799049727439845,0.21208579542869943,0.5713449171980173,0.2449099027900081,0.16917735280645152,0.6203610419888816,0.23551321957135068,0.2188270417478602,0.3277712648920279,0.220337262803108,0.2747187546514067,0.5904247616583743,0.2418233624790262,0.2184478137126813,0.44999341551954053,0.24749934150859873,0.21342004138573145,0.5955352696760237,0.24087301224792942,0.2774170087923211,0.8357784900211619,0.13725280563910855,0.1772544425397125
2.0,0.0,2.0,0.0,3.0,0.0,3.0,0.0,,,,left,1.5910923997871578,115.25169649999587,qh13,111.0601600999944,113.07463819999248,115.25169649999587,None,False,5.0,['p'],False,0.1728395061728395,0.2222222222222222,0.2222222222222222,2.0,2.0,0.8571721972794328,-0.0057342214669643,wait_cost,1.0,4.0,113.07463819999248,None,qh13,1,2023-02-28_10h21.05.610,threat_forest,2021.2.3,60.06507456375704,False,59.0,0.3611111111111111,0.4796626984126984,-1.1404320987654322,-0.5925374779541447,0,0,0,0.464420824216826,-0.0057342214669643,0.1728395061728395,0.1728395061728395,0.2222222222222222,0.7777777777777778,-1.7777777777777777,-1.5308641975308643,3.469135802469136,3.469135802469136,0.0,2.0,1.0,5.0,0,0,0,0.5438726256478913,0.24807519271876,0.24639306379354498,0.5043049051286427,0.24998146779183336,0.23823952721901476,0.42622504528412813,0.24455725605667106,0.2400899173052402,0.3819521947090948,0.23606471566600057,0.23609861423947454,0.30495011901454017,0.21195554392755797,0.21690478388629,0.3277712648920279,0.220337262803108,0.2747187546514067,0.2806292969827566,0.20187649465772042,0.21671101841257734,0.44999341551954053,0.24749934150859873,0.21342004138573145,0.24152460107094403,0.1831904681484654,0.23370450914567553,0.42628953930125896,0.24456676798357935,0.32961512173379165
2.0,0.0,2.0,0.0,4.0,0.0,4.0,0.0,,,,right,1.6078196000307798,120.59648259961978,qh13,120.59648259961978,None,116.87155719986184,118.88595949998125,False,4.0,['p'],True,0.375,0.5,0.25,1.0,2.0,0.9850568223215076,0.15702041418991,wait_cost,0.0,3.0,118.88595949998124,None,qh13,1,2023-02-28_10h21.05.610,threat_forest,2021.2.3,60.06507456375704,False,59.0,0.3611111111111111,0.4796626984126984,-1.1404320987654322,-0.5925374779541447,0,0,0,0.4748789754275294,0.15702041418991,0.375,0.375,0.5,0.75,-0.75,-0.75,3.25,3.25,1.0,2.0,-1.0,4.0,0,0,0,0.5027435870702215,0.24999247272998815,0.19019432390584168,0.48715255222437076,0.24983494308565246,0.2379186379547874,0.5448274773504098,0.24799049727439845,0.21208579542869943,0.5713449171980173,0.2449099027900081,0.16917735280645152,0.6203610419888816,0.23551321957135068,0.2188270417478602,0.3277712648920279,0.220337262803108,0.2747187546514067,0.5904247616583743,0.2418233624790262,0.2184478137126813,0.44999341551954053,0.24749934150859873,0.21342004138573145,0.5955352696760237,0.24087301224792942,0.2774170087923211,0.9345017099190888,0.061208264077388,0.06928901336139938
2.0,0.0,2.0,0.0,5.0,0.0,5.0,0.0,,,,left,1.3962324000895023,127.60093860002236,qh13,122.2330285999924,124.24748629983515,127.60093860002236,None,False,3.0,['p'],False,0.1728395061728395,0.2222222222222222,0.2222222222222222,2.0,2.0,0.8571721972794328,0.0140841716201798,wait_cost,1.0,2.0,124.24748629983516,None,qh13,1,2023-02-28_10h21.05.610,threat_forest,2021.2.3,60.06507456375704,False,59.0,0.3611111111111111,0.4796626984126984,-1.1404320987654322,-0.5925374779541447,0,0,0,0.3337774661934502,0.0140841716201798,0.1728395061728395,0.1728395061728395,0.2222222222222222,0.7777777777777778,-1.7777777777777777,-1.5308641975308643,1.4691358024691357,1.4691358024691357,0.0,2.0,-1.0,3.0,0,0,0,0.5438726256478913,0.24807519271876,0.24639306379354498,0.5043049051286427,0.24998146779183336,0.23823952721901476,0.5448274773504098,0.24799049727439845,0.21208579542869943,0.3819521947090948,0.23606471566600057,0.23609861423947454,0.30495011901454017,0.21195554392755797,0.21690478388629,0.3277712648920279,0.220337262803108,0.2747187546514067,0.2806292969827566,0.20187649465772042,0.21671101841257734,0.44999341551954053,0.24749934150859873,0.21342004138573145,0.24152460107094403,0.1831904681484654,0.23370450914567553,0.5156996879207717,0.2497535197991904,0.3369790938784502
2.0,0.0,2.0,0.0,6.0,0.0,6.0,0.0,,,,left,1.5170121002011,132.8119165999815,qh13,122.2330285999924,124.24748629983515,132.8119165999815,None,False,2.0,['p'],False,0.1728395061728395,0.2222222222222222,0.2222222222222222,2.0,2.0,0.8571721972794328,-0.1010802469135802,wait_cost,1.0,1.0,131.04115829989314,None,qh13,1,2023-02-28_10h21.05.610,threat_forest,2021.2.3,60.06507456375704,False,59.0,0.3611111111111111,0.4796626984126984,-1.1404320987654322,-0.5925374779541447,0,0,0,0.4167426767361001,-0.1010802469135802,0.1728395061728395,0.1728395061728395,0.2222222222222222,0.7777777777777778,-1.7777777777777777,-1.5308641975308643,0.4691358024691356,0.4691358024691356,0.0,2.0,-1.0,2.0,0,0,0,0.5438726256478913,0.24807519271876,0.24639306379354498,0.5043049051286427,0.24998146779183336,0.23823952721901476,0.5448274773504098,0.24799049727439845,0.21208579542869943,0.3819521947090948,0.23606471566600057,0.23609861423947454,0.30495011901454017,0.21195554392755797,0.21690478388629,0.3277712648920279,0.220337262803108,0.2747187546514067,0.2806292969827566,0.20187649465772042,0.21671101841257734,0.44999341551954053,0.24749934150859873,0.21342004138573145,0.24152460107094403,0.1831904681484654,0.23370450914567553,0.11628181102058983,0.10276035144636166,0.12828324034881372
2.0,0.0,2.0,0.0,7.0,0.0,7.0,0.0,,,,left,1.7550943000242114,137.05751849990338,qh13,137.05751849990338,None,134.3551302999258,136.36949689965695,True,1.0,['p'],True,0.375,0.5,0.25,1.0,2.0,0.9850568223215076,0.375,succ_gain,0.0,3.0,136.36949689965695,None,qh13,1,2023-02-28_10h21.05.610,threat_forest,2021.2.3,60.06507456375704,True,59.0,0.3611111111111111,0.4796626984126984,-1.1404320987654322,-0.5925374779541447,0,0,1,0.5625225876818336,0.375,1.0,0.375,0.5,0.75,-0.75,-0.75,0.25,0.25,1.0,2.0,-1.0,1.0,1,0,0,0.5027435870702215,0.24999247272998815,0.19019432390584168,0.48715255222437076,0.24983494308565246,0.2379186379547874,0.5448274773504098,0.24799049727439845,0.21208579542869943,0.5713449171980173,0.2449099027900081,0.16917735280645152,0.6203610419888816,0.23551321957135068,0.2188270417478602,0.3277712648920279,0.220337262803108,0.2747187546514067,0.5904247616583743,0.2418233624790262,0.2184478137126813,0.9423001061069406,0.054370616137789145,0.24100719461412842,0.9940645965997141,0.005900174386761712,0.0993518722361642,0.9986625560758788,0.0013356551678710134,-0.015716061088220865
3.0,0.0,3.0,0.0,0.0,0.0,0.0,0.0,141.66750209964812,145.16861619986594,None,left,1.1859638998284936,146.88866299996153,qh13,146.88866299996153,None,141.66750209964812,145.16861619986594,True,4.0,['p'],True,0.4444444444444445,0.6666666666666666,0.3333333333333333,1.0,1.0,0.9656336071428248,0.0476968551938484,figh_cost,0.0,1.0,,,qh13,1,2023-02-28_10h21.05.610,threat_forest,2021.2.3,60.06507456375704,True,5.0,0.4444444444444444,0.4027777777777778,-1.259259259259259,-1.1998456790123455,1,1,1,0.1705558615190946,0.0476968551938484,0.4444444444444445,0.4444444444444445,0.6666666666666666,0.6666666666666667,-1.0,-1.0,3.0,3.0,1.0,1.0,1.0,4.0,0,1,1,0.5027435870702215,0.24999247272998815,0.19019432390584168,0.43603625867143286,0.24590863979525213,0.22932002952328545,0.42622504528412813,0.24455725605667106,0.2400899173052402,0.6788532950127758,0.21801149886307303,0.3726863454471754,0.5427048092830715,0.2481762992640965,0.2198603229959397,0.726736200701073,0.19859069529164272,0.15761052731628533,0.6931129027520179,0.21270740679068975,0.21718192084659363,0.44999341551954053,0.24749934150859873,0.21342004138573145,0.7135917676305306,0.2043785568004654,0.24976108799761718,0.662196034596234,0.22369244636125726,0.2999784765982436
3.0,0.0,3.0,0.0,1.0,0.0,1.0,0.0,,,,left,1.6189577002078297,153.27402699971572,qh13,153.27402699971572,None,141.66750209964812,145.16861619986594,True,1.0,['p'],True,0.4444444444444445,0.6666666666666666,0.3333333333333333,1.0,1.0,0.9656336071428248,0.0339196825493655,unsucc_cost,0.0,0.0,150.10687209991738,None,qh13,1,2023-02-28_10h21.05.610,threat_forest,2021.2.3,60.06507456375704,True,5.0,0.4444444444444444,0.4027777777777778,-1.259259259259259,-1.1998456790123455,1,1,1,0.4817825472435119,0.0339196825493655,1.0,0.4444444444444445,0.6666666666666666,0.6666666666666667,-1.0,-1.0,0.0,0.0,1.0,1.0,-1.0,1.0,1,1,1,0.5027435870702215,0.24999247272998815,0.19019432390584168,0.43603625867143286,0.24590863979525213,0.22932002952328545,0.5448274773504098,0.24799049727439845,0.21208579542869943,0.6788532950127758,0.21801149886307303,0.3726863454471754,0.5427048092830715,0.2481762992640965,0.2198603229959397,0.726736200701073,0.19859069529164272,0.15761052731628533,0.6931129027520179,0.21270740679068975,0.21718192084659363,0.9423001061069406,0.054370616137789145,0.24100719461412842,0.9940645965997141,0.005900174386761712,0.0993518722361642,0.6041902961278521,0.23914438219279044,0.3219166045614874
4.0,0.0,4.0,0.0,0.0,0.0,0.0,0.0,158.41400799993426,161.91145979985595,None,right,1.255156600382179,164.78509779972956,qh13,158.41400799993426,161.91145979985595,164.78509779972956,None,True,5.0,['r'],False,0.4,0.4,0.0,0.0,1.0,0.6126016192893442,0.0454165613168723,unsucc_cost,1.0,3.0,,,qh13,1,2023-02-28_10h21.05.610,threat_forest,2021.2.3,60.06507456375704,True,7.0,0.45,0.4472222222222222,-1.0666666666666669,-1.162962962962963,1,0,1,0.2272603459802423,0.0454165613168723,0.4,0.4,0.4,1.0,-0.7999999999999999,-0.7999999999999999,4.2,4.2,0.0,1.0,-1.0,5.0,0,0,1,0.5438726256478913,0.24807519271876,0.24639306379354498,0.6378834017347269,0.2309881675260599,0.1966441791961997,0.5448274773504098,0.24799049727439845,0.21208579542869943,0.5026601219348875,0.24999292375129153,0.13072003473611704,0.6051838399958309,0.23893635980373149,0.21910636294755947,0.726736200701073,0.19859069529164272,0.15761052731628533,0.6288668125127856,0.23339334463279462,0.218081296481828,0.44999341551954053,0.24749934150859873,0.21342004138573145,0.6402052088496477,0.2303424994114267,0.2694368642645263,0.6528736003922178,0.2266296623031205,0.3041486349454442
4.0,0.0,4.0,0.0,1.0,0.0,1.0,0.0,,,,right,1.1102511999197304,169.80776839982718,qh13,158.41400799993426,161.91145979985595,169.80776839982718,None,True,3.0,['r'],False,0.4,0.4,0.0,0.0,1.0,0.6126016192893442,0.0581987366255143,unsucc_cost,1.0,1.0,168.0732967997901,None,qh13,1,2023-02-28_10h21.05.610,threat_forest,2021.2.3,60.06507456375704,True,7.0,0.45,0.4472222222222222,-1.0666666666666669,-1.162962962962963,1,0,1,0.1045862959548411,0.0581987366255143,0.4,0.4,0.4,1.0,-0.7999999999999999,-0.7999999999999999,2.2,2.2,0.0,1.0,-1.0,3.0,0,0,1,0.5438726256478913,0.24807519271876,0.24639306379354498,0.6378834017347269,0.2309881675260599,0.1966441791961997,0.5448274773504098,0.24799049727439845,0.21208579542869943,0.5026601219348875,0.24999292375129153,0.13072003473611704,0.6051838399958309,0.23893635980373149,0.21910636294755947,0.726736200701073,0.19859069529164272,0.15761052731628533,0.6288668125127856,0.23339334463279462,0.218081296481828,0.44999341551954053,0.24749934150859873,0.21342004138573145,0.6402052088496477,0.2303424994114267,0.2694368642645263,0.7034476073195973,0.20860907107593096,0.2785636182442607
4.0,0.0,4.0,0.0,2.0,0.0,2.0,0.0,,,,right,1.4792062998749316,175.73342659976333,qh13,158.41400799993426,161.91145979985595,175.73342659976333,None,True,1.0,['r'],False,0.4,0.4,0.0,0.0,1.0,0.6126016192893442,0.0636288888888888,succ_gain,1.0,2.0,172.95206459984183,None,qh13,1,2023-02-28_10h21.05.610,threat_forest,2021.2.3,60.06507456375704,True,7.0,0.45,0.4472222222222222,-1.0666666666666669,-1.162962962962963,1,0,1,0.391505660056108,0.0636288888888888,1.0,0.4,0.4,1.0,-0.7999999999999999,-0.7999999999999999,0.2,0.2,0.0,1.0,-1.0,1.0,1,0,1,0.5438726256478913,0.24807519271876,0.24639306379354498,0.6378834017347269,0.2309881675260599,0.1966441791961997,0.5448274773504098,0.24799049727439845,0.21208579542869943,0.5026601219348875,0.24999292375129153,0.13072003473611704,0.6051838399958309,0.23893635980373149,0.21910636294755947,0.726736200701073,0.19859069529164272,0.15761052731628533,0.6288668125127856,0.23339334463279462,0.218081296481828,0.9423001061069406,0.054370616137789145,0.24100719461412842,0.9940645965997141,0.005900174386761712,0.0993518722361642,0.7235940839136916,0.20000568563879703,0.26634882699125917
4.0,0.0,4.0,0.0,3.0,0.0,3.0,0.0,,,,right,2.725699200294912,180.27118429960683,qh13,180.27118429960683,None,177.23181159980595,179.24621669994667,False,2.0,['r'],True,0.3333333333333333,0.5,0.3333333333333333,2.0,1.0,1.0,0.0040555555555554,wait_cost,0.0,1.0,179.24621669994667,None,qh13,1,2023-02-28_10h21.05.610,threat_forest,2021.2.3,60.06507456375704,False,7.0,0.45,0.4472222222222222,-1.0666666666666669,-1.162962962962963,0,0,0,1.002724982466513,0.0040555555555554,0.3333333333333333,0.3333333333333333,0.5,0.6666666666666667,-1.5,-1.3333333333333337,0.6666666666666665,0.6666666666666665,1.0,1.0,1.0,2.0,0,0,0,0.5027435870702215,0.24999247272998815,0.19019432390584168,0.43603625867143286,0.24590863979525213,0.22932002952328545,0.42622504528412813,0.24455725605667106,0.2400899173052402,0.5713449171980173,0.2449099027900081,0.16917735280645152,0.3849825575613242,0.23677098793486587,0.21892967305840877,0.3277712648920279,0.220337262803108,0.2747187546514067,0.524063086176821,0.24942096788364687,0.21877813962002945,0.44999341551954053,0.24749934150859873,0.21342004138573145,0.5178169530424525,0.24968255618428306,0.2840929831657979,0.4702199077178295,0.24911314610366542,0.33606991329228364
4.0,0.0,4.0,0.0,4.0,0.0,4.0,0.0,,,,right,2.025931300129741,188.37495039962232,qh13,183.0154321999289,185.0241731000133,188.37495039962232,None,True,1.0,['r'],False,0.4,0.4,0.0,0.0,1.0,0.6126016192893442,0.1533333333333333,succ_gain,1.0,2.0,185.0241731000133,None,qh13,1,2023-02-28_10h21.05.610,threat_forest,2021.2.3,60.06507456375704,True,7.0,0.45,0.4472222222222222,-1.0666666666666669,-1.162962962962963,1,0,1,0.706029496134951,0.1533333333333333,1.0,0.4,0.4,1.0,-0.7999999999999999,-0.7999999999999999,0.2,0.2,0.0,1.0,-1.0,1.0,1,0,1,0.5438726256478913,0.24807519271876,0.24639306379354498,0.6378834017347269,0.2309881675260599,0.1966441791961997,0.5448274773504098,0.24799049727439845,0.21208579542869943,0.5026601219348875,0.24999292375129153,0.13072003473611704,0.6051838399958309,0.23893635980373149,0.21910636294755947,0.726736200701073,0.19859069529164272,0.15761052731628533,0.6288668125127856,0.23339334463279462,0.218081296481828,0.9423001061069406,0.054370616137789145,0.24100719461412842,0.9940645965997141,0.005900174386761712,0.0993518722361642,0.9302831053248893,0.06485644927197017,0.07446858144302619
4.0,0.0,4.0,0.0,5.0,0.0,5.0,0.0,,,,right,2.232770400121808,193.39521199977025,qh13,193.39521199977025,None,190.4194534998387,192.4339752998203,False,2.0,['r'],True,0.3333333333333333,0.5,0.3333333333333333,2.0,1.0,1.0,-0.0333333333333334,wait_cost,0.0,1.0,192.4339752998203,None,qh13,1,2023-02-28_10h21.05.610,threat_forest,2021.2.3,60.06507456375704,False,7.0,0.45,0.4472222222222222,-1.0666666666666669,-1.162962962962963,0,0,0,0.8032431463094871,-0.0333333333333334,0.3333333333333333,0.3333333333333333,0.5,0.6666666666666667,-1.5,-1.3333333333333337,0.6666666666666665,0.6666666666666665,1.0,1.0,1.0,2.0,0,0,0,0.5027435870702215,0.24999247272998815,0.19019432390584168,0.43603625867143286,0.24590863979525213,0.22932002952328545,0.42622504528412813,0.24455725605667106,0.2400899173052402,0.5713449171980173,0.2449099027900081,0.16917735280645152,0.3849825575613242,0.23677098793486587,0.21892967305840877,0.3277712648920279,0.220337262803108,0.2747187546514067,0.524063086176821,0.24942096788364687,0.21877813962002945,0.44999341551954053,0.24749934150859873,0.21342004138573145,0.5178169530424525,0.24968255618428306,0.2840929831657979,0.3104322396643569,0.21406406424132818,0.2863084302474846
4.0,0.0,4.0,0.0,6.0,0.0,6.0,0.0,,,,left,2.011237099766732,199.63728589983657,qh13,199.63728589983657,None,190.4194534998387,192.4339752998203,True,1.0,['r'],True,0.3333333333333333,0.5,0.3333333333333333,2.0,1.0,1.0,0.3333333333333332,unsucc_cost,0.0,0.0,197.6624171999283,None,qh13,1,2023-02-28_10h21.05.610,threat_forest,2021.2.3,60.06507456375704,True,7.0,0.45,0.4472222222222222,-1.0666666666666669,-1.162962962962963,0,0,1,0.6987500052662137,0.3333333333333332,1.0,0.3333333333333333,0.5,0.6666666666666667,-1.5,-1.3333333333333337,-0.3333333333333335,0.0,1.0,1.0,-1.0,1.0,1,0,0,0.5027435870702215,0.24999247272998815,0.19019432390584168,0.43603625867143286,0.24590863979525213,0.22932002952328545,0.5448274773504098,0.24799049727439845,0.21208579542869943,0.5713449171980173,0.2449099027900081,0.16917735280645152,0.3849825575613242,0.23677098793486587,0.21892967305840877,0.3277712648920279,0.220337262803108,0.2747187546514067,0.524063086176821,0.24942096788364687,0.21877813962002945,0.9423001061069406,0.054370616137789145,0.24100719461412842,0.9940645965997141,0.005900174386761712,0.0993518722361642,0.997154454686911,0.0028374481849601295,-0.013583866925469288
5.0,0.0,5.0,0.0,0.0,0.0,0.0,0.0,205.15173809975383,208.6550317998044,None,right,1.4397460999898612,210.79335169959813,qh13,205.15173809975383,208.65503179980442,210.79335169959813,None,True,4.0,['r'],False,0.6,0.6,0.0,0.0,2.0,0.6126016192893442,0.0913331728581944,unsucc_cost,1.0,2.0,,,qh13,1,2023-02-28_10h21.05.610,threat_forest,2021.2.3,60.06507456375704,True,62.0,0.6125,0.53125,0.0124999999999999,-0.5270833333333333,1,1,1,0.3644667785903221,0.0913331728581944,0.6,0.6,0.6,1.0,0.3999999999999999,0.3999999999999999,4.4,4.4,0.0,2.0,-1.0,4.0,0,1,1,0.5438726256478913,0.24807519271876,0.24639306379354498,0.6378834017347269,0.2309881675260599,0.1966441791961997,0.5448274773504098,0.24799049727439845,0.21208579542869943,0.6373868938334286,0.23112484140280223,0.27347290744311903,0.8767887487781199,0.10803023879421893,0.2084246928183379,0.726736200701073,0.19859069529164272,0.15761052731628533,0.8606205590388356,0.11995281239851771,0.21314917053625634,0.44999341551954053,0.24749934150859873,0.21342004138573145,0.8900376448554786,0.09787063559559149,0.16904815238220855,0.8123515402069041,0.15243651533037472,0.19881175223834402
5.0,0.0,5.0,0.0,1.0,0.0,1.0,0.0,,,,right,2.750104600097984,214.9750827997923,qh13,214.9750827997923,None,212.26542499987409,214.27993429964408,False,2.0,['r'],True,0.46875,0.625,0.25,2.0,2.0,0.9634951148421658,-0.0137064703989028,wait_cost,0.0,1.0,214.27993429964408,None,qh13,1,2023-02-28_10h21.05.610,threat_forest,2021.2.3,60.06507456375704,False,62.0,0.6125,0.53125,0.0124999999999999,-0.5270833333333333,1,0,0,1.0116389473543814,-0.0137064703989028,0.46875,0.46875,0.625,0.75,-0.25,-0.375,1.625,1.625,1.0,2.0,-1.0,2.0,0,0,1,0.5027435870702215,0.24999247272998815,0.19019432390584168,0.48715255222437076,0.24983494308565246,0.2379186379547874,0.5448274773504098,0.24799049727439845,0.21208579542869943,0.653218180411687,0.22652418919133174,0.30828070122857576,0.755980966985865,0.1844737445409815,0.21466232560136747,0.726736200701073,0.19859069529164272,0.15761052731628533,0.7254900746684836,0.1991542262260017,0.21659266062194954,0.44999341551954053,0.24749934150859873,0.21342004138573145,0.74969602455611,0.18765189532087453,0.23708543030201684,0.3913237476010621,0.23818947216452235,0.3205608560894559
5.0,0.0,5.0,0.0,2.0,0.0,2.0,0.0,,,,left,1.7923169997520745,223.16019179997969,qh13,223.16019179997969,None,212.26542499987409,214.27993429964408,True,1.0,['r'],True,0.46875,0.625,0.25,2.0,2.0,0.9634951148421658,0.3116130710095167,unsucc_cost,0.0,0.0,219.7581603997387,None,qh13,1,2023-02-28_10h21.05.610,threat_forest,2021.2.3,60.06507456375704,True,62.0,0.6125,0.53125,0.0124999999999999,-0.5270833333333333,1,0,1,0.5835091960913542,0.3116130710095167,1.0,0.46875,0.625,0.75,-0.25,-0.375,0.625,0.625,1.0,2.0,-1.0,1.0,1,0,1,0.5027435870702215,0.24999247272998815,0.19019432390584168,0.48715255222437076,0.24983494308565246,0.2379186379547874,0.5448274773504098,0.24799049727439845,0.21208579542869943,0.653218180411687,0.22652418919133174,0.30828070122857576,0.755980966985865,0.1844737445409815,0.21466232560136747,0.726736200701073,0.19859069529164272,0.15761052731628533,0.7254900746684836,0.1991542262260017,0.21659266062194954,0.9423001061069406,0.054370616137789145,0.24100719461412842,0.9940645965997141,0.005900174386761712,0.0993518722361642,0.995784635302754,0.004197595397715113,-0.011652776612411247
6.0,0.0,6.0,0.0,0.0,0.0,0.0,0.0,229.65299709979445,233.14729660004377,None,left,1.948574900161475,233.8580669998192,qh13,233.8580669998192,None,229.65299709979445,233.14729660004377,True,4.0,['r'],True,0.3061224489795918,0.4285714285714285,0.2857142857142857,2.0,2.0,0.9885754083994552,-0.0033191472701769,figh_cost,0.0,1.0,,,qh13,1,2023-02-28_10h21.05.610,threat_forest,2021.2.3,60.06507456375704,True,33.0,0.4142857142857142,0.5133928571428572,-0.7306122448979593,-0.3590561224489796,0,0,1,0.6670982849662107,-0.0033191472701769,0.3061224489795918,0.3061224489795918,0.4285714285714285,0.7142857142857143,-1.1428571428571432,-1.0612244897959189,2.9387755102040813,2.9387755102040813,1.0,2.0,-1.0,4.0,0,0,0,0.5027435870702215,0.24999247272998815,0.19019432390584168,0.4651495272625901,0.248785444549979,0.2356202350321821,0.5448274773504098,0.24799049727439845,0.21208579542869943,0.5224094030401575,0.2494978186553838,0.13446592016460435,0.49711706561590746,0.24999168868933708,0.22000845503779498,0.3277712648920279,0.220337262803108,0.2747187546514067,0.4801093621534004,0.24960436252605542,0.21878611318517666,0.44999341551954053,0.24749934150859873,0.21342004138573145,0.46634922923933253,0.24886762562721296,0.28347541935608556,0.43704644904574885,0.24603685042225049,0.3317022943060638
6.0,0.0,6.0,0.0,1.0,0.0,1.0,0.0,,,,right,1.807616800069809,239.34604940004647,qh13,235.82668579975143,237.84111379971728,239.34604940004647,None,True,1.0,['r'],False,0.4,0.4,0.0,0.0,2.0,0.6126016192893442,0.133064422601925,unsucc_cost,1.0,0.0,237.84111379971728,None,qh13,1,2023-02-28_10h21.05.610,threat_forest,2021.2.3,60.06507456375704,True,33.0,0.4142857142857142,0.5133928571428572,-0.7306122448979593,-0.3590561224489796,0,0,1,0.5920092926420303,0.133064422601925,1.0,0.4,0.4,1.0,-0.3999999999999999,-0.3999999999999999,0.6000000000000001,0.6000000000000001,0.0,2.0,-1.0,1.0,1,0,0,0.5438726256478913,0.24807519271876,0.24639306379354498,0.6378834017347269,0.2309881675260599,0.1966441791961997,0.5448274773504098,0.24799049727439845,0.21208579542869943,0.5026601219348875,0.24999292375129153,0.13072003473611704,0.7188699849825635,0.20209592967373247,0.21610025964977184,0.3277712648920279,0.220337262803108,0.2747187546514067,0.6288668125127856,0.23339334463279462,0.218081296481828,0.9423001061069406,0.054370616137789145,0.24100719461412842,0.9940645965997141,0.005900174386761712,0.0993518722361642,0.9022996167202227,0.08815501838676183,0.10754708993370399
7.0,0.0,7.0,0.0,0.0,0.0,0.0,0.0,245.8205564999953,249.31592019973323,None,left,1.5372533001936972,251.9072925997898,qh13,251.9072925997898,None,245.8205564999953,249.31592019973323,True,4.0,['r'],True,0.6,0.6,0.0,0.0,1.0,0.6126016192893442,0.106823090374617,succ_gain,0.0,5.0,,,qh13,1,2023-02-28_10h21.05.610,threat_forest,2021.2.3,60.06507456375704,True,38.0,0.6125,0.5133928571428572,-0.5218750000000001,-0.6262436224489797,1,1,1,0.4299972526656588,0.106823090374617,0.6,0.6,0.6,1.0,-0.2,-0.2,3.8,3.8,1.0,1.0,-1.0,4.0,0,1,1,0.5027435870702215,0.24999247272998815,0.19019432390584168,0.6378834017347269,0.2309881675260599,0.1966441791961997,0.5448274773504098,0.24799049727439845,0.21208579542869943,0.6373868938334286,0.23112484140280223,0.27347290744311903,0.7675875369485355,0.17839691006981614,0.21416646841187703,0.726736200701073,0.19859069529164272,0.15761052731628533,0.8606205590388356,0.11995281239851771,0.21314917053625634,0.44999341551954053,0.24749934150859873,0.21342004138573145,0.8900376448554786,0.09787063559559149,0.16904815238220855,0.8515234399200096,0.12643127118680347,0.1618903994734164
7.0,0.0,7.0,0.0,1.0,0.0,1.0,0.0,,,,left,2.4539502998813987,257.41863540001214,qh13,253.4771044999361,255.49152299994603,257.41863540001214,None,False,5.0,['r'],False,0.46875,0.625,0.25,2.0,1.0,0.9634951148421658,0.0131611684406362,wait_cost,1.0,4.0,255.49152299994603,None,qh13,1,2023-02-28_10h21.05.610,threat_forest,2021.2.3,60.06507456375704,False,38.0,0.6125,0.5133928571428572,-0.5218750000000001,-0.6262436224489797,0,0,0,0.8976990933865645,0.0131611684406362,0.46875,0.46875,0.625,0.75,-0.875,-0.84375,4.15625,4.15625,0.0,1.0,1.0,5.0,0,0,0,0.5438726256478913,0.24807519271876,0.24639306379354498,0.48715255222437076,0.24983494308565246,0.2379186379547874,0.42622504528412813,0.24455725605667106,0.2400899173052402,0.653218180411687,0.22652418919133174,0.30828070122857576,0.5820412763357975,0.24326922897719327,0.2194599161570433,0.3277712648920279,0.220337262803108,0.2747187546514067,0.7254900746684836,0.1991542262260017,0.21659266062194954,0.44999341551954053,0.24749934150859873,0.21342004138573145,0.74969602455611,0.18765189532087453,0.23708543030201684,0.5115132719449187,0.2498674445691223,0.3371408403552799
7.0,0.0,7.0,0.0,2.0,0.0,2.0,0.0,,,,left,2.34292870014906,265.36974459979683,qh13,253.4771044999361,255.49152299994603,265.36974459979683,None,False,4.0,['r'],False,0.46875,0.625,0.25,2.0,1.0,0.9634951148421658,0.014409303832054,wait_cost,1.0,3.0,261.919137599878,None,qh13,1,2023-02-28_10h21.05.610,threat_forest,2021.2.3,60.06507456375704,False,38.0,0.6125,0.5133928571428572,-0.5218750000000001,-0.6262436224489797,0,0,0,0.8514017280549692,0.014409303832054,0.46875,0.46875,0.625,0.75,-0.875,-0.84375,3.15625,3.15625,0.0,1.0,-1.0,4.0,0,0,0,0.5438726256478913,0.24807519271876,0.24639306379354498,0.48715255222437076,0.24983494308565246,0.2379186379547874,0.5448274773504098,0.24799049727439845,0.21208579542869943,0.653218180411687,0.22652418919133174,0.30828070122857576,0.5820412763357975,0.24326922897719327,0.2194599161570433,0.3277712648920279,0.220337262803108,0.2747187546514067,0.7254900746684836,0.1991542262260017,0.21659266062194954,0.44999341551954053,0.24749934150859873,0.21342004138573145,0.74969602455611,0.18765189532087453,0.23708543030201684,0.5171738782614488,0.2497050579054609,0.33691028934563505
7.0,0.0,7.0,0.0,3.0,0.0,3.0,0.0,,,,left,1.2232825001701713,270.3848321996629,qh13,270.3848321996629,None,267.7304075998254,269.74465399980545,True,3.0,['r'],True,0.6,0.6,0.0,0.0,1.0,0.6126016192893442,0.2013934020996093,succ_gain,0.0,4.0,269.74465399980545,None,qh13,1,2023-02-28_10h21.05.610,threat_forest,2021.2.3,60.06507456375704,True,38.0,0.6125,0.5133928571428572,-0.5218750000000001,-0.6262436224489797,1,1,1,0.2015378195406092,0.2013934020996093,0.6,0.6,0.6,1.0,-0.2,-0.2,2.8,2.8,1.0,1.0,-1.0,3.0,0,1,1,0.5027435870702215,0.24999247272998815,0.19019432390584168,0.6378834017347269,0.2309881675260599,0.1966441791961997,0.5448274773504098,0.24799049727439845,0.21208579542869943,0.6373868938334286,0.23112484140280223,0.27347290744311903,0.7675875369485355,0.17839691006981614,0.21416646841187703,0.726736200701073,0.19859069529164272,0.15761052731628533,0.8606205590388356,0.11995281239851771,0.21314917053625634,0.44999341551954053,0.24749934150859873,0.21342004138573145,0.8900376448554786,0.09787063559559149,0.16904815238220855,0.9696350703608054,0.02944290068720133,0.02418964105940422
7.0,0.0,7.0,0.0,4.0,0.0,4.0,0.0,,,,left,1.5724574998021126,276.1698100999929,qh13,271.62655469961464,273.64104350004345,276.1698100999929,None,False,4.0,['r'],False,0.46875,0.625,0.25,2.0,1.0,0.9634951148421658,-0.012352294921875,wait_cost,1.0,3.0,273.64104350004345,None,qh13,1,2023-02-28_10h21.05.610,threat_forest,2021.2.3,60.06507456375704,False,38.0,0.6125,0.5133928571428572,-0.5218750000000001,-0.6262436224489797,0,0,0,0.4526396820743489,-0.012352294921875,0.46875,0.46875,0.625,0.75,-0.875,-0.84375,3.15625,3.15625,0.0,1.0,1.0,4.0,0,0,0,0.5438726256478913,0.24807519271876,0.24639306379354498,0.48715255222437076,0.24983494308565246,0.2379186379547874,0.42622504528412813,0.24455725605667106,0.2400899173052402,0.653218180411687,0.22652418919133174,0.30828070122857576,0.5820412763357975,0.24326922897719327,0.2194599161570433,0.3277712648920279,0.220337262803108,0.2747187546514067,0.7254900746684836,0.1991542262260017,0.21659266062194954,0.44999341551954053,0.24749934150859873,0.21342004138573145,0.74969602455611,0.18765189532087453,0.23708543030201684,0.3971954090106395,0.2394312160715103,0.32232384145427256
7.0,0.0,7.0,0.0,5.0,0.0,5.0,0.0,,,,left,1.2369438000023365,283.5223967996426,qh13,283.5223967996426,None,277.7710108999163,279.78539289999753,True,3.0,['r'],True,0.6,0.6,0.0,0.0,1.0,0.6126016192893442,0.2465625,succ_gain,0.0,4.0,279.78539289999753,None,qh13,1,2023-02-28_10h21.05.610,threat_forest,2021.2.3,60.06507456375704,True,38.0,0.6125,0.5133928571428572,-0.5218750000000001,-0.6262436224489797,1,1,1,0.2126436598821736,0.2465625,0.6,0.6,0.6,1.0,-0.2,-0.2,2.8,2.8,1.0,1.0,-1.0,3.0,0,1,1,0.5027435870702215,0.24999247272998815,0.19019432390584168,0.6378834017347269,0.2309881675260599,0.1966441791961997,0.5448274773504098,0.24799049727439845,0.21208579542869943,0.6373868938334286,0.23112484140280223,0.27347290744311903,0.7675875369485355,0.17839691006981614,0.21416646841187703,0.726736200701073,0.19859069529164272,0.15761052731628533,0.8606205590388356,0.11995281239851771,0.21314917053625634,0.44999341551954053,0.24749934150859873,0.21342004138573145,0.8900376448554786,0.09787063559559149,0.16904815238220855,0.9863964532493947,0.013418490266409244,0.0014387333298066553
7.0,0.0,7.0,0.0,6.0,0.0,6.0,0.0,,,,left,1.1996696996502578,289.1956125996076,qh13,289.1956125996076,None,277.7710108999163,279.78539289999753,True,4.0,['r'],True,0.6,0.6,0.0,0.0,1.0,0.6126016192893442,0.0,succ_gain,0.0,5.0,286.7954037999734,None,qh13,1,2023-02-28_10h21.05.610,threat_forest,2021.2.3,60.06507456375704,True,38.0,0.6125,0.5133928571428572,-0.5218750000000001,-0.6262436224489797,1,1,1,0.1820462686141886,0.0,0.0,0.6,0.6,1.0,-0.2,-0.2,3.8,3.8,1.0,1.0,1.0,4.0,0,1,1,0.5027435870702215,0.24999247272998815,0.19019432390584168,0.6378834017347269,0.2309881675260599,0.1966441791961997,0.42622504528412813,0.24455725605667106,0.2400899173052402,0.6373868938334286,0.23112484140280223,0.27347290744311903,0.7675875369485355,0.17839691006981614,0.21416646841187703,0.726736200701073,0.19859069529164272,0.15761052731628533,0.8606205590388356,0.11995281239851771,0.21314917053625634,0.44999341551954053,0.24749934150859873,0.21342004138573145,0.07918395459333533,0.07291385592829595,0.1501356158528393,0.4519252856190518,0.24768882183719027,0.3340477066018236
7.0,0.0,7.0,0.0,7.0,0.0,7.0,0.0,,,,left,1.055250800214708,295.21003929991275,qh13,295.21003929991275,None,277.7710108999163,279.78539289999753,True,5.0,['r'],True,0.6,0.6,0.0,0.0,1.0,0.6126016192893442,0.0,succ_gain,0.0,6.0,292.4400760000572,None,qh13,1,2023-02-28_10h21.05.610,threat_forest,2021.2.3,60.06507456375704,True,38.0,0.6125,0.5133928571428572,-0.5218750000000001,-0.6262436224489797,1,1,1,0.053778463997841,0.0,0.0,0.6,0.6,1.0,-0.2,-0.2,4.8,4.8,1.0,1.0,1.0,5.0,0,1,1,0.5027435870702215,0.24999247272998815,0.19019432390584168,0.6378834017347269,0.2309881675260599,0.1966441791961997,0.42622504528412813,0.24455725605667106,0.2400899173052402,0.6373868938334286,0.23112484140280223,0.27347290744311903,0.7675875369485355,0.17839691006981614,0.21416646841187703,0.726736200701073,0.19859069529164272,0.15761052731628533,0.8606205590388356,0.11995281239851771,0.21314917053625634,0.44999341551954053,0.24749934150859873,0.21342004138573145,0.07918395459333533,0.07291385592829595,0.1501356158528393,0.4519252856190518,0.24768882183719027,0.3340477066018236
8.0,0.0,8.0,0.0,0.0,0.0,0.0,0.0,301.53711819974706,305.0450919000432,None,left,1.2820913000032306,308.4190152999945,qh13,308.4190152999945,None,301.53711819974706,305.0450919000432,True,4.0,['r'],True,0.25,0.25,0.0,0.0,2.0,0.5118595071429148,0.0217710183950354,unsucc_cost,0.0,2.0,,,qh13,1,2023-02-28_10h21.05.610,threat_forest,2021.2.3,60.06507456375704,True,17.0,0.2678571428571428,0.4401785714285714,-1.2346938775510203,-0.8782844387755102,0,0,1,0.2484925728138726,0.0217710183950354,0.25,0.25,0.25,1.0,-1.0,-1.0,3.0,3.0,1.0,2.0,1.0,4.0,0,0,0,0.5027435870702215,0.24999247272998815,0.19019432390584168,0.6378834017347269,0.2309881675260599,0.1966441791961997,0.42622504528412813,0.24455725605667106,0.2400899173052402,0.4002534281980447,0.24005062141375733,0.2059418932053847,0.5427048092830715,0.2481762992640965,0.2198603229959397,0.3277712648920279,0.220337262803108,0.2747187546514067,0.3911542635301388,0.23815260565233354,0.21828821789072742,0.44999341551954053,0.24749934150859873,0.21342004138573145,0.3635710262652779,0.2313871351256905,0.2702285013014068,0.5504237208998883,0.2474574483706102,0.3337192104980038
8.0,0.0,8.0,0.0,1.0,0.0,1.0,0.0,,,,right,2.380381300114095,315.23574330005795,qh13,315.23574330005795,None,301.53711819974706,305.0450919000432,False,2.0,['r'],True,0.25,0.25,0.0,0.0,2.0,0.5118595071429148,0.0114206737974505,wait_cost,0.0,1.0,311.7386457999237,None,qh13,1,2023-02-28_10h21.05.610,threat_forest,2021.2.3,60.06507456375704,False,17.0,0.2678571428571428,0.4401785714285714,-1.2346938775510203,-0.8782844387755102,0,0,0,0.8672606849830835,0.0114206737974505,0.25,0.25,0.25,1.0,-1.0,-1.0,1.0,1.0,1.0,2.0,-1.0,2.0,0,0,0,0.5027435870702215,0.24999247272998815,0.19019432390584168,0.6378834017347269,0.2309881675260599,0.1966441791961997,0.5448274773504098,0.24799049727439845,0.21208579542869943,0.4002534281980447,0.24005062141375733,0.2059418932053847,0.5427048092830715,0.2481762992640965,0.2198603229959397,0.3277712648920279,0.220337262803108,0.2747187546514067,0.3911542635301388,0.23815260565233354,0.21828821789072742,0.44999341551954053,0.24749934150859873,0.21342004138573145,0.3635710262652779,0.2313871351256905,0.2702285013014068,0.5036150796151769,0.24998693119937593,0.33731048337043223
8.0,0.0,8.0,0.0,2.0,0.0,2.0,0.0,,,,right,1.242821500170976,322.3729610997252,qh13,317.6336286999285,319.64800519961864,322.3729610997252,None,True,1.0,['r'],False,0.2040816326530612,0.2857142857142857,0.2857142857142857,2.0,2.0,0.9335459102197724,0.0571401765820203,unsucc_cost,1.0,0.0,319.64800519961864,None,qh13,1,2023-02-28_10h21.05.610,threat_forest,2021.2.3,60.06507456375704,True,17.0,0.2678571428571428,0.4401785714285714,-1.2346938775510203,-0.8782844387755102,0,0,1,0.2173841981706496,0.0571401765820203,1.0,0.2040816326530612,0.2857142857142857,0.7142857142857143,-1.7142857142857144,-1.469387755102041,-0.4693877551020406,0.0,0.0,2.0,-1.0,1.0,1,0,0,0.5438726256478913,0.24807519271876,0.24639306379354498,0.4651495272625901,0.248785444549979,0.2356202350321821,0.5448274773504098,0.24799049727439845,0.21208579542869943,0.42419205243456654,0.2442531550859165,0.1741462001790257,0.32243475561608953,0.21847058398688216,0.21743639775014675,0.3277712648920279,0.220337262803108,0.2747187546514067,0.32314695002650845,0.2187229987150737,0.21744346455080468,0.9423001061069406,0.054370616137789145,0.24100719461412842,0.9940645965997141,0.005900174386761712,0.0993518722361642,0.6994226600303662,0.21023060266641297,0.2808658131223834
9.0,0.0,9.0,0.0,0.0,0.0,0.0,0.0,326.54128269990906,330.04281539982185,None,right,2.0672048004344106,333.3434416996315,qh13,326.54128269990906,330.04281539982185,333.3434416996315,None,True,5.0,['p'],False,0.4444444444444445,0.6666666666666666,0.3333333333333333,1.0,2.0,0.9656336071428248,0.0381387997233528,succ_gain,1.0,6.0,,,qh13,1,2023-02-28_10h21.05.610,threat_forest,2021.2.3,60.06507456375704,True,41.0,0.4333333333333333,0.350595238095238,-0.9677777777777778,-1.1012358276643992,1,1,1,0.726197356795018,0.0381387997233528,0.4444444444444445,0.4444444444444445,0.6666666666666666,0.6666666666666667,-0.3333333333333335,-0.5555555555555556,4.444444444444445,4.444444444444445,0.0,2.0,-1.0,5.0,0,1,1,0.5438726256478913,0.24807519271876,0.24639306379354498,0.43603625867143286,0.24590863979525213,0.22932002952328545,0.5448274773504098,0.24799049727439845,0.21208579542869943,0.6788532950127758,0.21801149886307303,0.3726863454471754,0.7357811788224289,0.1944072357131058,0.2154728780424138,0.726736200701073,0.19859069529164272,0.15761052731628533,0.6931129027520179,0.21270740679068975,0.21718192084659363,0.44999341551954053,0.24749934150859873,0.21342004138573145,0.7135917676305306,0.2043785568004654,0.24976108799761718,0.6223555780446973,0.235029112521348,0.3160738859766017
9.0,0.0,9.0,0.0,1.0,0.0,1.0,0.0,,,,right,2.209077099803835,338.42826689966023,qh13,338.42826689966023,None,335.433566799853,337.44815699988976,False,6.0,['p'],True,0.18,0.2,0.1,1.0,2.0,0.7058405977926203,-0.0717833742024759,wait_cost,0.0,5.0,337.44815699988976,None,qh13,1,2023-02-28_10h21.05.610,threat_forest,2021.2.3,60.06507456375704,False,41.0,0.4333333333333333,0.350595238095238,-0.9677777777777778,-1.1012358276643992,0,0,0,0.7925748264109884,-0.0717833742024759,0.18,0.18,0.2,0.9,-1.5000000000000002,-1.38,4.62,4.62,1.0,2.0,1.0,6.0,0,0,0,0.5027435870702215,0.24999247272998815,0.19019432390584168,0.57911784509659,0.24374036658727205,0.22457150886429278,0.42622504528412813,0.24455725605667106,0.2400899173052402,0.3675459509168998,0.2324559248814917,0.26340214418874064,0.38498255756132416,0.2367709879348659,0.2189296730584088,0.3277712648920279,0.220337262803108,0.2747187546514067,0.29006956056582484,0.20592921059897412,0.21688722091313165,0.44999341551954053,0.24749934150859873,0.21342004138573145,0.25159889929612683,0.18829689316910422,0.23757421713784382,0.18299243620635977,0.14950620449762111,0.1946513975279757
9.0,0.0,9.0,0.0,2.0,0.0,2.0,0.0,,,,right,1.6705706003122032,344.8467469997704,qh13,344.8467469997704,None,335.433566799853,337.44815699988976,False,5.0,['p'],True,0.18,0.2,0.1,1.0,2.0,0.7058405977926203,-0.0142855576771834,wait_cost,0.0,4.0,342.6767189996317,None,qh13,1,2023-02-28_10h21.05.610,threat_forest,2021.2.3,60.06507456375704,False,41.0,0.4333333333333333,0.350595238095238,-0.9677777777777778,-1.1012358276643992,0,0,0,0.5131652449040818,-0.0142855576771834,0.18,0.18,0.2,0.9,-1.5000000000000002,-1.38,3.62,3.62,1.0,2.0,-1.0,5.0,0,0,0,0.5027435870702215,0.24999247272998815,0.19019432390584168,0.57911784509659,0.24374036658727205,0.22457150886429278,0.5448274773504098,0.24799049727439845,0.21208579542869943,0.3675459509168998,0.2324559248814917,0.26340214418874064,0.38498255756132416,0.2367709879348659,0.2189296730584088,0.3277712648920279,0.220337262803108,0.2747187546514067,0.29006956056582484,0.20592921059897412,0.21688722091313165,0.44999341551954053,0.24749934150859873,0.21342004138573145,0.25159889929612683,0.18829689316910422,0.23757421713784382,0.3888223075843149,0.2376395207091233,0.3197800538952418
9.0,0.0,9.0,0.0,3.0,0.0,3.0,0.0,,,,right,1.1508097001351416,351.42584449984133,qh13,346.54012639960274,348.55454989988357,351.42584449984133,None,True,4.0,['p'],False,0.4444444444444445,0.6666666666666666,0.3333333333333333,1.0,2.0,0.9656336071428248,0.1170075738454504,unsucc_cost,1.0,2.0,348.5545498998836,None,qh13,1,2023-02-28_10h21.05.610,threat_forest,2021.2.3,60.06507456375704,True,41.0,0.4333333333333333,0.350595238095238,-0.9677777777777778,-1.1012358276643992,1,1,1,0.1404657816961772,0.1170075738454504,0.4444444444444445,0.4444444444444445,0.6666666666666666,0.6666666666666667,-0.3333333333333335,-0.5555555555555556,3.4444444444444446,3.4444444444444446,0.0,2.0,-1.0,4.0,0,1,1,0.5438726256478913,0.24807519271876,0.24639306379354498,0.43603625867143286,0.24590863979525213,0.22932002952328545,0.5448274773504098,0.24799049727439845,0.21208579542869943,0.6788532950127758,0.21801149886307303,0.3726863454471754,0.7357811788224289,0.1944072357131058,0.2154728780424138,0.726736200701073,0.19859069529164272,0.15761052731628533,0.6931129027520179,0.21270740679068975,0.21718192084659363,0.44999341551954053,0.24749934150859873,0.21342004138573145,0.7135917676305306,0.2043785568004654,0.24976108799761718,0.8734165488119249,0.11056008107339134,0.13935702867553515
9.0,0.0,9.0,0.0,4.0,0.0,4.0,0.0,,,,right,2.2936375001445413,355.5843916996382,qh13,346.54012639960274,348.55454989988357,355.5843916996382,None,True,2.0,['p'],False,0.4444444444444445,0.6666666666666666,0.3333333333333333,1.0,2.0,0.9656336071428248,0.1322222222222222,unsucc_cost,1.0,0.0,354.6154238996096,None,qh13,1,2023-02-28_10h21.05.610,threat_forest,2021.2.3,60.06507456375704,True,41.0,0.4333333333333333,0.350595238095238,-0.9677777777777778,-1.1012358276643992,1,1,1,0.8301389853594257,0.1322222222222222,0.4444444444444445,0.4444444444444445,0.6666666666666666,0.6666666666666667,-0.3333333333333335,-0.5555555555555556,1.4444444444444444,1.4444444444444444,0.0,2.0,-1.0,2.0,0,1,1,0.5438726256478913,0.24807519271876,0.24639306379354498,0.43603625867143286,0.24590863979525213,0.22932002952328545,0.5448274773504098,0.24799049727439845,0.21208579542869943,0.6788532950127758,0.21801149886307303,0.3726863454471754,0.7357811788224289,0.1944072357131058,0.2154728780424138,0.726736200701073,0.19859069529164272,0.15761052731628533,0.6931129027520179,0.21270740679068975,0.21718192084659363,0.44999341551954053,0.24749934150859873,0.21342004138573145,0.7135917676305306,0.2043785568004654,0.24976108799761718,0.9009433120029655,0.08924446056009261,0.10909384252623747
10.0,0.0,10.0,0.0,0.0,0.0,0.0,0.0,363.5842017997056,367.07877129968256,None,left,1.6395525000989437,368.99579569976777,qh13,363.5842017997056,367.07877129968256,368.99579569976777,None,False,4.0,['r'],False,0.25,0.5,0.5,2.0,1.0,0.9463946303571862,0.0015300455080301,wait_cost,1.0,3.0,,,qh13,1,2023-02-28_10h21.05.610,threat_forest,2021.2.3,60.06507456375704,False,43.0,0.4166666666666666,0.425,-1.375,-1.171388888888889,0,0,0,0.4944233388081359,0.0015300455080301,0.25,0.25,0.5,0.5,-2.0,-1.75,2.25,2.25,0.0,1.0,-1.0,4.0,0,0,0,0.5438726256478913,0.24807519271876,0.24639306379354498,0.3387227050678922,0.22398963413938194,0.18131738354748644,0.5448274773504098,0.24799049727439845,0.21208579542869943,0.5713449171980173,0.2449099027900081,0.16917735280645152,0.2482175083661271,0.18660557690663876,0.2148362787360654,0.3277712648920279,0.220337262803108,0.2747187546514067,0.3911542635301388,0.23815260565233354,0.21828821789072742,0.44999341551954053,0.24749934150859873,0.21342004138573145,0.3635710262652779,0.2313871351256905,0.2702285013014068,0.4588147686175996,0.24830377671597814,0.33492079842472244
10.0,0.0,10.0,0.0,1.0,0.0,1.0,0.0,,,,left,1.6949546998366714,373.83286239998415,qh13,363.5842017997056,367.07877129968256,373.83286239998415,None,False,3.0,['r'],False,0.25,0.5,0.5,2.0,1.0,0.9463946303571862,0.0077793451003086,wait_cost,1.0,2.0,372.6818071999587,None,qh13,1,2023-02-28_10h21.05.610,threat_forest,2021.2.3,60.06507456375704,False,43.0,0.4166666666666666,0.425,-1.375,-1.171388888888889,0,0,0,0.5276560147151982,0.0077793451003086,0.25,0.25,0.5,0.5,-2.0,-1.75,1.25,1.25,0.0,1.0,-1.0,3.0,0,0,0,0.5438726256478913,0.24807519271876,0.24639306379354498,0.3387227050678922,0.22398963413938194,0.18131738354748644,0.5448274773504098,0.24799049727439845,0.21208579542869943,0.5713449171980173,0.2449099027900081,0.16917735280645152,0.2482175083661271,0.18660557690663876,0.2148362787360654,0.3277712648920279,0.220337262803108,0.2747187546514067,0.3911542635301388,0.23815260565233354,0.21828821789072742,0.44999341551954053,0.24749934150859873,0.21342004138573145,0.3635710262652779,0.2313871351256905,0.2702285013014068,0.48708989696978733,0.2498333292397493,0.3370924045819598
10.0,0.0,10.0,0.0,2.0,0.0,2.0,0.0,,,,left,1.4980869004502892,378.463149999734,qh13,363.5842017997056,367.07877129968256,378.463149999734,None,False,2.0,['r'],False,0.25,0.5,0.5,2.0,1.0,0.9463946303571862,0.0095154562114198,wait_cost,1.0,1.0,377.5606967997737,None,qh13,1,2023-02-28_10h21.05.610,threat_forest,2021.2.3,60.06507456375704,False,43.0,0.4166666666666666,0.425,-1.375,-1.171388888888889,0,0,0,0.4041888943939573,0.0095154562114198,0.25,0.25,0.5,0.5,-2.0,-1.75,0.25,0.25,0.0,1.0,-1.0,2.0,0,0,0,0.5438726256478913,0.24807519271876,0.24639306379354498,0.3387227050678922,0.22398963413938194,0.18131738354748644,0.5448274773504098,0.24799049727439845,0.21208579542869943,0.5713449171980173,0.2449099027900081,0.16917735280645152,0.2482175083661271,0.18660557690663876,0.2148362787360654,0.3277712648920279,0.220337262803108,0.2747187546514067,0.3911542635301388,0.23815260565233354,0.21828821789072742,0.44999341551954053,0.24749934150859873,0.21342004138573145,0.3635710262652779,0.2313871351256905,0.2702285013014068,0.4949674646334393,0.24997467358778433,0.3372930804343502
10.0,0.0,10.0,0.0,3.0,0.0,3.0,0.0,,,,right,1.408312600106001,384.8718260996975,qh13,363.5842017997056,367.07877129968256,384.8718260996975,None,True,1.0,['r'],False,0.25,0.5,0.5,2.0,1.0,0.9463946303571862,0.0310149016203703,unsucc_cost,1.0,0.0,382.0065981997177,None,qh13,1,2023-02-28_10h21.05.610,threat_forest,2021.2.3,60.06507456375704,True,43.0,0.4166666666666666,0.425,-1.375,-1.171388888888889,0,0,1,0.3423922502144362,0.0310149016203703,1.0,0.25,0.5,0.5,-2.0,-1.75,-0.75,0.0,0.0,1.0,-1.0,1.0,1,0,0,0.5438726256478913,0.24807519271876,0.24639306379354498,0.3387227050678922,0.22398963413938194,0.18131738354748644,0.5448274773504098,0.24799049727439845,0.21208579542869943,0.5713449171980173,0.2449099027900081,0.16917735280645152,0.2482175083661271,0.18660557690663876,0.2148362787360654,0.3277712648920279,0.220337262803108,0.2747187546514067,0.3911542635301388,0.23815260565233354,0.21828821789072742,0.9423001061069406,0.054370616137789145,0.24100719461412842,0.9940645965997141,0.005900174386761712,0.0993518722361642,0.5915111844697022,0.24162570311695214,0.3254394988153611
11.0,0.0,11.0,0.0,0.0,0.0,0.0,0.0,389.4676695996896,392.9698657998815,None,right,2.5073871999047697,396.5709913000464,qh13,396.5709913000464,None,389.4676695996896,392.9698657998815,False,4.0,['p'],True,0.2448979591836734,0.2857142857142857,0.1428571428571428,1.0,2.0,0.8400769154957735,0.0036753268254111,wait_cost,0.0,3.0,,,qh13,1,2023-02-28_10h21.05.610,threat_forest,2021.2.3,60.06507456375704,False,42.0,0.3928571428571428,0.4047619047619047,-0.9566326530612244,-1.1658163265306123,1,0,0,0.9192412547592508,0.0036753268254111,0.2448979591836734,0.2448979591836734,0.2857142857142857,0.8571428571428572,-1.2857142857142856,-1.163265306122449,2.836734693877551,2.836734693877551,1.0,2.0,-1.0,4.0,0,0,1,0.5027435870702215,0.24999247272998815,0.19019432390584168,0.5531189134596882,0.2471783810328622,0.23210076420015924,0.5448274773504098,0.24799049727439845,0.21208579542869943,0.42419205243456654,0.2442531550859165,0.1741462001790257,0.4515772046872981,0.24765523289410424,0.2198178050522655,0.726736200701073,0.19859069529164272,0.15761052731628533,0.3833271075230956,0.2363874361610727,0.21821147249757114,0.44999341551954053,0.24749934150859873,0.21342004138573145,0.35467714618482704,0.22888126815901388,0.26832952630636303,0.4685005191725655,0.2490077827076021,0.33592032196012434
11.0,0.0,11.0,0.0,1.0,0.0,1.0,0.0,,,,right,1.386232300195843,402.11527139972895,qh13,399.1074993996881,401.1216503996402,402.11527139972895,None,True,3.0,['p'],False,0.375,0.5,0.25,1.0,2.0,0.9850568223215076,0.078614571109881,unsucc_cost,1.0,1.0,401.1216503996402,None,qh13,1,2023-02-28_10h21.05.610,threat_forest,2021.2.3,60.06507456375704,True,42.0,0.3928571428571428,0.4047619047619047,-0.9566326530612244,-1.1658163265306123,1,0,1,0.3265894914825086,0.078614571109881,0.375,0.375,0.5,0.75,-0.75,-0.75,2.25,2.25,0.0,2.0,-1.0,3.0,0,0,1,0.5438726256478913,0.24807519271876,0.24639306379354498,0.48715255222437076,0.24983494308565246,0.2379186379547874,0.5448274773504098,0.24799049727439845,0.21208579542869943,0.5713449171980173,0.2449099027900081,0.16917735280645152,0.6203610419888816,0.23551321957135068,0.2188270417478602,0.726736200701073,0.19859069529164272,0.15761052731628533,0.5904247616583743,0.2418233624790262,0.2184478137126813,0.44999341551954053,0.24749934150859873,0.21342004138573145,0.5955352696760237,0.24087301224792942,0.2774170087923211,0.7745951143515448,0.174597523174262,0.23027519029388563
11.0,0.0,11.0,0.0,2.0,0.0,2.0,0.0,,,,left,1.453682200051844,408.5572223998606,qh13,408.5572223998606,None,403.5197435999289,405.5342401997186,True,1.0,['p'],True,0.2448979591836734,0.2857142857142857,0.1428571428571428,1.0,2.0,0.8400769154957735,0.0944428399033169,unsucc_cost,0.0,0.0,405.5342401997186,None,qh13,1,2023-02-28_10h21.05.610,threat_forest,2021.2.3,60.06507456375704,True,42.0,0.3928571428571428,0.4047619047619047,-0.9566326530612244,-1.1658163265306123,1,0,1,0.3740997857936563,0.0944428399033169,1.0,0.2448979591836734,0.2857142857142857,0.8571428571428572,-1.2857142857142856,-1.163265306122449,-0.1632653061224489,0.0,1.0,2.0,-1.0,1.0,1,0,1,0.5027435870702215,0.24999247272998815,0.19019432390584168,0.5531189134596882,0.2471783810328622,0.23210076420015924,0.5448274773504098,0.24799049727439845,0.21208579542869943,0.42419205243456654,0.2442531550859165,0.1741462001790257,0.4515772046872981,0.24765523289410424,0.2198178050522655,0.726736200701073,0.19859069529164272,0.15761052731628533,0.3833271075230956,0.2363874361610727,0.21821147249757114,0.9423001061069406,0.054370616137789145,0.24100719461412842,0.9940645965997141,0.005900174386761712,0.0993518722361642,0.8208066817054962,0.1470830729731084,0.1912111185858352
12.0,0.0,12.0,0.0,0.0,0.0,0.0,0.0,413.6406605998054,417.13998400000855,None,left,0.7951075998134911,417.94797550002113,qh13,417.94797550002113,None,413.6406605998054,417.13998400000855,True,4.0,['r'],True,0.5,0.5,0.0,0.0,2.0,0.6309297535714574,0.096737473125,unsucc_cost,0.0,2.0,,,qh13,1,2023-02-28_10h21.05.610,threat_forest,2021.2.3,60.06507456375704,True,67.0,0.55,0.4714285714285714,-0.4800000000000001,-0.7183163265306123,1,1,1,-0.2292778278088577,0.096737473125,0.5,0.5,0.5,1.0,0.0,0.0,4.0,4.0,1.0,2.0,-1.0,4.0,0,1,1,0.5027435870702215,0.24999247272998815,0.19019432390584168,0.6378834017347269,0.2309881675260599,0.1966441791961997,0.5448274773504098,0.24799049727439845,0.21208579542869943,0.5713449171980173,0.2449099027900081,0.16917735280645152,0.8100929863296619,0.15384233982915216,0.21216286600235706,0.726736200701073,0.19859069529164272,0.15761052731628533,0.7638503357495062,0.18038300032487284,0.21577653213177334,0.44999341551954053,0.24749934150859873,0.21342004138573145,0.791450398333947,0.16505666531098362,0.21996250344012053,0.8268527269902101,0.14316729485906318,0.18565163126475243
12.0,0.0,12.0,0.0,1.0,0.0,1.0,0.0,,,,right,1.4832015000283718,422.3418376999907,qh13,418.7721622996032,420.7866736999713,422.3418376999907,None,True,2.0,['r'],False,0.36,0.6,0.4,2.0,2.0,0.9801625908629508,-0.0195836249999998,figh_cost,1.0,0.0,420.7866736999713,None,qh13,1,2023-02-28_10h21.05.610,threat_forest,2021.2.3,60.06507456375704,True,67.0,0.55,0.4714285714285714,-0.4800000000000001,-0.7183163265306123,0,0,1,0.3942029271749319,-0.0195836249999998,0.36,0.36,0.6,0.6,-0.8000000000000003,-0.9600000000000002,1.0399999999999998,1.0399999999999998,0.0,2.0,-1.0,2.0,0,0,0,0.5438726256478913,0.24807519271876,0.24639306379354498,0.396048953545663,0.2391941799410483,0.21461535521641328,0.5448274773504098,0.24799049727439845,0.21208579542869943,0.6373868938334286,0.23112484140280223,0.27347290744311903,0.6051838399958307,0.23893635980373149,0.21910636294755947,0.3277712648920279,0.220337262803108,0.2747187546514067,0.566783416526237,0.24553997527708307,0.21860940324377662,0.44999341551954053,0.24749934150859873,0.21342004138573145,0.5678981506834744,0.24538984113376416,0.28083991400842173,0.3662223015040873,0.23210352738513668,0.31192024064793095
13.0,0.0,13.0,0.0,0.0,0.0,0.0,0.0,426.823285699822,430.32197909988463,None,left,2.50485169980675,433.9187082997523,qh13,433.9187082997523,None,426.823285699822,430.32197909988463,True,4.0,['r'],True,0.24,0.3,0.2,2.0,2.0,0.9003120349047065,-0.0027286024196422,unsucc_cost,0.0,2.0,,,qh13,1,2023-02-28_10h21.05.610,threat_forest,2021.2.3,60.06507456375704,True,55.0,0.2928571428571428,0.4214285714285714,-1.0485714285714285,-0.7642857142857142,0,0,1,0.9182295311103876,-0.0027286024196422,0.24,0.24,0.3,0.8,-1.4,-1.24,2.76,2.76,1.0,2.0,-1.0,4.0,0,0,0,0.5027435870702215,0.24999247272998815,0.19019432390584168,0.5180214318612204,0.2496752279936714,0.23756886173146186,0.5448274773504098,0.24799049727439845,0.21208579542869943,0.43387478170799015,0.24562745550583406,0.16374846450657254,0.41568443264672666,0.24289088510189563,0.21942904407527836,0.3277712648920279,0.220337262803108,0.2747187546514067,0.37586945325186083,0.23459160736400803,0.21813339411033722,0.44999341551954053,0.24749934150859873,0.21342004138573145,0.3462324052539993,0.22635552680602972,0.26641549027131123,0.43968621594600377,0.2463622474530879,0.33216428183818925
13.0,0.0,13.0,0.0,1.0,0.0,1.0,0.0,,,,right,1.900110099930316,440.09551299968734,qh13,436.4556371998042,438.47012129984796,440.09551299968734,None,True,2.0,['r'],False,0.2857142857142857,0.2857142857142857,0.0,0.0,2.0,0.5445684476282007,0.013158574184185,unsucc_cost,1.0,0.0,438.470121299848,None,qh13,1,2023-02-28_10h21.05.610,threat_forest,2021.2.3,60.06507456375704,True,55.0,0.2928571428571428,0.4214285714285714,-1.0485714285714285,-0.7642857142857142,0,0,1,0.6419118318252582,0.013158574184185,0.2857142857142857,0.2857142857142857,0.2857142857142857,1.0,-0.8571428571428572,-0.8571428571428572,1.1428571428571428,1.1428571428571428,0.0,2.0,-1.0,2.0,0,0,0,0.5438726256478913,0.24807519271876,0.24639306379354498,0.6378834017347269,0.2309881675260599,0.1966441791961997,0.5448274773504098,0.24799049727439845,0.21208579542869943,0.42419205243456654,0.2442531550859165,0.1741462001790257,0.5875883757895987,0.24232827642654003,0.21938313636496165,0.3277712648920279,0.220337262803108,0.2747187546514067,0.4473081078926586,0.2472235645061483,0.21868260172014845,0.44999341551954053,0.24749934150859873,0.21342004138573145,0.4281543100401957,0.24483819683419972,0.28042187157242576,0.5115015027631657,0.24986771543418887,0.3371412249202015
14.0,0.0,14.0,0.0,0.0,0.0,0.0,0.0,444.6314614997245,448.1382122999057,None,left,1.4149969001300633,449.08886109991,qh13,444.6314614997245,448.1382122999057,449.08886109991,None,False,5.0,['r'],False,0.2040816326530612,0.2857142857142857,0.2857142857142857,2.0,1.0,0.9335459102197724,-0.0016634484816004,wait_cost,1.0,4.0,,,qh13,1,2023-02-28_10h21.05.610,threat_forest,2021.2.3,60.06507456375704,False,32.0,0.2678571428571428,0.2803571428571428,-1.461734693877551,-1.25515306122449,0,0,0,0.347127340371998,-0.0016634484816004,0.2040816326530612,0.2040816326530612,0.2857142857142857,0.7142857142857143,-2.0,-1.673469387755102,3.326530612244898,3.326530612244898,0.0,1.0,-1.0,5.0,0,0,0,0.5438726256478913,0.24807519271876,0.24639306379354498,0.4651495272625901,0.248785444549979,0.2356202350321821,0.5448274773504098,0.24799049727439845,0.21208579542869943,0.42419205243456654,0.2442531550859165,0.1741462001790257,0.2482175083661271,0.18660557690663876,0.2148362787360654,0.3277712648920279,0.220337262803108,0.2747187546514067,0.32314695002650845,0.2187229987150737,0.21744346455080468,0.44999341551954053,0.24749934150859873,0.21342004138573145,0.2874706964366687,0.20483129512688536,0.2501041783422374,0.4444560503289192,0.24691486965493642,0.3329488758665142
14.0,0.0,14.0,0.0,2.0,0.0,2.0,0.0,,,,right,1.442200000397861,460.72794279968366,qh13,457.6026983000338,459.617177200038,460.72794279968366,None,True,3.0,['r'],False,0.2040816326530612,0.2857142857142857,0.2857142857142857,2.0,1.0,0.9335459102197724,0.008523234816496,unsucc_cost,1.0,1.0,459.617177200038,None,qh13,1,2023-02-28_10h21.05.610,threat_forest,2021.2.3,60.06507456375704,True,32.0,0.2678571428571428,0.2803571428571428,-1.461734693877551,-1.25515306122449,0,0,1,0.366169725776393,0.008523234816496,0.2040816326530612,0.2040816326530612,0.2857142857142857,0.7142857142857143,-2.0,-1.673469387755102,1.326530612244898,1.326530612244898,0.0,1.0,-1.0,3.0,0,0,0,0.5438726256478913,0.24807519271876,0.24639306379354498,0.4651495272625901,0.248785444549979,0.2356202350321821,0.5448274773504098,0.24799049727439845,0.21208579542869943,0.42419205243456654,0.2442531550859165,0.1741462001790257,0.2482175083661271,0.18660557690663876,0.2148362787360654,0.3277712648920279,0.220337262803108,0.2747187546514067,0.32314695002650845,0.2187229987150737,0.21744346455080468,0.44999341551954053,0.24749934150859873,0.21342004138573145,0.2874706964366687,0.20483129512688536,0.2501041783422374,0.4904647239605525,0.24990907851085153,0.3371999507962776
14.0,0.0,14.0,0.0,3.0,0.0,3.0,0.0,,,,left,1.5491460002958777,465.5339464996941,qh13,465.5339464996941,None,462.1985506997444,464.21284849988297,True,1.0,['r'],True,0.25,0.25,0.0,0.0,1.0,0.5118595071429148,0.0210069343914418,unsucc_cost,0.0,0.0,464.21284849988297,None,qh13,1,2023-02-28_10h21.05.610,threat_forest,2021.2.3,60.06507456375704,True,32.0,0.2678571428571428,0.2803571428571428,-1.461734693877551,-1.25515306122449,1,0,1,0.4377038115417128,0.0210069343914418,1.0,0.25,0.25,1.0,-1.25,-1.25,-0.25,0.0,1.0,1.0,-1.0,1.0,1,0,1,0.5027435870702215,0.24999247272998815,0.19019432390584168,0.6378834017347269,0.2309881675260599,0.1966441791961997,0.5448274773504098,0.24799049727439845,0.21208579542869943,0.4002534281980447,0.24005062141375733,0.2059418932053847,0.46291620106894277,0.24862479185684092,0.21989691906871422,0.726736200701073,0.19859069529164272,0.15761052731628533,0.3911542635301388,0.23815260565233354,0.21828821789072742,0.9423001061069406,0.054370616137789145,0.24100719461412842,0.9940645965997141,0.005900174386761712,0.0993518722361642,0.5469884418144962,0.24779208633584576,0.3341943179915073
15.0,0.0,15.0,0.0,0.0,0.0,0.0,0.0,470.834279099945,474.3366832998581,None,right,1.5707444003783166,475.9719652999193,qh13,470.834279099945,474.3366832998581,475.9719652999193,None,True,4.0,['r'],False,0.2222222222222222,0.6666666666666666,0.6666666666666666,2.0,2.0,0.77250688571426,-0.0033451223961741,figh_cost,1.0,1.0,,,qh13,1,2023-02-28_10h21.05.610,threat_forest,2021.2.3,60.06507456375704,True,34.0,0.4583333333333333,0.3630952380952381,-1.3888888888888888,-1.42531179138322,0,0,1,0.4515496473595445,-0.0033451223961741,0.2222222222222222,0.2222222222222222,0.6666666666666666,0.3333333333333333,-1.3333333333333337,-1.777777777777778,2.2222222222222223,2.2222222222222223,0.0,2.0,-1.0,4.0,0,0,0,0.5438726256478913,0.24807519271876,0.24639306379354498,0.2533700950937231,0.18917369000592085,0.10507042842595493,0.5448274773504098,0.24799049727439845,0.21208579542869943,0.6788532950127758,0.21801149886307303,0.3726863454471754,0.43653837969158904,0.2459726227478311,0.2196805075263747,0.3277712648920279,0.220337262803108,0.2747187546514067,0.3493132025972513,0.22729348908850291,0.2178160891947879,0.44999341551954053,0.24749934150859873,0.21342004138573145,0.31641489166813797,0.21629650799877848,0.2587926493768567,0.43693041955833345,0.24602222802291213,0.33168153392553207
15.0,0.0,15.0,0.0,1.0,0.0,1.0,0.0,,,,left,0.7837300002574921,482.200858599972,qh13,482.200858599972,None,477.5673630000092,479.58183909999207,True,1.0,['r'],True,0.25,0.25,0.0,0.0,2.0,0.5118595071429148,0.0358881323171487,succ_gain,0.0,3.0,479.58183909999207,None,qh13,1,2023-02-28_10h21.05.610,threat_forest,2021.2.3,60.06507456375704,True,34.0,0.4583333333333333,0.3630952380952381,-1.3888888888888888,-1.42531179138322,1,0,1,-0.2436907053733659,0.0358881323171487,1.0,0.25,0.25,1.0,-1.0,-1.0,0.0,0.0,1.0,2.0,-1.0,1.0,1,0,1,0.5027435870702215,0.24999247272998815,0.19019432390584168,0.6378834017347269,0.2309881675260599,0.1966441791961997,0.5448274773504098,0.24799049727439845,0.21208579542869943,0.4002534281980447,0.24005062141375733,0.2059418932053847,0.5427048092830715,0.2481762992640965,0.2198603229959397,0.726736200701073,0.19859069529164272,0.15761052731628533,0.3911542635301388,0.23815260565233354,0.21828821789072742,0.9423001061069406,0.054370616137789145,0.24100719461412842,0.9940645965997141,0.005900174386761712,0.0993518722361642,0.6127045724549721,0.23729767934774193,0.3192947192672135
15.0,0.0,15.0,0.0,2.0,0.0,2.0,0.0,,,,right,1.4111210000701249,486.1674925996922,qh13,483.0121573000215,485.0267385998741,486.1674925996922,None,True,3.0,['r'],False,0.2222222222222222,0.6666666666666666,0.6666666666666666,2.0,2.0,0.77250688571426,0.0126119601146929,figh_cost,1.0,0.0,485.0267385998741,None,qh13,1,2023-02-28_10h21.05.610,threat_forest,2021.2.3,60.06507456375704,True,34.0,0.4583333333333333,0.3630952380952381,-1.3888888888888888,-1.42531179138322,0,0,1,0.3443844240274814,0.0126119601146929,0.2222222222222222,0.2222222222222222,0.6666666666666666,0.3333333333333333,-1.3333333333333337,-1.777777777777778,1.222222222222222,1.222222222222222,0.0,2.0,1.0,3.0,0,0,0,0.5438726256478913,0.24807519271876,0.24639306379354498,0.2533700950937231,0.18917369000592085,0.10507042842595493,0.42622504528412813,0.24455725605667106,0.2400899173052402,0.6788532950127758,0.21801149886307303,0.3726863454471754,0.43653837969158904,0.2459726227478311,0.2196805075263747,0.3277712648920279,0.220337262803108,0.2747187546514067,0.3493132025972513,0.22729348908850291,0.2178160891947879,0.44999341551954053,0.24749934150859873,0.21342004138573145,0.31641489166813797,0.21629650799877848,0.2587926493768567,0.5090214528794739,0.24991861338794338,0.3372134880874
16.0,0.0,16.0,0.0,0.0,0.0,0.0,0.0,492.68654849985614,496.19412239966914,None,left,1.4997315998189151,499.9602226000279,qh13,499.9602226000279,None,492.68654849985614,496.19412239966914,True,5.0,['p'],True,0.24,0.3,0.2,2.0,1.0,0.9003120349047065,-0.0090981991697076,succ_gain,0.0,6.0,,,qh13,1,2023-02-28_10h21.05.610,threat_forest,2021.2.3,60.06507456375704,True,9.0,0.4,0.4291666666666667,-1.3025,-1.3456944444444443,0,0,1,0.4052861586436074,-0.0090981991697076,0.24,0.24,0.3,0.8,-1.7,-1.48,3.52,3.52,1.0,1.0,-1.0,5.0,0,0,0,0.5027435870702215,0.24999247272998815,0.19019432390584168,0.5180214318612204,0.2496752279936714,0.23756886173146186,0.5448274773504098,0.24799049727439845,0.21208579542869943,0.43387478170799015,0.24562745550583406,0.16374846450657254,0.32644059396994063,0.21987713257849298,0.21755116922118603,0.3277712648920279,0.220337262803108,0.2747187546514067,0.37586945325186083,0.23459160736400803,0.21813339411033722,0.44999341551954053,0.24749934150859873,0.21342004138573145,0.3462324052539993,0.22635552680602972,0.26641549027131123,0.4114237207669368,0.24215424275722647,0.3261899012496194
16.0,0.0,16.0,0.0,1.0,0.0,1.0,0.0,,,,right,1.861005799844861,505.584542399738,qh13,501.481265399605,503.4760324000381,505.584542399738,None,True,6.0,['p'],False,0.375,0.5,0.25,1.0,1.0,0.9850568223215076,-0.1193507232516357,succ_gain,1.0,6.0,503.4760324000381,None,qh13,1,2023-02-28_10h21.05.610,threat_forest,2021.2.3,60.06507456375704,True,9.0,0.4,0.4291666666666667,-1.3025,-1.3456944444444443,1,0,1,0.6211170941758705,-0.1193507232516357,0.375,0.375,0.5,0.75,-1.25,-1.125,4.875,4.875,0.0,1.0,1.0,6.0,0,0,1,0.5438726256478913,0.24807519271876,0.24639306379354498,0.48715255222437076,0.24983494308565246,0.2379186379547874,0.42622504528412813,0.24455725605667106,0.2400899173052402,0.5713449171980173,0.2449099027900081,0.16917735280645152,0.46291620106894277,0.24862479185684092,0.21989691906871422,0.726736200701073,0.19859069529164272,0.15761052731628533,0.5904247616583743,0.2418233624790262,0.2184478137126813,0.44999341551954053,0.24749934150859873,0.21342004138573145,0.5955352696760237,0.24087301224792942,0.2774170087923211,0.08628658403747558,0.07884120945261926,0.09432366379149557
16.0,0.0,16.0,0.0,2.0,0.0,2.0,0.0,,,,right,2.04033189965412,510.9563467996195,qh13,510.9563467996195,None,507.4727596999146,509.48726249998435,False,6.0,['p'],True,0.24,0.3,0.2,2.0,1.0,0.9003120349047065,-0.0083195987695312,wait_cost,0.0,5.0,509.4872624999844,None,qh13,1,2023-02-28_10h21.05.610,threat_forest,2021.2.3,60.06507456375704,False,9.0,0.4,0.4291666666666667,-1.3025,-1.3456944444444443,0,0,0,0.7131124905314634,-0.0083195987695312,0.24,0.24,0.3,0.8,-1.7,-1.48,4.52,4.52,1.0,1.0,-1.0,6.0,0,0,0,0.5027435870702215,0.24999247272998815,0.19019432390584168,0.5180214318612204,0.2496752279936714,0.23756886173146186,0.5448274773504098,0.24799049727439845,0.21208579542869943,0.43387478170799015,0.24562745550583406,0.16374846450657254,0.32644059396994063,0.21987713257849298,0.21755116922118603,0.3277712648920279,0.220337262803108,0.2747187546514067,0.37586945325186083,0.23459160736400803,0.21813339411033722,0.44999341551954053,0.24749934150859873,0.21342004138573145,0.3462324052539993,0.22635552680602972,0.26641549027131123,0.41485113865617274,0.24274967141184964,0.32703527040986713
16.0,0.0,16.0,0.0,3.0,0.0,3.0,0.0,,,,right,0.9593235002830623,515.7386097996496,qh13,513.0177312996238,515.0320763997734,515.7386097996496,None,True,5.0,['p'],False,0.375,0.5,0.25,1.0,1.0,0.9850568223215076,0.0607207880859375,unsucc_cost,1.0,3.0,515.0320763997734,None,qh13,1,2023-02-28_10h21.05.610,threat_forest,2021.2.3,60.06507456375704,True,9.0,0.4,0.4291666666666667,-1.3025,-1.3456944444444443,1,0,1,-0.0415269301341342,0.0607207880859375,0.375,0.375,0.5,0.75,-1.25,-1.125,3.875,3.875,0.0,1.0,-1.0,5.0,0,0,1,0.5438726256478913,0.24807519271876,0.24639306379354498,0.48715255222437076,0.24983494308565246,0.2379186379547874,0.5448274773504098,0.24799049727439845,0.21208579542869943,0.5713449171980173,0.2449099027900081,0.16917735280645152,0.46291620106894277,0.24862479185684092,0.21989691906871422,0.726736200701073,0.19859069529164272,0.15761052731628533,0.5904247616583743,0.2418233624790262,0.2184478137126813,0.44999341551954053,0.24749934150859873,0.21342004138573145,0.5955352696760237,0.24087301224792942,0.2774170087923211,0.7129101586494323,0.20466926434387356,0.27297001591632836
16.0,0.0,16.0,0.0,4.0,0.0,4.0,0.0,,,,right,1.09722420014441,522.0648125996813,qh13,513.0177312996238,515.0320763997734,522.0648125996813,None,True,3.0,['p'],False,0.375,0.5,0.25,1.0,1.0,0.9850568223215076,0.0731003906249999,unsucc_cost,1.0,1.0,518.7451927997172,None,qh13,1,2023-02-28_10h21.05.610,threat_forest,2021.2.3,60.06507456375704,True,9.0,0.4,0.4291666666666667,-1.3025,-1.3456944444444443,1,0,1,0.092783536112601,0.0731003906249999,0.375,0.375,0.5,0.75,-1.25,-1.125,1.875,1.875,0.0,1.0,-1.0,3.0,0,0,1,0.5438726256478913,0.24807519271876,0.24639306379354498,0.48715255222437076,0.24983494308565246,0.2379186379547874,0.5448274773504098,0.24799049727439845,0.21208579542869943,0.5713449171980173,0.2449099027900081,0.16917735280645152,0.46291620106894277,0.24862479185684092,0.21989691906871422,0.726736200701073,0.19859069529164272,0.15761052731628533,0.5904247616583743,0.2418233624790262,0.2184478137126813,0.44999341551954053,0.24749934150859873,0.21342004138573145,0.5955352696760237,0.24087301224792942,0.2774170087923211,0.756636356963529,0.18413778028448813,0.243820119781573
16.0,0.0,16.0,0.0,5.0,0.0,5.0,0.0,,,,left,2.011695599649101,527.3152171997353,qh13,527.3152171997353,None,523.1912868996151,525.2058456996456,True,1.0,['p'],True,0.24,0.3,0.2,2.0,1.0,0.9003120349047065,0.0818999999999999,unsucc_cost,0.0,0.0,525.2058456996456,None,qh13,1,2023-02-28_10h21.05.610,threat_forest,2021.2.3,60.06507456375704,True,9.0,0.4,0.4291666666666667,-1.3025,-1.3456944444444443,0,0,1,0.698977948370716,0.0818999999999999,1.0,0.24,0.3,0.8,-1.7,-1.48,-0.48,0.0,1.0,1.0,-1.0,1.0,1,0,0,0.5027435870702215,0.24999247272998815,0.19019432390584168,0.5180214318612204,0.2496752279936714,0.23756886173146186,0.5448274773504098,0.24799049727439845,0.21208579542869943,0.43387478170799015,0.24562745550583406,0.16374846450657254,0.32644059396994063,0.21987713257849298,0.21755116922118603,0.3277712648920279,0.220337262803108,0.2747187546514067,0.37586945325186083,0.23459160736400803,0.21813339411033722,0.9423001061069406,0.054370616137789145,0.24100719461412842,0.9940645965997141,0.005900174386761712,0.0993518722361642,0.7848391459337967,0.16886666094370525,0.222138708863701
17.0,0.0,17.0,0.0,0.0,0.0,0.0,0.0,532.7901332997717,536.2821082998998,None,left,1.6019814000464976,537.4805189999752,qh13,537.4805189999752,None,532.7901332997717,536.2821082998998,True,5.0,['p'],True,0.16,0.2,0.2,2.0,2.0,0.8198746470064713,-0.0083567608970359,unsucc_cost,0.0,3.0,,,qh13,1,2023-02-28_10h21.05.610,threat_forest,2021.2.3,60.06507456375704,True,63.0,0.2666666666666666,0.3333333333333333,-1.5022222222222226,-1.4023611111111114,0,0,1,0.4712412381208989,-0.0083567608970359,0.16,0.16,0.2,0.8,-1.8000000000000005,-1.5600000000000005,3.4399999999999995,3.4399999999999995,1.0,2.0,-1.0,5.0,0,0,0,0.5027435870702215,0.24999247272998815,0.19019432390584168,0.5180214318612204,0.2496752279936714,0.23756886173146186,0.5448274773504098,0.24799049727439845,0.21208579542869943,0.3675459509168998,0.2324559248814917,0.26340214418874064,0.2989577245322835,0.20958200347476277,0.21671110786900677,0.3277712648920279,0.220337262803108,0.2747187546514067,0.26417982103592397,0.19438884319335117,0.2163854730424045,0.44999341551954053,0.24749934150859873,0.21342004138573145,0.22415934604788312,0.17391193362726853,0.22667312827801064,0.4146873598478515,0.24272175343027,0.32699563341816285
17.0,0.0,17.0,0.0,1.0,0.0,1.0,0.0,,,,left,1.5908657000400126,544.1946425996721,qh13,544.1946425996721,None,532.7901332997717,536.2821082998998,True,3.0,['p'],True,0.16,0.2,0.2,2.0,2.0,0.8198746470064713,0.0173973197132958,figh_cost,0.0,0.0,541.1241405997425,None,qh13,1,2023-02-28_10h21.05.610,threat_forest,2021.2.3,60.06507456375704,True,63.0,0.2666666666666666,0.3333333333333333,-1.5022222222222226,-1.4023611111111114,0,0,1,0.4642783334985849,0.0173973197132958,0.16,0.16,0.2,0.8,-1.8000000000000005,-1.5600000000000005,1.4399999999999995,1.4399999999999995,1.0,2.0,-1.0,3.0,0,0,0,0.5027435870702215,0.24999247272998815,0.19019432390584168,0.5180214318612204,0.2496752279936714,0.23756886173146186,0.5448274773504098,0.24799049727439845,0.21208579542869943,0.3675459509168998,0.2324559248814917,0.26340214418874064,0.2989577245322835,0.20958200347476277,0.21671110786900677,0.3277712648920279,0.220337262803108,0.2747187546514067,0.26417982103592397,0.19438884319335117,0.2163854730424045,0.44999341551954053,0.24749934150859873,0.21342004138573145,0.22415934604788312,0.17391193362726853,0.22667312827801064,0.530704658893358,0.24905722392224253,0.3359905168991446
0.0,0.0,0.0,0.0,0.0,0.0,0.0,0.0,15.40386880002916,18.90313530014828,None,left,1.7788068996742368,22.06331150000915,qh13,15.40386880002916,18.90313530014828,22.06331150000915,None,False,5.0,['r'],False,0.24,0.3,0.2,2.0,2.0,0.9003120349047065,-0.0305436800767033,wait_cost,1.0,4.0,,,qh13,2,2023-02-28_10h31.34.197,threat_forest,2021.2.3,60.05425299180541,False,15.0,0.4833333333333333,0.375,-0.8977777777777778,-1.2000000000000002,0,0,0,0.575942858483309,-0.0305436800767033,0.24,0.24,0.3,0.8,-1.4,-1.24,3.76,3.76,0.0,2.0,-1.0,5.0,0,0,0,0.5438726256478913,0.24807519271876,0.24639306379354498,0.5180214318612204,0.2496752279936714,0.23756886173146186,0.5448274773504098,0.24799049727439845,0.21208579542869943,0.43387478170799015,0.24562745550583406,0.16374846450657254,0.41568443264672666,0.24289088510189563,0.21942904407527836,0.3277712648920279,0.220337262803108,0.2747187546514067,0.37586945325186083,0.23459160736400803,0.21813339411033722,0.44999341551954053,0.24749934150859873,0.21342004138573145,0.3462324052539993,0.22635552680602972,0.26641549027131123,0.32137718845116264,0.21809389119438854,0.2920298401944217
0.0,0.0,0.0,0.0,1.0,0.0,1.0,0.0,,,,left,1.7639679997228086,28.1624401002191,qh13,28.1624401002191,None,23.86652400018648,25.880989000201225,True,4.0,['r'],True,0.4444444444444445,0.6666666666666666,0.3333333333333333,1.0,2.0,0.9656336071428248,0.112530937087955,succ_gain,0.0,6.0,25.880989000201225,None,qh13,2,2023-02-28_10h31.34.197,threat_forest,2021.2.3,60.05425299180541,True,15.0,0.4833333333333333,0.375,-0.8977777777777778,-1.2000000000000002,1,1,1,0.567565816673347,0.112530937087955,0.4444444444444445,0.4444444444444445,0.6666666666666666,0.6666666666666667,-0.3333333333333335,-0.5555555555555556,3.4444444444444446,3.4444444444444446,1.0,2.0,-1.0,4.0,0,1,1,0.5027435870702215,0.24999247272998815,0.19019432390584168,0.43603625867143286,0.24590863979525213,0.22932002952328545,0.5448274773504098,0.24799049727439845,0.21208579542869943,0.6788532950127758,0.21801149886307303,0.3726863454471754,0.7357811788224289,0.1944072357131058,0.2154728780424138,0.726736200701073,0.19859069529164272,0.15761052731628533,0.6931129027520179,0.21270740679068975,0.21718192084659363,0.44999341551954053,0.24749934150859873,0.21342004138573145,0.7135917676305306,0.2043785568004654,0.24976108799761718,0.8641543840325852,0.1173915845898485,0.1490561628137667
0.0,0.0,0.0,0.0,3.0,0.0,3.0,0.0,,,,left,2.389564100187272,43.001709800213575,qh13,37.53708630008623,39.55144419986755,43.001709800213575,None,False,5.0,['r'],False,0.24,0.3,0.2,2.0,2.0,0.9003120349047065,-0.0020531358024691,wait_cost,1.0,4.0,39.55144419986755,None,qh13,2,2023-02-28_10h31.34.197,threat_forest,2021.2.3,60.05425299180541,False,15.0,0.4833333333333333,0.375,-0.8977777777777778,-1.2000000000000002,0,0,0,0.8711109644503963,-0.0020531358024691,0.24,0.24,0.3,0.8,-1.4,-1.24,3.76,3.76,0.0,2.0,-1.0,5.0,0,0,0,0.5438726256478913,0.24807519271876,0.24639306379354498,0.5180214318612204,0.2496752279936714,0.23756886173146186,0.5448274773504098,0.24799049727439845,0.21208579542869943,0.43387478170799015,0.24562745550583406,0.16374846450657254,0.41568443264672666,0.24289088510189563,0.21942904407527836,0.3277712648920279,0.220337262803108,0.2747187546514067,0.37586945325186083,0.23459160736400803,0.21813339411033722,0.44999341551954053,0.24749934150859873,0.21342004138573145,0.3462324052539993,0.22635552680602972,0.26641549027131123,0.44270976773540216,0.24671782928706845,0.33266912471744525
0.0,0.0,0.0,0.0,4.0,0.0,4.0,0.0,,,,left,1.61213990021497,50.66637360025197,qh13,50.66637360025197,None,45.41301560029388,47.427557699847966,True,4.0,['r'],True,0.4444444444444445,0.6666666666666666,0.3333333333333333,1.0,2.0,0.9656336071428248,0.1698567901234568,succ_gain,0.0,6.0,47.427557699847966,None,qh13,2,2023-02-28_10h31.34.197,threat_forest,2021.2.3,60.05425299180541,True,15.0,0.4833333333333333,0.375,-0.8977777777777778,-1.2000000000000002,1,1,1,0.4775624270525381,0.1698567901234568,0.4444444444444445,0.4444444444444445,0.6666666666666666,0.6666666666666667,-0.3333333333333335,-0.5555555555555556,3.4444444444444446,3.4444444444444446,1.0,2.0,-1.0,4.0,0,1,1,0.5027435870702215,0.24999247272998815,0.19019432390584168,0.43603625867143286,0.24590863979525213,0.22932002952328545,0.5448274773504098,0.24799049727439845,0.21208579542869943,0.6788532950127758,0.21801149886307303,0.3726863454471754,0.7357811788224289,0.1944072357131058,0.2154728780424138,0.726736200701073,0.19859069529164272,0.15761052731628533,0.6931129027520179,0.21270740679068975,0.21718192084659363,0.44999341551954053,0.24749934150859873,0.21342004138573145,0.7135917676305306,0.2043785568004654,0.24976108799761718,0.9474021502966651,0.04983131590992027,0.053136412972019306
0.0,0.0,0.0,0.0,5.0,0.0,5.0,0.0,,,,right,2.408294899854809,57.68959970027208,qh13,57.68959970027208,None,45.41301560029388,47.427557699847966,False,6.0,['r'],True,0.4444444444444445,0.6666666666666666,0.3333333333333333,1.0,2.0,0.9656336071428248,0.0,wait_cost,0.0,5.0,54.32103230012581,None,qh13,2,2023-02-28_10h31.34.197,threat_forest,2021.2.3,60.05425299180541,False,15.0,0.4833333333333333,0.375,-0.8977777777777778,-1.2000000000000002,1,1,0,0.8789189866652518,0.0,0.0,0.4444444444444445,0.6666666666666666,0.6666666666666667,-0.3333333333333335,-0.5555555555555556,5.444444444444445,5.444444444444445,1.0,2.0,1.0,6.0,0,1,1,0.5027435870702215,0.24999247272998815,0.19019432390584168,0.43603625867143286,0.24590863979525213,0.22932002952328545,0.42622504528412813,0.24455725605667106,0.2400899173052402,0.6788532950127758,0.21801149886307303,0.3726863454471754,0.7357811788224289,0.1944072357131058,0.2154728780424138,0.726736200701073,0.19859069529164272,0.15761052731628533,0.6931129027520179,0.21270740679068975,0.21718192084659363,0.44999341551954053,0.24749934150859873,0.21342004138573145,0.07918395459333533,0.07291385592829595,0.1501356158528393,0.4519252856190518,0.24768882183719027,0.3340477066018236
0.0,0.0,0.0,0.0,6.0,0.0,6.0,0.0,,,,right,1.3390374002046883,63.61613189987838,qh13,63.61613189987838,None,45.41301560029388,47.427557699847966,False,5.0,['r'],True,0.4444444444444445,0.6666666666666666,0.3333333333333333,1.0,2.0,0.9656336071428248,0.0,wait_cost,0.0,4.0,62.130408300086856,None,qh13,2,2023-02-28_10h31.34.197,threat_forest,2021.2.3,60.05425299180541,False,15.0,0.4833333333333333,0.375,-0.8977777777777778,-1.2000000000000002,1,1,0,0.2919509977638354,0.0,0.0,0.4444444444444445,0.6666666666666666,0.6666666666666667,-0.3333333333333335,-0.5555555555555556,4.444444444444445,4.444444444444445,1.0,2.0,-1.0,5.0,0,1,1,0.5027435870702215,0.24999247272998815,0.19019432390584168,0.43603625867143286,0.24590863979525213,0.22932002952328545,0.5448274773504098,0.24799049727439845,0.21208579542869943,0.6788532950127758,0.21801149886307303,0.3726863454471754,0.7357811788224289,0.1944072357131058,0.2154728780424138,0.726736200701073,0.19859069529164272,0.15761052731628533,0.6931129027520179,0.21270740679068975,0.21718192084659363,0.44999341551954053,0.24749934150859873,0.21342004138573145,0.07918395459333533,0.07291385592829595,0.1501356158528393,0.4519252856190518,0.24768882183719027,0.3340477066018236
0.0,0.0,0.0,0.0,7.0,0.0,7.0,0.0,,,,right,2.3503629001788795,68.70895530004054,qh13,68.70895530004054,None,45.41301560029388,47.427557699847966,False,4.0,['r'],True,0.4444444444444445,0.6666666666666666,0.3333333333333333,1.0,2.0,0.9656336071428248,0.0,wait_cost,0.0,3.0,66.9924818999134,None,qh13,2,2023-02-28_10h31.34.197,threat_forest,2021.2.3,60.05425299180541,False,15.0,0.4833333333333333,0.375,-0.8977777777777778,-1.2000000000000002,1,1,0,0.8545697418416947,0.0,0.0,0.4444444444444445,0.6666666666666666,0.6666666666666667,-0.3333333333333335,-0.5555555555555556,3.4444444444444446,3.4444444444444446,1.0,2.0,-1.0,4.0,0,1,1,0.5027435870702215,0.24999247272998815,0.19019432390584168,0.43603625867143286,0.24590863979525213,0.22932002952328545,0.5448274773504098,0.24799049727439845,0.21208579542869943,0.6788532950127758,0.21801149886307303,0.3726863454471754,0.7357811788224289,0.1944072357131058,0.2154728780424138,0.726736200701073,0.19859069529164272,0.15761052731628533,0.6931129027520179,0.21270740679068975,0.21718192084659363,0.44999341551954053,0.24749934150859873,0.21342004138573145,0.07918395459333533,0.07291385592829595,0.1501356158528393,0.4519252856190518,0.24768882183719027,0.3340477066018236
1.0,0.0,1.0,0.0,0.0,0.0,0.0,0.0,76.15985570009798,79.65931770019233,None,right,1.8479220997542145,81.73856429988518,qh13,76.15985570009798,79.65931770019233,81.73856429988518,None,True,5.0,['r'],False,0.25,0.5,0.5,1.0,2.0,0.9463946303571862,-0.0007067709743359,fight_cost,1.0,2.0,,,qh13,2,2023-02-28_10h31.34.197,threat_forest,2021.2.3,60.05425299180541,True,8.0,0.35,0.4166666666666666,-1.5300000000000002,-1.213888888888889,0,0,1,0.614061818518341,-0.0007067709743359,0.25,0.25,0.5,0.5,-1.5,-1.5,3.5,3.5,0.0,2.0,-1.0,5.0,0,0,0,0.5438726256478913,0.24807519271876,0.24639306379354498,0.3387227050678922,0.22398963413938194,0.18131738354748644,0.5448274773504098,0.24799049727439845,0.21208579542869943,0.5713449171980173,0.2449099027900081,0.16917735280645152,0.3849825575613242,0.23677098793486587,0.21892967305840877,0.3277712648920279,0.220337262803108,0.2747187546514067,0.3911542635301388,0.23815260565233354,0.21828821789072742,0.44999341551954053,0.24749934150859873,0.21342004138573145,0.3635710262652779,0.2313871351256905,0.2702285013014068,0.44874888863660933,0.24737332358401737,0.3335997730143593
1.0,0.0,1.0,0.0,1.0,0.0,1.0,0.0,,,,right,1.3831893997266889,86.72177130030468,qh13,86.72177130030468,None,83.61084700003266,85.62505210004747,False,2.0,['r'],True,0.16,0.2,0.2,2.0,2.0,0.8198746470064713,-0.006811320703125,wait_cost,0.0,1.0,85.62505210004747,None,qh13,2,2023-02-28_10h31.34.197,threat_forest,2021.2.3,60.05425299180541,False,8.0,0.35,0.4166666666666666,-1.5300000000000002,-1.213888888888889,0,0,0,0.3243919917707425,-0.006811320703125,0.16,0.16,0.2,0.8,-1.8000000000000005,-1.5600000000000005,0.4399999999999997,0.4399999999999997,1.0,2.0,-1.0,2.0,0,0,0,0.5027435870702215,0.24999247272998815,0.19019432390584168,0.5180214318612204,0.2496752279936714,0.23756886173146186,0.5448274773504098,0.24799049727439845,0.21208579542869943,0.3675459509168998,0.2324559248814917,0.26340214418874064,0.2989577245322835,0.20958200347476277,0.21671110786900677,0.3277712648920279,0.220337262803108,0.2747187546514067,0.26417982103592397,0.19438884319335117,0.2163854730424045,0.44999341551954053,0.24749934150859873,0.21342004138573145,0.22415934604788312,0.17391193362726853,0.22667312827801064,0.4215138372967627,0.24383992226412093,0.328583171136995
