miniblock.thisRepN,miniblock.thisTrialN,miniblock.thisN,miniblock.thisIndex,day.thisRepN,day.thisTrialN,day.thisN,day.thisIndex,forest.started,fixation_forest.started,fixation_forest.stopped,key_resp.keys,key_resp.rt,key_resp.started,Subject_ID,weather_left.started,weather_left.stopped,weather_right.started,weather_right.stopped,foraging T/F,in_LP,p/r heuristic,good_weather.T/F,p_succ_correct,p_succ_uncorrected,r_threat,n_oponents,gain_if_succ,weather_entropy,OP_value_difference,action_outcome,forest_side_L=0_R=1,out_LP,fixation_day.started,fixation_day.stopped,participant,session,date,expName,psychopyVersion,frameRate,foraging T/F NaNs,fora_NR,forest_mean_p,mvt_cutoff_p,forest_mean_ev,mvt_cutoff_ev,mvt_policy_eg,mvt_policy_p,fora_response,logRT,optimal policy,$\mathit{p}$ success cor + cap,$\mathit{p}$ success cor,$\mathit{p}$ success,risk threat encounter,expected gain naive,expected gain correct,expected state no bounds,expected state with bounds,weather type,gain magnitude,win stay lose shift,continuous energy state,binary energy state,$\mathit{p}$ success based MVT,expected gain based MVT,weather type fit,weather type_uncertain,weather type_uncertain_fit,risk threat encounter fit,risk threat encounter_uncertain,risk threat encounter_uncertain_fit,win stay lose shift fit,win stay lose shift_uncertain,win stay lose shift_uncertain_fit,$\mathit{p}$ success fit,$\mathit{p}$ success_uncertain,$\mathit{p}$ success_uncertain_fit,expected gain naive fit,expected gain naive_uncertain,expected gain naive_uncertain_fit,expected gain based MVT fit,expected gain based MVT_uncertain,expected gain based MVT_uncertain_fit,$\mathit{p}$ success cor fit,$\mathit{p}$ success cor_uncertain,$\mathit{p}$ success cor_uncertain_fit,binary energy state fit,binary energy state_uncertain,binary energy state_uncertain_fit,$\mathit{p}$ success cor + cap fit,$\mathit{p}$ success cor + cap_uncertain,$\mathit{p}$ success cor + cap_uncertain_fit,optimal policy fit,optimal policy_uncertain,optimal policy_uncertain_fit
0.0,0.0,0.0,0.0,0.0,0.0,0.0,0.0,22.026443299953826,25.53011019993573,None,left,1.985562499961816,27.2461767999921,ry1,27.2461767999921,None,22.026443299953826,25.530110199935734,True,5.0,['p'],True,0.375,0.5,0.25,1.0,1.0,0.9850568223215076,0.0361323788439721,succ_gain,0.0,6.0,,,ry1,1,2022-04-07_14h25.11.903,threat_forest,2021.2.3,60.07810152520136,True,69.0,0.3928571428571428,0.3928571428571428,-1.2665816326530612,-1.2665816326530612,1,0,1,0.6859022492915834,0.0361323788439721,0.375,0.375,0.5,0.75,-1.25,-1.125,3.875,3.875,1.0,1.0,,5.0,0,0,1,0.48604023880233255,0.2498051250673041,0.07450416860783937,0.41879228414435493,0.24340530688550877,0.08321348613886168,,,,0.5037481982563464,0.2499859510098311,0.07562700604076456,0.3765702195962186,0.23476508930947432,0.09627330483018705,0.7073161354790837,0.20702001997001818,0.07505610062174894,0.5210670810118501,0.24955617809764016,0.12060798676337378,0.4066694247763538,0.2412894037284233,0.11076775205854636,0.4801439924363855,0.2496057389636337,0.19642661370098366,0.4804994708581109,0.24961972936318633,0.17378100385354162
0.0,0.0,0.0,0.0,2.0,0.0,2.0,0.0,,,,left,1.513413600041531,42.33067179995123,ry1,29.26404359994922,31.266141399974003,42.33067179995123,None,False,5.0,['p'],False,0.2448979591836734,0.2857142857142857,0.1428571428571428,1.0,1.0,0.8400769154957735,-0.0274362451318329,wait_cost,1.0,4.0,39.196962299989536,None,ry1,1,2022-04-07_14h25.11.903,threat_forest,2021.2.3,60.07810152520136,False,69.0,0.3928571428571428,0.3928571428571428,-1.2665816326530612,-1.2665816326530612,0,0,0,0.4143677616536136,-0.0274362451318329,0.2448979591836734,0.2448979591836734,0.2857142857142857,0.8571428571428572,-1.5714285714285712,-1.4081632653061225,3.591836734693877,3.591836734693877,0.0,1.0,-1.0,5.0,0,0,0,0.4464136091361489,0.24712849871418657,0.10342240952660875,0.5003571723878024,0.24999987242788535,0.07946011967842304,0.4966005268704677,0.24998844358244163,0.07744491934301417,0.3620343383648345,0.23096547620957106,0.09614600606083079,0.2812114519869028,0.20213157125832065,0.0828996526509029,0.25136603545769326,0.18818115167597496,0.10055743431314779,0.2865215147810901,0.20442693634863968,0.08704005192842942,0.4066694247763538,0.2412894037284233,0.11076775205854636,0.2838243049865661,0.20326806888545879,0.13272751990060525,0.1439760343238322,0.12324693586421491,0.06068359577394851
0.0,0.0,0.0,0.0,3.0,0.0,3.0,0.0,,,,left,1.2636616000672802,47.947845899965614,ry1,47.947845899965614,None,43.86395429994445,45.86375010001939,True,4.0,['p'],True,0.375,0.5,0.25,1.0,1.0,0.9850568223215076,0.0767058090154061,unsucc_cost,0.0,2.0,45.86375010001939,None,ry1,1,2022-04-07_14h25.11.903,threat_forest,2021.2.3,60.07810152520136,True,69.0,0.3928571428571428,0.3928571428571428,-1.2665816326530612,-1.2665816326530612,1,0,1,0.2340135384151171,0.0767058090154061,0.375,0.375,0.5,0.75,-1.25,-1.125,2.875,2.875,1.0,1.0,-1.0,4.0,0,0,1,0.48604023880233255,0.2498051250673041,0.07450416860783937,0.41879228414435493,0.24340530688550877,0.08321348613886168,0.4966005268704677,0.24998844358244163,0.07744491934301417,0.5037481982563464,0.2499859510098311,0.07562700604076456,0.3765702195962186,0.23476508930947432,0.09627330483018705,0.7073161354790837,0.20702001997001818,0.07505610062174894,0.5210670810118501,0.24955617809764016,0.12060798676337378,0.4066694247763538,0.2412894037284233,0.11076775205854636,0.4801439924363855,0.2496057389636337,0.19642661370098366,0.7330095385234563,0.19570655495708594,0.1255313757662853
0.0,0.0,0.0,0.0,4.0,0.0,4.0,0.0,,,,left,2.3987698999699205,52.29818779998459,ry1,52.29818779998459,None,43.86395429994445,45.86375010001939,True,2.0,['p'],True,0.375,0.5,0.25,1.0,1.0,0.9850568223215076,0.0674554140852768,unsucc_cost,0.0,0.0,51.23064819991123,None,ry1,1,2022-04-07_14h25.11.903,threat_forest,2021.2.3,60.07810152520136,True,69.0,0.3928571428571428,0.3928571428571428,-1.2665816326530612,-1.2665816326530612,1,0,1,0.874956064280315,0.0674554140852768,0.375,0.375,0.5,0.75,-1.25,-1.125,0.875,0.875,1.0,1.0,-1.0,2.0,0,0,1,0.48604023880233255,0.2498051250673041,0.07450416860783937,0.41879228414435493,0.24340530688550877,0.08321348613886168,0.4966005268704677,0.24998844358244163,0.07744491934301417,0.5037481982563464,0.2499859510098311,0.07562700604076456,0.3765702195962186,0.23476508930947432,0.09627330483018705,0.7073161354790837,0.20702001997001818,0.07505610062174894,0.5210670810118501,0.24955617809764016,0.12060798676337378,0.4066694247763538,0.2412894037284233,0.11076775205854636,0.4801439924363855,0.2496057389636337,0.19642661370098366,0.6817647883151092,0.21696156172876357,0.14455355694969413
1.0,0.0,1.0,0.0,1.0,0.0,1.0,0.0,,,,left,0.9038987000240012,70.5809565000236,ry1,70.5809565000236,None,58.04553190001752,61.547310999943875,True,3.0,['p'],True,0.4166666666666667,0.5,0.1666666666666666,1.0,1.0,0.9358932809493992,0.0542269098658266,unsucc_cost,0.0,1.0,67.88068169995677,None,ry1,1,2022-04-07_14h25.11.903,threat_forest,2021.2.3,60.07810152520136,True,16.0,0.4,0.3964285714285714,-1.1033333333333333,-1.1849574829931973,1,1,1,-0.1010379823644447,0.0542269098658266,0.4166666666666667,0.4166666666666667,0.5,0.8333333333333334,-0.9999999999999998,-0.9166666666666664,2.083333333333333,2.083333333333333,1.0,1.0,-1.0,3.0,0,1,1,0.48604023880233255,0.2498051250673041,0.07450416860783937,0.48207808460952173,0.24967880494873654,0.079642858617028,0.4966005268704677,0.24998844358244163,0.07744491934301417,0.5037481982563464,0.2499859510098311,0.07562700604076456,0.45851549596692054,0.24827903592512945,0.1018115009058871,0.7073161354790837,0.20702001997001818,0.07505610062174894,0.599530446040881,0.24009369031090327,0.113569619596288,0.4066694247763538,0.2412894037284233,0.11076775205854636,0.5477313969271397,0.24772171374738386,0.1938366971434677,0.6004086321580556,0.23991810658814827,0.165098530675233
1.0,0.0,1.0,0.0,2.0,0.0,2.0,0.0,,,,right,0.7917806999757886,75.60101659991778,ry1,71.5143967999611,73.51414310000837,75.60101659991778,None,True,1.0,['p'],False,0.27,0.3,0.1,1.0,1.0,0.7963326591781347,0.0415481562499999,unsucc_cost,1.0,0.0,73.51414310000837,None,ry1,1,2022-04-07_14h25.11.903,threat_forest,2021.2.3,60.07810152520136,True,16.0,0.4,0.3964285714285714,-1.1033333333333333,-1.1849574829931973,0,0,1,-0.2334708194798883,0.0415481562499999,1.0,0.27,0.3,0.9,-1.4,-1.29,-0.29,0.0,0.0,1.0,-1.0,1.0,1,0,0,0.4464136091361489,0.24712849871418657,0.10342240952660875,0.5332243268682391,0.24889614410415245,0.08008831828303381,0.4966005268704677,0.24998844358244163,0.07744491934301417,0.37103571164518123,0.23336821232913516,0.09355397074082522,0.33030225039716576,0.22120267377973377,0.09071524554521028,0.25136603545769326,0.18818115167597496,0.10055743431314779,0.32738362430293366,0.22020358684120925,0.09877500592109201,0.8510673335072794,0.1267517273440887,-0.053598183750873135,0.9817496640045099,0.017917261231541887,-0.1220690303533038,0.5167896430698992,0.2497181078855854,0.17386904777174567
2.0,0.0,2.0,0.0,0.0,0.0,0.0,0.0,81.30562989995815,84.814361799974,None,right,2.623619200079702,87.21600110002328,ry1,87.21600110002328,None,81.30562989995815,84.814361799974,False,4.0,['p'],True,0.2962962962962963,0.3333333333333333,0.1111111111111111,1.0,1.0,0.8325252476189534,0.0071317107376875,wait_cost,0.0,3.0,,,ry1,1,2022-04-07_14h25.11.903,threat_forest,2021.2.3,60.07810152520136,False,4.0,0.4666666666666667,0.4333333333333333,-0.9911111111111112,-1.0472222222222225,0,0,0,0.9645547386297924,0.0071317107376875,0.2962962962962963,0.2962962962962963,0.3333333333333333,0.8888888888888888,-1.3333333333333337,-1.2222222222222223,2.7777777777777777,2.7777777777777777,1.0,1.0,-1.0,4.0,0,0,0,0.48604023880233255,0.2498051250673041,0.07450416860783937,0.5247193619464788,0.24938895314495899,0.07980783082509921,0.4966005268704677,0.24998844358244163,0.07744491934301417,0.3923810261973601,0.23841815647766673,0.08810616750913958,0.3505243092666481,0.22765701787978732,0.09336032208596894,0.25136603545769326,0.18818115167597496,0.10055743431314779,0.37318020674746244,0.23391674003938367,0.10897509382636072,0.4066694247763538,0.2412894037284233,0.11076775205854636,0.3563350945379968,0.22936039493859373,0.16859590780022757,0.29823800903323977,0.20929209900112894,0.13768976663658705
2.0,0.0,2.0,0.0,1.0,0.0,1.0,0.0,,,,right,0.950243499944918,93.88211220002268,ry1,89.8646604999667,91.86445909994654,93.88211220002268,None,True,3.0,['p'],False,0.48,0.6,0.2,1.0,1.0,0.9455672104350704,0.0733394424822562,succ_gain,1.0,4.0,91.86445909994654,None,ry1,1,2022-04-07_14h25.11.903,threat_forest,2021.2.3,60.07810152520136,True,4.0,0.4666666666666667,0.4333333333333333,-0.9911111111111112,-1.0472222222222225,1,1,1,-0.0510370114993229,0.0733394424822562,0.48,0.48,0.6,0.8,-0.8000000000000002,-0.7600000000000002,2.24,2.24,0.0,1.0,-1.0,3.0,0,1,1,0.4464136091361489,0.24712849871418657,0.10342240952660875,0.45657858025591314,0.24811458030740782,0.08053315355270302,0.4966005268704677,0.24998844358244163,0.07744491934301417,0.5711091018037698,0.24494349564066106,0.08106673049074348,0.525958796507019,0.24932614088390712,0.10224061852329952,0.7073161354790837,0.20702001997001818,0.07505610062174894,0.7086174867977408,0.20647874420219445,0.08856622320126006,0.4066694247763538,0.2412894037284233,0.11076775205854636,0.6464315280434189,0.2285578075948694,0.1674926135170959,0.7149760338240063,0.20378530488129967,0.13276145790385568
2.0,0.0,2.0,0.0,2.0,0.0,2.0,0.0,,,,left,1.516254000016488,99.91525189997628,ry1,99.91525189997628,None,94.8647554999916,96.86457380000502,True,4.0,['p'],True,0.2962962962962963,0.3333333333333333,0.1111111111111111,1.0,1.0,0.8325252476189534,0.0049512748621201,unsucc_cost,0.0,2.0,96.86457380000502,None,ry1,1,2022-04-07_14h25.11.903,threat_forest,2021.2.3,60.07810152520136,True,4.0,0.4666666666666667,0.4333333333333333,-0.9911111111111112,-1.0472222222222225,0,0,1,0.4162428193709038,0.0049512748621201,0.2962962962962963,0.2962962962962963,0.3333333333333333,0.8888888888888888,-1.3333333333333337,-1.2222222222222223,2.7777777777777777,2.7777777777777777,1.0,1.0,1.0,4.0,0,0,0,0.48604023880233255,0.2498051250673041,0.07450416860783937,0.5247193619464788,0.24938895314495899,0.07980783082509921,0.28845935643648274,0.20525055612073292,0.13954812394490745,0.3923810261973601,0.23841815647766673,0.08810616750913958,0.3505243092666481,0.22765701787978732,0.09336032208596894,0.25136603545769326,0.18818115167597496,0.10055743431314779,0.37318020674746244,0.23391674003938367,0.10897509382636072,0.4066694247763538,0.2412894037284233,0.11076775205854636,0.3563350945379968,0.22936039493859373,0.16859590780022757,0.2861469940282367,0.20426689183684096,0.13319245444139055
2.0,0.0,2.0,0.0,3.0,0.0,3.0,0.0,,,,right,1.0458035001065582,105.29861239995807,ry1,101.44842689996584,103.44797929993365,105.29861239995807,None,True,2.0,['p'],False,0.48,0.6,0.2,1.0,1.0,0.9455672104350704,0.0638323814540466,figh_cost,1.0,0.0,103.44797929993364,None,ry1,1,2022-04-07_14h25.11.903,threat_forest,2021.2.3,60.07810152520136,True,4.0,0.4666666666666667,0.4333333333333333,-0.9911111111111112,-1.0472222222222225,1,1,1,0.0447854895883983,0.0638323814540466,0.48,0.48,0.6,0.8,-0.8000000000000002,-0.7600000000000002,1.2399999999999998,1.2399999999999998,0.0,1.0,-1.0,2.0,0,1,1,0.4464136091361489,0.24712849871418657,0.10342240952660875,0.45657858025591314,0.24811458030740782,0.08053315355270302,0.4966005268704677,0.24998844358244163,0.07744491934301417,0.5711091018037698,0.24494349564066106,0.08106673049074348,0.525958796507019,0.24932614088390712,0.10224061852329952,0.7073161354790837,0.20702001997001818,0.07505610062174894,0.7086174867977408,0.20647874420219445,0.08856622320126006,0.4066694247763538,0.2412894037284233,0.11076775205854636,0.6464315280434189,0.2285578075948694,0.1674926135170959,0.6603246604961567,0.2242960032367921,0.15111751981940913
3.0,0.0,3.0,0.0,0.0,0.0,0.0,0.0,109.50643910001963,113.0147139999317,None,left,0.8354914999799803,114.28219790000004,ry1,114.28219790000004,None,109.50643910001963,113.0147139999317,True,5.0,['r'],True,0.3333333333333333,0.3333333333333333,0.0,0.0,2.0,0.5793801642856949,0.0388172421765338,unsucc_cost,0.0,3.0,,,ry1,1,2022-04-07_14h25.11.903,threat_forest,2021.2.3,60.07810152520136,True,10.0,0.3541666666666666,0.4104166666666666,-0.8958333333333335,-0.9434722222222224,1,0,1,-0.1797351045711743,0.0388172421765338,0.3333333333333333,0.3333333333333333,0.3333333333333333,1.0,-0.6666666666666669,-0.6666666666666669,4.333333333333333,4.333333333333333,1.0,2.0,-1.0,5.0,0,0,1,0.48604023880233255,0.2498051250673041,0.07450416860783937,0.6083331680731455,0.2382639246952356,0.08613975798334672,0.4966005268704677,0.24998844358244163,0.07744491934301417,0.3923810261973601,0.23841815647766673,0.08810616750913958,0.570549788766683,0.24502272730497643,0.10047702207936071,0.7073161354790837,0.20702001997001818,0.07505610062174894,0.44155032002863875,0.2465836349112454,0.11839695612984519,0.4066694247763538,0.2412894037284233,0.11076775205854636,0.4132756292200079,0.24247888351281446,0.18662952564934912,0.4984884129004424,0.24999771510444038,0.17411928242160402
3.0,0.0,3.0,0.0,1.0,0.0,1.0,0.0,,,,left,1.6581023999024185,120.18294249998873,ry1,115.1484296999406,117.14825219998602,120.18294249998873,None,False,3.0,['r'],False,0.28125,0.375,0.25,2.0,2.0,0.9634951148421658,0.0525198115612938,wait_cost,1.0,2.0,117.14825219998602,None,ry1,1,2022-04-07_14h25.11.903,threat_forest,2021.2.3,60.07810152520136,False,10.0,0.3541666666666666,0.4104166666666666,-0.8958333333333335,-0.9434722222222224,0,0,0,0.5056738159051318,0.0525198115612938,0.28125,0.28125,0.375,0.75,-1.25,-1.125,1.875,1.875,0.0,2.0,-1.0,3.0,0,0,0,0.4464136091361489,0.24712849871418657,0.10342240952660875,0.41879228414435493,0.24340530688550877,0.08321348613886168,0.4966005268704677,0.24998844358244163,0.07744491934301417,0.41964333652411406,0.2435428066350232,0.08257777256706417,0.3765702195962186,0.23476508930947432,0.09627330483018705,0.25136603545769326,0.18818115167597496,0.10055743431314779,0.3466355859683849,0.22647935650873932,0.10344303532008883,0.4066694247763538,0.2412894037284233,0.11076775205854636,0.3342202676871796,0.2225170803542896,0.15918859541538669,0.5893772909821257,0.24201169985669646,0.16697219323890505
3.0,0.0,3.0,0.0,2.0,0.0,2.0,0.0,,,,left,1.1970276999054477,126.06555299996398,ry1,115.1484296999406,117.14825219998602,126.06555299996398,None,False,2.0,['r'],False,0.28125,0.375,0.25,2.0,2.0,0.9634951148421658,-0.0033863208912037,wait_cost,1.0,1.0,123.86523739993572,None,ry1,1,2022-04-07_14h25.11.903,threat_forest,2021.2.3,60.07810152520136,False,10.0,0.3541666666666666,0.4104166666666666,-0.8958333333333335,-0.9434722222222224,0,0,0,0.1798415674153927,-0.0033863208912037,0.28125,0.28125,0.375,0.75,-1.25,-1.125,0.875,0.875,0.0,2.0,-1.0,2.0,0,0,0,0.4464136091361489,0.24712849871418657,0.10342240952660875,0.41879228414435493,0.24340530688550877,0.08321348613886168,0.4966005268704677,0.24998844358244163,0.07744491934301417,0.41964333652411406,0.2435428066350232,0.08257777256706417,0.3765702195962186,0.23476508930947432,0.09627330483018705,0.25136603545769326,0.18818115167597496,0.10055743431314779,0.3466355859683849,0.22647935650873932,0.10344303532008883,0.4066694247763538,0.2412894037284233,0.11076775205854636,0.3342202676871796,0.2225170803542896,0.15918859541538669,0.2427343825024349,0.18381440205359653,0.11488848632282449
3.0,0.0,3.0,0.0,3.0,0.0,3.0,0.0,,,,right,1.6248881000792608,132.4157323000254,ry1,115.1484296999406,117.14825219998602,132.4157323000254,None,True,1.0,['r'],False,0.28125,0.375,0.25,2.0,2.0,0.9634951148421658,0.1354904174804687,unsucc_cost,1.0,0.0,129.28169410000555,None,ry1,1,2022-04-07_14h25.11.903,threat_forest,2021.2.3,60.07810152520136,True,10.0,0.3541666666666666,0.4104166666666666,-0.8958333333333335,-0.9434722222222224,0,0,1,0.4854389519209539,0.1354904174804687,1.0,0.28125,0.375,0.75,-1.25,-1.125,-0.125,0.0,0.0,2.0,-1.0,1.0,1,0,0,0.4464136091361489,0.24712849871418657,0.10342240952660875,0.41879228414435493,0.24340530688550877,0.08321348613886168,0.4966005268704677,0.24998844358244163,0.07744491934301417,0.41964333652411406,0.2435428066350232,0.08257777256706417,0.3765702195962186,0.23476508930947432,0.09627330483018705,0.25136603545769326,0.18818115167597496,0.10055743431314779,0.3466355859683849,0.22647935650873932,0.10344303532008883,0.8510673335072794,0.1267517273440887,-0.053598183750873135,0.9817496640045099,0.017917261231541887,-0.1220690303533038,0.9299727562147535,0.06512342891308823,0.008665928025532815
4.0,0.0,4.0,0.0,0.0,0.0,0.0,0.0,139.7374205000233,143.2484902999131,None,right,1.8930561000015589,145.7988205999136,ry1,145.7988205999136,None,139.7374205000233,143.2484902999131,False,4.0,['r'],True,0.3333333333333333,0.5,0.3333333333333333,2.0,1.0,1.0,0.0143529277549154,wait_cost,0.0,3.0,,,ry1,1,2022-04-07_14h25.11.903,threat_forest,2021.2.3,60.07810152520136,False,7.0,0.45,0.4020833333333333,-1.0666666666666669,-0.98125,0,0,0,0.6381925072880942,0.0143529277549154,0.3333333333333333,0.3333333333333333,0.5,0.6666666666666667,-1.5,-1.3333333333333337,2.6666666666666665,2.6666666666666665,1.0,1.0,-1.0,4.0,0,0,0,0.48604023880233255,0.2498051250673041,0.07450416860783937,0.3580706544462322,0.22985606087067917,0.09092518226645308,0.4966005268704677,0.24998844358244163,0.07744491934301417,0.5037481982563464,0.2499859510098311,0.07562700604076456,0.30112575706471567,0.21044903549691749,0.08630826074416045,0.25136603545769326,0.18818115167597496,0.10055743431314779,0.44155032002863875,0.2465836349112454,0.11839695612984519,0.4066694247763538,0.2412894037284233,0.11076775205854636,0.4132756292200079,0.24247888351281446,0.18662952564934912,0.34027621326351337,0.22448831195055735,0.15128962661926515
4.0,0.0,4.0,0.0,1.0,0.0,1.0,0.0,,,,right,2.199754099943675,150.64928859996144,ry1,150.64928859996144,None,139.7374205000233,143.2484902999131,False,3.0,['r'],True,0.3333333333333333,0.5,0.3333333333333333,2.0,1.0,1.0,0.0216859945130315,wait_cost,0.0,2.0,149.71533719997387,None,ry1,1,2022-04-07_14h25.11.903,threat_forest,2021.2.3,60.07810152520136,False,7.0,0.45,0.4020833333333333,-1.0666666666666669,-0.98125,0,0,0,0.7883455813643556,0.0216859945130315,0.3333333333333333,0.3333333333333333,0.5,0.6666666666666667,-1.5,-1.3333333333333337,1.6666666666666663,1.6666666666666663,1.0,1.0,-1.0,3.0,0,0,0,0.48604023880233255,0.2498051250673041,0.07450416860783937,0.3580706544462322,0.22985606087067917,0.09092518226645308,0.4966005268704677,0.24998844358244163,0.07744491934301417,0.5037481982563464,0.2499859510098311,0.07562700604076456,0.30112575706471567,0.21044903549691749,0.08630826074416045,0.25136603545769326,0.18818115167597496,0.10055743431314779,0.44155032002863875,0.2465836349112454,0.11839695612984519,0.4066694247763538,0.2412894037284233,0.11076775205854636,0.4132756292200079,0.24247888351281446,0.18662952564934912,0.38569956050208953,0.23693540953058453,0.16242916413709574
4.0,0.0,4.0,0.0,2.0,0.0,2.0,0.0,,,,right,1.287669699988328,155.7159937999677,ry1,155.7159937999677,None,139.7374205000233,143.2484902999131,False,2.0,['r'],True,0.3333333333333333,0.5,0.3333333333333333,2.0,1.0,1.0,0.020927160493827,wait_cost,0.0,1.0,154.86539469996933,None,ry1,1,2022-04-07_14h25.11.903,threat_forest,2021.2.3,60.07810152520136,False,7.0,0.45,0.4020833333333333,-1.0666666666666669,-0.98125,0,0,0,0.2528341506863078,0.020927160493827,0.3333333333333333,0.3333333333333333,0.5,0.6666666666666667,-1.5,-1.3333333333333337,0.6666666666666665,0.6666666666666665,1.0,1.0,-1.0,2.0,0,0,0,0.48604023880233255,0.2498051250673041,0.07450416860783937,0.3580706544462322,0.22985606087067917,0.09092518226645308,0.4966005268704677,0.24998844358244163,0.07744491934301417,0.5037481982563464,0.2499859510098311,0.07562700604076456,0.30112575706471567,0.21044903549691749,0.08630826074416045,0.25136603545769326,0.18818115167597496,0.10055743431314779,0.44155032002863875,0.2465836349112454,0.11839695612984519,0.4066694247763538,0.2412894037284233,0.11076775205854636,0.4132756292200079,0.24247888351281446,0.18662952564934912,0.38088967136480567,0.23581272961241598,0.1614244210643796
4.0,0.0,4.0,0.0,3.0,0.0,3.0,0.0,,,,right,1.0757469000527635,159.84937720000744,ry1,157.03241250000428,159.03215540002566,159.84937720000744,None,True,1.0,['r'],False,0.4,0.4,0.0,0.0,1.0,0.6126016192893442,0.0788740740740741,unsucc_cost,1.0,0.0,159.03215540002566,None,ry1,1,2022-04-07_14h25.11.903,threat_forest,2021.2.3,60.07810152520136,True,7.0,0.45,0.4020833333333333,-1.0666666666666669,-0.98125,1,0,1,0.0730152110710335,0.0788740740740741,1.0,0.4,0.4,1.0,-0.7999999999999999,-0.7999999999999999,0.2,0.2,0.0,1.0,-1.0,1.0,1,0,1,0.4464136091361489,0.24712849871418657,0.10342240952660875,0.6083331680731455,0.2382639246952356,0.08613975798334672,0.4966005268704677,0.24998844358244163,0.07744491934301417,0.4362509523183806,0.24593605891968665,0.07999596826445227,0.5259587965070192,0.24932614088390723,0.10224061852329956,0.7073161354790837,0.20702001997001818,0.07505610062174894,0.5685242617964861,0.2453044255452466,0.11744545739035994,0.8510673335072794,0.1267517273440887,-0.053598183750873135,0.9817496640045099,0.017917261231541887,-0.1220690303533038,0.7442332114214668,0.19035013843875703,0.12073764755909296
5.0,0.0,5.0,0.0,0.0,0.0,0.0,0.0,166.3658984999638,169.86555500002578,None,left,0.8315436000702903,173.2661163000157,ry1,173.2661163000157,None,166.3658984999638,169.86555500002578,True,5.0,['r'],True,0.5,0.5,0.0,0.0,1.0,0.6309297535714574,0.0772781267414693,succ_gain,0.0,6.0,,,ry1,1,2022-04-07_14h25.11.903,threat_forest,2021.2.3,60.07810152520136,True,30.0,0.5833333333333333,0.5166666666666666,-1.25,-1.1583333333333332,1,0,1,-0.184471546281523,0.0772781267414693,0.5,0.5,0.5,1.0,-0.5,-0.5,4.5,4.5,1.0,1.0,-1.0,5.0,0,0,1,0.48604023880233255,0.2498051250673041,0.07450416860783937,0.6083331680731455,0.2382639246952356,0.08613975798334672,0.4966005268704677,0.24998844358244163,0.07744491934301417,0.5037481982563464,0.2499859510098311,0.07562700604076456,0.6246428606013179,0.23446415730112039,0.09614997886811853,0.7073161354790837,0.20702001997001818,0.07505610062174894,0.7392146257579928,0.19277636282346342,0.07837414756739491,0.4066694247763538,0.2412894037284233,0.11076775205854636,0.6755636290514933,0.21917741215426967,0.15459764732549972,0.7360022579211561,0.19430293425611608,0.1242752045698494
5.0,0.0,5.0,0.0,2.0,0.0,2.0,0.0,,,,left,0.9440423999913036,186.5997847999679,ry1,182.1326894999948,184.13270319998264,186.5997847999679,None,False,5.0,['r'],False,0.2222222222222222,0.6666666666666666,0.6666666666666666,2.0,1.0,0.77250688571426,-0.1641535922496569,wait_cost,1.0,4.0,184.13270319998264,None,ry1,1,2022-04-07_14h25.11.903,threat_forest,2021.2.3,60.07810152520136,False,30.0,0.5833333333333333,0.5166666666666666,-1.25,-1.1583333333333332,0,0,0,-0.0575841986002708,-0.1641535922496569,0.2222222222222222,0.2222222222222222,0.6666666666666666,0.3333333333333333,-2.0,-2.0,3.0,3.0,0.0,1.0,-1.0,5.0,0,0,0,0.4464136091361489,0.24712849871418657,0.10342240952660875,0.16689330789396295,0.13903993167417386,0.14261413906013778,0.4966005268704677,0.24998844358244163,0.07744491934301417,0.6147446867096737,0.23683365687189878,0.08981550167581887,0.17982031809751117,0.1474849712968211,0.06050474507397552,0.25136603545769326,0.18818115167597496,0.10055743431314779,0.2523632116043728,0.18867602103309936,0.07532424021939502,0.4066694247763538,0.2412894037284233,0.11076775205854636,0.2548255274906783,0.18988947802977588,0.11433634674935914,0.004283193165601135,0.004264847421907284,-0.04579949633900247
5.0,0.0,5.0,0.0,3.0,0.0,3.0,0.0,,,,left,0.7975866999477148,190.28316929994617,ry1,182.1326894999948,184.13270319998264,190.28316929994617,None,False,4.0,['r'],False,0.2222222222222222,0.6666666666666666,0.6666666666666666,2.0,1.0,0.77250688571426,-0.1542031035665295,wait_cost,1.0,3.0,189.5659997999901,None,ry1,1,2022-04-07_14h25.11.903,threat_forest,2021.2.3,60.07810152520136,False,30.0,0.5833333333333333,0.5166666666666666,-1.25,-1.1583333333333332,0,0,0,-0.2261647355641677,-0.1542031035665295,0.2222222222222222,0.2222222222222222,0.6666666666666666,0.3333333333333333,-2.0,-2.0,2.0,2.0,0.0,1.0,-1.0,4.0,0,0,0,0.4464136091361489,0.24712849871418657,0.10342240952660875,0.16689330789396295,0.13903993167417386,0.14261413906013778,0.4966005268704677,0.24998844358244163,0.07744491934301417,0.6147446867096737,0.23683365687189878,0.08981550167581887,0.17982031809751117,0.1474849712968211,0.06050474507397552,0.25136603545769326,0.18818115167597496,0.10055743431314779,0.2523632116043728,0.18867602103309936,0.07532424021939502,0.4066694247763538,0.2412894037284233,0.11076775205854636,0.2548255274906783,0.18988947802977588,0.11433634674935914,0.0055857283953373955,0.005554528033630918,-0.04464529589444527
5.0,0.0,5.0,0.0,4.0,0.0,4.0,0.0,,,,left,0.8046052000718191,196.599867300014,ry1,196.599867300014,None,191.0996333999792,193.09923739999067,True,3.0,['r'],True,0.5,0.5,0.0,0.0,1.0,0.6309297535714574,0.1471836419753086,unsucc_cost,0.0,1.0,193.09923739999067,None,ry1,1,2022-04-07_14h25.11.903,threat_forest,2021.2.3,60.07810152520136,True,30.0,0.5833333333333333,0.5166666666666666,-1.25,-1.1583333333333332,1,0,1,-0.2174035565593955,0.1471836419753086,0.5,0.5,0.5,1.0,-0.5,-0.5,2.5,2.5,1.0,1.0,-1.0,3.0,0,0,1,0.48604023880233255,0.2498051250673041,0.07450416860783937,0.6083331680731455,0.2382639246952356,0.08613975798334672,0.4966005268704677,0.24998844358244163,0.07744491934301417,0.5037481982563464,0.2499859510098311,0.07562700604076456,0.6246428606013179,0.23446415730112039,0.09614997886811853,0.7073161354790837,0.20702001997001818,0.07505610062174894,0.7392146257579928,0.19277636282346342,0.07837414756739491,0.4066694247763538,0.2412894037284233,0.11076775205854636,0.6755636290514933,0.21917741215426967,0.15459764732549972,0.947837928735795,0.049441189585633094,-0.005368901558522182
5.0,0.0,5.0,0.0,5.0,0.0,5.0,0.0,,,,left,0.9410341000184416,202.68314430001192,ry1,202.68314430001192,None,191.0996333999792,193.09923739999067,True,1.0,['r'],True,0.5,0.5,0.0,0.0,1.0,0.6309297535714574,0.2152777777777778,succ_gain,0.0,2.0,199.43274339998607,None,ry1,1,2022-04-07_14h25.11.903,threat_forest,2021.2.3,60.07810152520136,True,30.0,0.5833333333333333,0.5166666666666666,-1.25,-1.1583333333333332,1,0,1,-0.0607759019891089,0.2152777777777778,1.0,0.5,0.5,1.0,-0.5,-0.5,0.5,0.5,1.0,1.0,-1.0,1.0,1,0,1,0.48604023880233255,0.2498051250673041,0.07450416860783937,0.6083331680731455,0.2382639246952356,0.08613975798334672,0.4966005268704677,0.24998844358244163,0.07744491934301417,0.5037481982563464,0.2499859510098311,0.07562700604076456,0.6246428606013179,0.23446415730112039,0.09614997886811853,0.7073161354790837,0.20702001997001818,0.07505610062174894,0.7392146257579928,0.19277636282346342,0.07837414756739491,0.8510673335072794,0.1267517273440887,-0.053598183750873135,0.9817496640045099,0.017917261231541887,-0.1220690303533038,0.9912141709163103,0.0087086382910019,-0.04182252300932408
5.0,0.0,5.0,0.0,6.0,0.0,6.0,0.0,,,,left,0.6395474999444559,206.94993889995385,ry1,203.64968829997807,205.64959749998525,206.94993889995385,None,False,2.0,['r'],False,0.2222222222222222,0.6666666666666666,0.6666666666666666,2.0,1.0,0.77250688571426,-0.1388888888888889,wait_cost,1.0,1.0,205.64959749998525,None,ry1,1,2022-04-07_14h25.11.903,threat_forest,2021.2.3,60.07810152520136,False,30.0,0.5833333333333333,0.5166666666666666,-1.25,-1.1583333333333332,0,0,0,-0.4469943840297387,-0.1388888888888889,0.2222222222222222,0.2222222222222222,0.6666666666666666,0.3333333333333333,-2.0,-2.0,0.0,0.0,0.0,1.0,1.0,2.0,0,0,0,0.4464136091361489,0.24712849871418657,0.10342240952660875,0.16689330789396295,0.13903993167417386,0.14261413906013778,0.28845935643648274,0.20525055612073292,0.13954812394490745,0.6147446867096737,0.23683365687189878,0.08981550167581887,0.17982031809751117,0.1474849712968211,0.06050474507397552,0.25136603545769326,0.18818115167597496,0.10055743431314779,0.2523632116043728,0.18867602103309936,0.07532424021939502,0.4066694247763538,0.2412894037284233,0.11076775205854636,0.2548255274906783,0.18988947802977588,0.11433634674935914,0.00839836631450761,0.008327833757754956,-0.04216332425698772
5.0,0.0,5.0,0.0,7.0,0.0,7.0,0.0,,,,right,0.5778778999811038,212.14966439991252,ry1,212.14966439991252,None,207.61640739999712,209.61632959998678,False,1.0,['r'],True,0.5,0.5,0.0,0.0,1.0,0.6309297535714574,0.5,wait_cost,0.0,0.0,209.6163295999868,None,ry1,1,2022-04-07_14h25.11.903,threat_forest,2021.2.3,60.07810152520136,False,30.0,0.5833333333333333,0.5166666666666666,-1.25,-1.1583333333333332,1,0,0,-0.5483926783327095,0.5,1.0,0.5,0.5,1.0,-0.5,-0.5,0.5,0.5,1.0,1.0,-1.0,1.0,1,0,1,0.48604023880233255,0.2498051250673041,0.07450416860783937,0.6083331680731455,0.2382639246952356,0.08613975798334672,0.4966005268704677,0.24998844358244163,0.07744491934301417,0.5037481982563464,0.2499859510098311,0.07562700604076456,0.6246428606013179,0.23446415730112039,0.09614997886811853,0.7073161354790837,0.20702001997001818,0.07505610062174894,0.7392146257579928,0.19277636282346342,0.07837414756739491,0.8510673335072794,0.1267517273440887,-0.053598183750873135,0.9817496640045099,0.017917261231541887,-0.1220690303533038,0.9999957163198709,4.283661779086195e-06,-0.04961249045653985
6.0,0.0,6.0,0.0,0.0,0.0,0.0,0.0,216.4721168000251,219.9830644999165,None,right,1.346006999956444,221.5505095999688,ry1,216.4721168000251,219.9830644999165,221.5505095999688,None,True,5.0,['r'],False,0.25,0.25,0.0,0.0,2.0,0.5118595071429148,0.0218437876829995,unsucc_cost,1.0,3.0,,,ry1,1,2022-04-07_14h25.11.903,threat_forest,2021.2.3,60.07810152520136,True,34.0,0.4583333333333333,0.5208333333333333,-1.3888888888888888,-1.3194444444444444,1,0,1,0.2971424317710072,0.0218437876829995,0.25,0.25,0.25,1.0,-1.0,-1.0,4.0,4.0,0.0,2.0,-1.0,5.0,0,0,1,0.4464136091361489,0.24712849871418657,0.10342240952660875,0.6083331680731455,0.2382639246952356,0.08613975798334672,0.4966005268704677,0.24998844358244163,0.07744491934301417,0.3399608980194541,0.22438748583726048,0.10324224240607655,0.4585154959669205,0.2482790359251294,0.10181150090588709,0.7073161354790837,0.20702001997001818,0.07505610062174894,0.29457764918502843,0.20780165778565077,0.08955022991709877,0.4066694247763538,0.2412894037284233,0.11076775205854636,0.2906169528064512,0.20615873954794411,0.13670124368440814,0.3867025809517884,0.23716369483701394,0.16263346821034574
6.0,0.0,6.0,0.0,1.0,0.0,1.0,0.0,,,,right,1.0243025000672787,226.80008860002272,ry1,216.4721168000251,219.9830644999165,226.80008860002272,None,True,3.0,['r'],False,0.25,0.25,0.0,0.0,2.0,0.5118595071429148,0.0633364704901298,unsucc_cost,1.0,1.0,224.91650749999096,None,ry1,1,2022-04-07_14h25.11.903,threat_forest,2021.2.3,60.07810152520136,True,34.0,0.4583333333333333,0.5208333333333333,-1.3888888888888888,-1.3194444444444444,1,0,1,0.0240118932142596,0.0633364704901298,0.25,0.25,0.25,1.0,-1.0,-1.0,2.0,2.0,0.0,2.0,-1.0,3.0,0,0,1,0.4464136091361489,0.24712849871418657,0.10342240952660875,0.6083331680731455,0.2382639246952356,0.08613975798334672,0.4966005268704677,0.24998844358244163,0.07744491934301417,0.3399608980194541,0.22438748583726048,0.10324224240607655,0.4585154959669205,0.2482790359251294,0.10181150090588709,0.7073161354790837,0.20702001997001818,0.07505610062174894,0.29457764918502843,0.20780165778565077,0.08955022991709877,0.4066694247763538,0.2412894037284233,0.11076775205854636,0.2906169528064512,0.20615873954794411,0.13670124368440814,0.6573356467844148,0.22524549425092988,0.151967267377571
6.0,0.0,6.0,0.0,2.0,0.0,2.0,0.0,,,,right,0.8393275000853464,231.63349789998028,ry1,216.4721168000251,219.9830644999165,231.63349789998028,None,True,1.0,['r'],False,0.25,0.25,0.0,0.0,2.0,0.5118595071429148,0.0691086254983281,succ_gain,1.0,3.0,229.85008709994145,None,ry1,1,2022-04-07_14h25.11.903,threat_forest,2021.2.3,60.07810152520136,True,34.0,0.4583333333333333,0.5208333333333333,-1.3888888888888888,-1.3194444444444444,1,0,1,-0.175154302928707,0.0691086254983281,1.0,0.25,0.25,1.0,-1.0,-1.0,0.0,0.0,0.0,2.0,-1.0,1.0,1,0,1,0.4464136091361489,0.24712849871418657,0.10342240952660875,0.6083331680731455,0.2382639246952356,0.08613975798334672,0.4966005268704677,0.24998844358244163,0.07744491934301417,0.3399608980194541,0.22438748583726048,0.10324224240607655,0.4585154959669205,0.2482790359251294,0.10181150090588709,0.7073161354790837,0.20702001997001818,0.07505610062174894,0.29457764918502843,0.20780165778565077,0.08955022991709877,0.8510673335072794,0.1267517273440887,-0.053598183750873135,0.9817496640045099,0.017917261231541887,-0.1220690303533038,0.6913045462091593,0.21340257059970763,0.14136843568324237
6.0,0.0,6.0,0.0,3.0,0.0,3.0,0.0,,,,right,1.3261509999865666,235.85019989998543,ry1,235.85019989998543,None,232.50031399994623,234.49993149994407,False,3.0,['r'],True,0.2222222222222222,0.6666666666666666,0.6666666666666666,2.0,2.0,0.77250688571426,-0.0119720817139155,wait_cost,0.0,2.0,234.49993149994407,None,ry1,1,2022-04-07_14h25.11.903,threat_forest,2021.2.3,60.07810152520136,False,34.0,0.4583333333333333,0.5208333333333333,-1.3888888888888888,-1.3194444444444444,0,0,0,0.2822807615898839,-0.0119720817139155,0.2222222222222222,0.2222222222222222,0.6666666666666666,0.3333333333333333,-1.3333333333333337,-1.777777777777778,1.222222222222222,1.222222222222222,1.0,2.0,1.0,3.0,0,0,0,0.48604023880233255,0.2498051250673041,0.07450416860783937,0.16689330789396295,0.13903993167417386,0.14261413906013778,0.28845935643648274,0.20525055612073292,0.13954812394490745,0.6147446867096737,0.23683365687189878,0.08981550167581887,0.3505243092666481,0.22765701787978732,0.09336032208596894,0.25136603545769326,0.18818115167597496,0.10055743431314779,0.2523632116043728,0.18867602103309936,0.07532424021939502,0.4066694247763538,0.2412894037284233,0.11076775205854636,0.2548255274906783,0.18988947802977588,0.11433634674935914,0.202947083480385,0.16175956478719064,0.09515049635374125
6.0,0.0,6.0,0.0,4.0,0.0,4.0,0.0,,,,right,1.1626329999417069,242.18363709992263,ry1,242.18363709992263,None,232.50031399994623,234.49993149994407,False,2.0,['r'],True,0.2222222222222222,0.6666666666666666,0.6666666666666666,2.0,2.0,0.77250688571426,-0.0138888888888889,wait_cost,0.0,1.0,239.20002099999687,None,ry1,1,2022-04-07_14h25.11.903,threat_forest,2021.2.3,60.07810152520136,False,34.0,0.4583333333333333,0.5208333333333333,-1.3888888888888888,-1.3194444444444444,0,0,0,0.150687260487221,-0.0138888888888889,0.2222222222222222,0.2222222222222222,0.6666666666666666,0.3333333333333333,-1.3333333333333337,-1.777777777777778,0.2222222222222221,0.2222222222222221,1.0,2.0,-1.0,2.0,0,0,0,0.48604023880233255,0.2498051250673041,0.07450416860783937,0.16689330789396295,0.13903993167417386,0.14261413906013778,0.4966005268704677,0.24998844358244163,0.07744491934301417,0.6147446867096737,0.23683365687189878,0.08981550167581887,0.3505243092666481,0.22765701787978732,0.09336032208596894,0.25136603545769326,0.18818115167597496,0.10055743431314779,0.2523632116043728,0.18867602103309936,0.07532424021939502,0.4066694247763538,0.2412894037284233,0.11076775205854636,0.2548255274906783,0.18988947802977588,0.11433634674935914,0.19475950407235013,0.1568282396458424,0.09073720393183433
6.0,0.0,6.0,0.0,5.0,0.0,5.0,0.0,,,,left,1.6711198000703007,247.55057849991127,ry1,247.55057849991127,None,232.50031399994623,234.49993149994407,True,1.0,['r'],True,0.2222222222222222,0.6666666666666666,0.6666666666666666,2.0,2.0,0.77250688571426,0.2222222222222222,figh_cost,0.0,0.0,245.36689449998084,None,ry1,1,2022-04-07_14h25.11.903,threat_forest,2021.2.3,60.07810152520136,True,34.0,0.4583333333333333,0.5208333333333333,-1.3888888888888888,-1.3194444444444444,0,0,1,0.5134939406821103,0.2222222222222222,1.0,0.2222222222222222,0.6666666666666666,0.3333333333333333,-1.3333333333333337,-1.777777777777778,-0.7777777777777779,0.0,1.0,2.0,-1.0,1.0,1,0,0,0.48604023880233255,0.2498051250673041,0.07450416860783937,0.16689330789396295,0.13903993167417386,0.14261413906013778,0.4966005268704677,0.24998844358244163,0.07744491934301417,0.6147446867096737,0.23683365687189878,0.08981550167581887,0.3505243092666481,0.22765701787978732,0.09336032208596894,0.25136603545769326,0.18818115167597496,0.10055743431314779,0.2523632116043728,0.18867602103309936,0.07532424021939502,0.8510673335072794,0.1267517273440887,-0.053598183750873135,0.9817496640045099,0.017917261231541887,-0.1220690303533038,0.9926960388382978,0.007250613313050498,-0.043127383346394585
7.0,0.0,7.0,0.0,0.0,0.0,0.0,0.0,254.39093479991425,257.90032219991554,None,right,2.08875979995355,258.5507354999427,ry1,254.39093479991425,257.90032219991554,258.5507354999427,None,True,4.0,['p'],False,0.375,0.5,0.25,1.0,2.0,0.9850568223215076,0.0498268584470121,figh_cost,1.0,1.0,,,ry1,1,2022-04-07_14h25.11.903,threat_forest,2021.2.3,60.07810152520136,True,31.0,0.4166666666666666,0.4375,-0.9675925925925928,-1.178240740740741,1,0,1,0.7365704926955385,0.0498268584470121,0.375,0.375,0.5,0.75,-0.75,-0.75,3.25,3.25,0.0,2.0,-1.0,4.0,0,0,1,0.4464136091361489,0.24712849871418657,0.10342240952660875,0.41879228414435493,0.24340530688550877,0.08321348613886168,0.4966005268704677,0.24998844358244163,0.07744491934301417,0.5037481982563464,0.2499859510098311,0.07562700604076456,0.5427679570626966,0.24817090184868335,0.10176718611503766,0.7073161354790837,0.20702001997001818,0.07505610062174894,0.5210670810118501,0.24955617809764016,0.12060798676337378,0.4066694247763538,0.2412894037284233,0.11076775205854636,0.4801439924363855,0.2496057389636337,0.19642661370098366,0.5717952407097037,0.24484544341143574,0.16950825374947592
8.0,0.0,8.0,0.0,0.0,0.0,0.0,0.0,272.65638649999164,276.1672087999759,None,right,0.7657773999962956,277.3344253000105,ry1,272.65638649999164,276.1672087999759,277.3344253000105,None,True,5.0,['r'],False,0.5,0.5,0.0,0.0,1.0,0.6309297535714574,0.0653299800297634,unsucc_cost,1.0,3.0,,,ry1,1,2022-04-07_14h25.11.903,threat_forest,2021.2.3,60.07810152520136,True,35.0,0.5357142857142857,0.4761904761904761,-0.7806122448979592,-0.8741024187452759,1,1,1,-0.2668637520010902,0.0653299800297634,0.5,0.5,0.5,1.0,-0.5,-0.5,4.5,4.5,0.0,1.0,-1.0,5.0,0,1,1,0.4464136091361489,0.24712849871418657,0.10342240952660875,0.6083331680731455,0.2382639246952356,0.08613975798334672,0.4966005268704677,0.24998844358244163,0.07744491934301417,0.5037481982563464,0.2499859510098311,0.07562700604076456,0.6246428606013179,0.23446415730112039,0.09614997886811853,0.7073161354790837,0.20702001997001818,0.07505610062174894,0.7392146257579928,0.19277636282346342,0.07837414756739491,0.4066694247763538,0.2412894037284233,0.11076775205854636,0.6755636290514933,0.21917741215426967,0.15459764732549972,0.669273236716806,0.22134657133141616,0.14847792394936937
8.0,0.0,8.0,0.0,1.0,0.0,1.0,0.0,,,,right,1.387045899988152,281.6508427999215,ry1,281.6508427999215,None,278.1175152999349,280.1173465999309,False,3.0,['r'],True,0.4081632653061224,0.5714285714285714,0.2857142857142857,2.0,1.0,0.9885754083994552,0.0362058160775727,wait_cost,0.0,2.0,280.1173465999309,None,ry1,1,2022-04-07_14h25.11.903,threat_forest,2021.2.3,60.07810152520136,False,35.0,0.5357142857142857,0.4761904761904761,-0.7806122448979592,-0.8741024187452759,0,0,0,0.3271762337830801,0.0362058160775727,0.4081632653061224,0.4081632653061224,0.5714285714285714,0.7142857142857143,-1.1428571428571428,-1.0612244897959184,1.9387755102040816,1.9387755102040816,1.0,1.0,-1.0,3.0,0,0,0,0.48604023880233255,0.2498051250673041,0.07450416860783937,0.392347852747889,0.23841101519200983,0.08605603987732532,0.4966005268704677,0.24998844358244163,0.07744491934301417,0.5520208757506638,0.247293828486134,0.07853122702882354,0.411115625186511,0.24209956791401527,0.09927907226291606,0.25136603545769326,0.18818115167597496,0.10055743431314779,0.583794046348971,0.24297855779646654,0.11571543547995466,0.4066694247763538,0.2412894037284233,0.11076775205854636,0.5339994072502404,0.2488440403066323,0.19537952794725247,0.4809910505439039,0.24963865984057554,0.17379794569574636
8.0,0.0,8.0,0.0,2.0,0.0,2.0,0.0,,,,right,1.014938700012863,286.0680314999772,ry1,283.06774239998776,285.06730929994956,286.0680314999772,None,True,2.0,['r'],False,0.5,0.5,0.0,0.0,1.0,0.6309297535714574,0.0684515063919812,succ_gain,1.0,3.0,285.0673092999496,None,ry1,1,2022-04-07_14h25.11.903,threat_forest,2021.2.3,60.07810152520136,True,35.0,0.5357142857142857,0.4761904761904761,-0.7806122448979592,-0.8741024187452759,1,1,1,0.0148282165939578,0.0684515063919812,0.5,0.5,0.5,1.0,-0.5,-0.5,1.5,1.5,0.0,1.0,-1.0,2.0,0,1,1,0.4464136091361489,0.24712849871418657,0.10342240952660875,0.6083331680731455,0.2382639246952356,0.08613975798334672,0.4966005268704677,0.24998844358244163,0.07744491934301417,0.5037481982563464,0.2499859510098311,0.07562700604076456,0.6246428606013179,0.23446415730112039,0.09614997886811853,0.7073161354790837,0.20702001997001818,0.07505610062174894,0.7392146257579928,0.19277636282346342,0.07837414756739491,0.4066694247763538,0.2412894037284233,0.11076775205854636,0.6755636290514933,0.21917741215426967,0.15459764732549972,0.6875315958106839,0.21483190057269833,0.14264761540824417
8.0,0.0,8.0,0.0,3.0,0.0,3.0,0.0,,,,right,1.68017119995784,290.03646550001577,ry1,290.03646550001577,None,287.1009987000143,289.10075230000075,False,3.0,['r'],True,0.4081632653061224,0.5714285714285714,0.2857142857142857,2.0,1.0,0.9885754083994552,0.0577532267592585,wait_cost,0.0,2.0,289.10075230000075,None,ry1,1,2022-04-07_14h25.11.903,threat_forest,2021.2.3,60.07810152520136,False,35.0,0.5357142857142857,0.4761904761904761,-0.7806122448979592,-0.8741024187452759,0,0,0,0.518895692960042,0.0577532267592585,0.4081632653061224,0.4081632653061224,0.5714285714285714,0.7142857142857143,-1.1428571428571428,-1.0612244897959184,1.9387755102040816,1.9387755102040816,1.0,1.0,1.0,3.0,0,0,0,0.48604023880233255,0.2498051250673041,0.07450416860783937,0.392347852747889,0.23841101519200983,0.08605603987732532,0.28845935643648274,0.20525055612073292,0.13954812394490745,0.5520208757506638,0.247293828486134,0.07853122702882354,0.411115625186511,0.24209956791401527,0.09927907226291606,0.25136603545769326,0.18818115167597496,0.10055743431314779,0.583794046348971,0.24297855779646654,0.11571543547995466,0.4066694247763538,0.2412894037284233,0.11076775205854636,0.5339994072502404,0.2488440403066323,0.19537952794725247,0.622865137092662,0.23490415808720136,0.1606112944276124
8.0,0.0,8.0,0.0,4.0,0.0,4.0,0.0,,,,right,1.2873172999825329,297.40178089996334,ry1,297.40178089996334,None,287.1009987000143,289.10075230000075,False,2.0,['r'],True,0.4081632653061224,0.5714285714285714,0.2857142857142857,2.0,1.0,0.9885754083994552,0.0434271115776589,wait_cost,0.0,1.0,293.7341457000002,None,ry1,1,2022-04-07_14h25.11.903,threat_forest,2021.2.3,60.07810152520136,False,35.0,0.5357142857142857,0.4761904761904761,-0.7806122448979592,-0.8741024187452759,0,0,0,0.2525604405603933,0.0434271115776589,0.4081632653061224,0.4081632653061224,0.5714285714285714,0.7142857142857143,-1.1428571428571428,-1.0612244897959184,0.9387755102040816,0.9387755102040816,1.0,1.0,-1.0,2.0,0,0,0,0.48604023880233255,0.2498051250673041,0.07450416860783937,0.392347852747889,0.23841101519200983,0.08605603987732532,0.4966005268704677,0.24998844358244163,0.07744491934301417,0.5520208757506638,0.247293828486134,0.07853122702882354,0.411115625186511,0.24209956791401527,0.09927907226291606,0.25136603545769326,0.18818115167597496,0.10055743431314779,0.583794046348971,0.24297855779646654,0.11571543547995466,0.4066694247763538,0.2412894037284233,0.11076775205854636,0.5339994072502404,0.2488440403066323,0.19537952794725247,0.5293583224447403,0.24913808890323066,0.17334995943219872
8.0,0.0,8.0,0.0,5.0,0.0,5.0,0.0,,,,left,1.3705870000412688,304.3015110999113,ry1,304.3015110999113,None,287.1009987000143,289.10075230000075,True,1.0,['r'],True,0.4081632653061224,0.5714285714285714,0.2857142857142857,2.0,1.0,0.9885754083994552,0.1947105372761349,unsucc_cost,0.0,0.0,300.71758589998353,None,ry1,1,2022-04-07_14h25.11.903,threat_forest,2021.2.3,60.07810152520136,True,35.0,0.5357142857142857,0.4761904761904761,-0.7806122448979592,-0.8741024187452759,0,0,1,0.3152391152575893,0.1947105372761349,1.0,0.4081632653061224,0.5714285714285714,0.7142857142857143,-1.1428571428571428,-1.0612244897959184,-0.0612244897959184,0.0,1.0,1.0,-1.0,1.0,1,0,0,0.48604023880233255,0.2498051250673041,0.07450416860783937,0.392347852747889,0.23841101519200983,0.08605603987732532,0.4966005268704677,0.24998844358244163,0.07744491934301417,0.5520208757506638,0.247293828486134,0.07853122702882354,0.411115625186511,0.24209956791401527,0.09927907226291606,0.25136603545769326,0.18818115167597496,0.10055743431314779,0.583794046348971,0.24297855779646654,0.11571543547995466,0.8510673335072794,0.1267517273440887,-0.053598183750873135,0.9817496640045099,0.017917261231541887,-0.1220690303533038,0.9848468009384362,0.014923579619764454,-0.036260457503068506
9.0,0.0,9.0,0.0,0.0,0.0,0.0,0.0,309.3064038999146,312.8177867999766,None,right,1.345344000030309,314.65183440002147,ry1,309.3064038999146,312.8177867999766,314.65183440002147,None,True,4.0,['r'],False,0.25,0.25,0.0,0.0,1.0,0.5118595071429148,0.0117925466256169,succ_gain,1.0,5.0,,,ry1,1,2022-04-07_14h25.11.903,threat_forest,2021.2.3,60.07810152520136,True,32.0,0.2678571428571428,0.4017857142857143,-1.461734693877551,-1.121173469387755,0,0,1,0.2966497424565701,0.0117925466256169,0.25,0.25,0.25,1.0,-1.25,-1.25,2.75,2.75,0.0,1.0,-1.0,4.0,0,0,0,0.4464136091361489,0.24712849871418657,0.10342240952660875,0.6083331680731455,0.2382639246952356,0.08613975798334672,0.4966005268704677,0.24998844358244163,0.07744491934301417,0.3399608980194541,0.22438748583726048,0.10324224240607655,0.3765702195962186,0.23476508930947432,0.09627330483018705,0.25136603545769326,0.18818115167597496,0.10055743431314779,0.29457764918502843,0.20780165778565077,0.08955022991709877,0.4066694247763538,0.2412894037284233,0.11076775205854636,0.2906169528064512,0.20615873954794411,0.13670124368440814,0.32503655653128655,0.2193877934495703,0.1467249144976775
9.0,0.0,9.0,0.0,1.0,0.0,1.0,0.0,,,,right,1.420925300102681,320.4369336999953,ry1,320.4369336999953,None,316.0185658999253,318.0178316999227,False,5.0,['r'],True,0.2040816326530612,0.2857142857142857,0.2857142857142857,2.0,1.0,0.9335459102197724,0.0005939157599406,wait_cost,0.0,4.0,318.0178316999227,None,ry1,1,2022-04-07_14h25.11.903,threat_forest,2021.2.3,60.07810152520136,False,32.0,0.2678571428571428,0.4017857142857143,-1.461734693877551,-1.121173469387755,0,0,0,0.3513082791917966,0.0005939157599406,0.2040816326530612,0.2040816326530612,0.2857142857142857,0.7142857142857143,-2.0,-1.673469387755102,3.326530612244898,3.326530612244898,1.0,1.0,1.0,5.0,0,0,0,0.48604023880233255,0.2498051250673041,0.07450416860783937,0.392347852747889,0.23841101519200983,0.08605603987732532,0.28845935643648274,0.20525055612073292,0.13954812394490745,0.3620343383648345,0.23096547620957106,0.09614600606083079,0.17982031809751117,0.1474849712968211,0.06050474507397552,0.25136603545769326,0.18818115167597496,0.10055743431314779,0.2270550505189634,0.17550105455279444,0.06552446519274621,0.4066694247763538,0.2412894037284233,0.11076775205854636,0.23307752376265697,0.17875239167932502,0.09902650689544681,0.2628873369289202,0.19377758501134057,0.12380504294505977
9.0,0.0,9.0,0.0,2.0,0.0,2.0,0.0,,,,right,1.334891900070943,326.46868990000803,ry1,326.46868990000803,None,316.0185658999253,318.0178316999227,False,4.0,['r'],True,0.2040816326530612,0.2857142857142857,0.2857142857142857,2.0,1.0,0.9335459102197724,-0.0021630960258077,wait_cost,0.0,3.0,323.884607099928,None,ry1,1,2022-04-07_14h25.11.903,threat_forest,2021.2.3,60.07810152520136,False,32.0,0.2678571428571428,0.4017857142857143,-1.461734693877551,-1.121173469387755,0,0,0,0.2888503148440327,-0.0021630960258077,0.2040816326530612,0.2040816326530612,0.2857142857142857,0.7142857142857143,-2.0,-1.673469387755102,2.326530612244898,2.326530612244898,1.0,1.0,-1.0,4.0,0,0,0,0.48604023880233255,0.2498051250673041,0.07450416860783937,0.392347852747889,0.23841101519200983,0.08605603987732532,0.4966005268704677,0.24998844358244163,0.07744491934301417,0.3620343383648345,0.23096547620957106,0.09614600606083079,0.17982031809751117,0.1474849712968211,0.06050474507397552,0.25136603545769326,0.18818115167597496,0.10055743431314779,0.2270550505189634,0.17550105455279444,0.06552446519274621,0.4066694247763538,0.2412894037284233,0.11076775205854636,0.23307752376265697,0.17875239167932502,0.09902650689544681,0.24881446020161993,0.1869058245961964,0.11765515679964446
9.0,0.0,9.0,0.0,3.0,0.0,3.0,0.0,,,,right,0.9680142999859528,333.2848790999269,ry1,327.834898400004,329.8346924999496,333.2848790999269,None,True,3.0,['r'],False,0.25,0.25,0.0,0.0,1.0,0.5118595071429148,0.0564614140897925,unsucc_cost,1.0,1.0,329.8346924999496,None,ry1,1,2022-04-07_14h25.11.903,threat_forest,2021.2.3,60.07810152520136,True,32.0,0.2678571428571428,0.4017857142857143,-1.461734693877551,-1.121173469387755,0,0,1,-0.0325084191019143,0.0564614140897925,0.25,0.25,0.25,1.0,-1.25,-1.25,1.75,1.75,0.0,1.0,-1.0,3.0,0,0,0,0.4464136091361489,0.24712849871418657,0.10342240952660875,0.6083331680731455,0.2382639246952356,0.08613975798334672,0.4966005268704677,0.24998844358244163,0.07744491934301417,0.3399608980194541,0.22438748583726048,0.10324224240607655,0.3765702195962186,0.23476508930947432,0.09627330483018705,0.25136603545769326,0.18818115167597496,0.10055743431314779,0.29457764918502843,0.20780165778565077,0.08955022991709877,0.4066694247763538,0.2412894037284233,0.11076775205854636,0.2906169528064512,0.20615873954794411,0.13670124368440814,0.6146940254048616,0.23684528053642898,0.16234850313918958
9.0,0.0,9.0,0.0,4.0,0.0,4.0,0.0,,,,left,0.6994694999884814,338.4017722000135,ry1,338.4017722000135,None,334.285009299987,336.2849147999659,True,1.0,['r'],True,0.2040816326530612,0.2857142857142857,0.2857142857142857,2.0,1.0,0.9335459102197724,0.0486776343190338,unsucc_cost,0.0,0.0,336.2849147999659,None,ry1,1,2022-04-07_14h25.11.903,threat_forest,2021.2.3,60.07810152520136,True,32.0,0.2678571428571428,0.4017857142857143,-1.461734693877551,-1.121173469387755,0,0,1,-0.3574330884169552,0.0486776343190338,1.0,0.2040816326530612,0.2857142857142857,0.7142857142857143,-2.0,-1.673469387755102,-0.6734693877551021,0.0,1.0,1.0,-1.0,1.0,1,0,0,0.48604023880233255,0.2498051250673041,0.07450416860783937,0.392347852747889,0.23841101519200983,0.08605603987732532,0.4966005268704677,0.24998844358244163,0.07744491934301417,0.3620343383648345,0.23096547620957106,0.09614600606083079,0.17982031809751117,0.1474849712968211,0.06050474507397552,0.25136603545769326,0.18818115167597496,0.10055743431314779,0.2270550505189634,0.17550105455279444,0.06552446519274621,0.8510673335072794,0.1267517273440887,-0.053598183750873135,0.9817496640045099,0.017917261231541887,-0.1220690303533038,0.5642337672741272,0.2458740231417732,0.1704287818021008
10.0,0.0,10.0,0.0,0.0,0.0,0.0,0.0,341.95424019999336,345.46824770001695,None,left,1.4652632999932391,348.1354748000158,ry1,341.95424019999336,345.46824770001695,348.1354748000158,None,False,5.0,['r'],False,0.24,0.4,0.4,2.0,1.0,0.9801625908629508,-0.0104347549751131,wait_cost,1.0,4.0,,,ry1,1,2022-04-07_14h25.11.903,threat_forest,2021.2.3,60.07810152520136,False,28.0,0.3666666666666667,0.3172619047619047,-1.3400000000000003,-1.4008673469387758,0,0,0,0.3820349532779182,-0.0104347549751131,0.24,0.24,0.4,0.6,-2.0,-1.6800000000000002,3.32,3.32,0.0,1.0,-1.0,5.0,0,0,0,0.4464136091361489,0.24712849871418657,0.10342240952660875,0.3124780067131565,0.214835502033729,0.099474291588875,0.4966005268704677,0.24998844358244163,0.07744491934301417,0.4362509523183806,0.24593605891968665,0.07999596826445227,0.17982031809751117,0.1474849712968211,0.06050474507397552,0.25136603545769326,0.18818115167597496,0.10055743431314779,0.27891300715973477,0.20112054159684853,0.08458069654674533,0.4066694247763538,0.2412894037284233,0.11076775205854636,0.2773943581792463,0.20044672822957033,0.1288491021299434,0.2096971354710051,0.16572424684626005,0.09869869096371532
10.0,0.0,10.0,0.0,1.0,0.0,1.0,0.0,,,,left,2.2054418000625446,354.85201979998965,ry1,341.95424019999336,345.46824770001695,354.85201979998965,None,False,4.0,['r'],False,0.24,0.4,0.4,2.0,1.0,0.9801625908629508,0.0034755885168724,wait_cost,1.0,3.0,351.61826749995816,None,ry1,1,2022-04-07_14h25.11.903,threat_forest,2021.2.3,60.07810152520136,False,28.0,0.3666666666666667,0.3172619047619047,-1.3400000000000003,-1.4008673469387758,0,0,0,0.7909278516690126,0.0034755885168724,0.24,0.24,0.4,0.6,-2.0,-1.6800000000000002,2.32,2.32,0.0,1.0,-1.0,4.0,0,0,0,0.4464136091361489,0.24712849871418657,0.10342240952660875,0.3124780067131565,0.214835502033729,0.099474291588875,0.4966005268704677,0.24998844358244163,0.07744491934301417,0.4362509523183806,0.24593605891968665,0.07999596826445227,0.17982031809751117,0.1474849712968211,0.06050474507397552,0.25136603545769326,0.18818115167597496,0.10055743431314779,0.27891300715973477,0.20112054159684853,0.08458069654674533,0.4066694247763538,0.2412894037284233,0.11076775205854636,0.2773943581792463,0.20044672822957033,0.1288491021299434,0.27813282810979145,0.20077495803744067,0.13006734617272736
10.0,0.0,10.0,0.0,2.0,0.0,2.0,0.0,,,,left,2.7780371999833733,360.08548349991906,ry1,341.95424019999336,345.46824770001695,360.08548349991906,None,False,3.0,['r'],False,0.24,0.4,0.4,2.0,1.0,0.9801625908629508,0.0019563714370369,wait_cost,1.0,2.0,359.08512259996496,None,ry1,1,2022-04-07_14h25.11.903,threat_forest,2021.2.3,60.07810152520136,False,28.0,0.3666666666666667,0.3172619047619047,-1.3400000000000003,-1.4008673469387758,0,0,0,1.021744635165235,0.0019563714370369,0.24,0.24,0.4,0.6,-2.0,-1.6800000000000002,1.3199999999999998,1.3199999999999998,0.0,1.0,-1.0,3.0,0,0,0,0.4464136091361489,0.24712849871418657,0.10342240952660875,0.3124780067131565,0.214835502033729,0.099474291588875,0.4966005268704677,0.24998844358244163,0.07744491934301417,0.4362509523183806,0.24593605891968665,0.07999596826445227,0.17982031809751117,0.1474849712968211,0.06050474507397552,0.25136603545769326,0.18818115167597496,0.10055743431314779,0.27891300715973477,0.20112054159684853,0.08458069654674533,0.4066694247763538,0.2412894037284233,0.11076775205854636,0.2773943581792463,0.20044672822957033,0.1288491021299434,0.27002799069529765,0.1971128749363579,0.12678996268347253
10.0,0.0,10.0,0.0,3.0,0.0,3.0,0.0,,,,left,1.2784497999818996,365.5354569000192,ry1,341.95424019999336,345.46824770001695,365.5354569000192,None,False,2.0,['r'],False,0.24,0.4,0.4,2.0,1.0,0.9801625908629508,-0.0045573333333333,wait_cost,1.0,1.0,364.88523659994826,None,ry1,1,2022-04-07_14h25.11.903,threat_forest,2021.2.3,60.07810152520136,False,28.0,0.3666666666666667,0.3172619047619047,-1.3400000000000003,-1.4008673469387758,0,0,0,0.2456482502006705,-0.0045573333333333,0.24,0.24,0.4,0.6,-2.0,-1.6800000000000002,0.3199999999999998,0.3199999999999998,0.0,1.0,-1.0,2.0,0,0,0,0.4464136091361489,0.24712849871418657,0.10342240952660875,0.3124780067131565,0.214835502033729,0.099474291588875,0.4966005268704677,0.24998844358244163,0.07744491934301417,0.4362509523183806,0.24593605891968665,0.07999596826445227,0.17982031809751117,0.1474849712968211,0.06050474507397552,0.25136603545769326,0.18818115167597496,0.10055743431314779,0.27891300715973477,0.20112054159684853,0.08458069654674533,0.4066694247763538,0.2412894037284233,0.11076775205854636,0.2773943581792463,0.20044672822957033,0.1288491021299434,0.23700914494205963,0.18083581015589337,0.1122227936999907
10.0,0.0,10.0,0.0,4.0,0.0,4.0,0.0,,,,right,1.0360535000218078,372.25222799996845,ry1,341.95424019999336,345.46824770001695,372.25222799996845,None,True,1.0,['r'],False,0.24,0.4,0.4,2.0,1.0,0.9801625908629508,0.0744,unsucc_cost,1.0,0.0,368.8352701999247,None,ry1,1,2022-04-07_14h25.11.903,threat_forest,2021.2.3,60.07810152520136,True,28.0,0.3666666666666667,0.3172619047619047,-1.3400000000000003,-1.4008673469387758,0,0,1,0.0354187834516344,0.0744,1.0,0.24,0.4,0.6,-2.0,-1.6800000000000002,-0.6800000000000002,0.0,0.0,1.0,-1.0,1.0,1,0,0,0.4464136091361489,0.24712849871418657,0.10342240952660875,0.3124780067131565,0.214835502033729,0.099474291588875,0.4966005268704677,0.24998844358244163,0.07744491934301417,0.4362509523183806,0.24593605891968665,0.07999596826445227,0.17982031809751117,0.1474849712968211,0.06050474507397552,0.25136603545769326,0.18818115167597496,0.10055743431314779,0.27891300715973477,0.20112054159684853,0.08458069654674533,0.8510673335072794,0.1267517273440887,-0.053598183750873135,0.9817496640045099,0.017917261231541887,-0.1220690303533038,0.7207359093148407,0.2012756583389504,0.13051544821081268
11.0,0.0,11.0,0.0,0.0,0.0,0.0,0.0,375.87618349993136,379.385421999963,None,left,1.5976658000145108,381.15286749997176,ry1,375.87618349993136,379.385421999963,381.15286749997176,None,False,5.0,['r'],False,0.4081632653061224,0.5714285714285714,0.2857142857142857,2.0,2.0,0.9885754083994552,-0.0170150236195817,wait_cost,1.0,4.0,,,ry1,1,2022-04-07_14h25.11.903,threat_forest,2021.2.3,60.07810152520136,False,64.0,0.5357142857142857,0.4511904761904762,-0.326530612244898,-0.8332653061224491,1,0,0,0.468543689060569,-0.0170150236195817,0.4081632653061224,0.4081632653061224,0.5714285714285714,0.7142857142857143,-0.5714285714285715,-0.653061224489796,4.346938775510204,4.346938775510204,0.0,2.0,-1.0,5.0,0,0,1,0.4464136091361489,0.24712849871418657,0.10342240952660875,0.392347852747889,0.23841101519200983,0.08605603987732532,0.4966005268704677,0.24998844358244163,0.07744491934301417,0.5520208757506638,0.247293828486134,0.07853122702882354,0.601755390577531,0.2396458404884141,0.09827350194465245,0.7073161354790837,0.20702001997001818,0.07505610062174894,0.583794046348971,0.24297855779646654,0.11571543547995466,0.4066694247763538,0.2412894037284233,0.11076775205854636,0.5339994072502404,0.2488440403066323,0.19537952794725247,0.1819481972133668,0.1488430507441726,0.08359085428805489
11.0,0.0,11.0,0.0,1.0,0.0,1.0,0.0,,,,left,1.301926500047557,387.4191183999647,ry1,387.4191183999647,None,382.7693309999304,384.76885659992695,True,4.0,['r'],True,0.5,0.5,0.0,0.0,2.0,0.6309297535714574,0.0943759482946438,unsucc_cost,0.0,2.0,384.76885659992695,None,ry1,1,2022-04-07_14h25.11.903,threat_forest,2021.2.3,60.07810152520136,True,64.0,0.5357142857142857,0.4511904761904762,-0.326530612244898,-0.8332653061224491,1,1,1,0.2638450906165502,0.0943759482946438,0.5,0.5,0.5,1.0,0.0,0.0,4.0,4.0,1.0,2.0,-1.0,4.0,0,1,1,0.48604023880233255,0.2498051250673041,0.07450416860783937,0.6083331680731455,0.2382639246952356,0.08613975798334672,0.4966005268704677,0.24998844358244163,0.07744491934301417,0.5037481982563464,0.2499859510098311,0.07562700604076456,0.7658321041550414,0.17933329240050322,0.07355661304196932,0.7073161354790837,0.20702001997001818,0.07505610062174894,0.7392146257579928,0.19277636282346342,0.07837414756739491,0.4066694247763538,0.2412894037284233,0.11076775205854636,0.6755636290514933,0.21917741215426967,0.15459764732549972,0.8151421459617773,0.1506854278386059,0.08523969078455375
11.0,0.0,11.0,0.0,2.0,0.0,2.0,0.0,,,,left,0.7293036999180913,391.65292239992414,ry1,391.65292239992414,None,382.7693309999304,384.76885659992695,True,2.0,['r'],True,0.5,0.5,0.0,0.0,2.0,0.6309297535714574,0.0546088098921367,succ_gain,0.0,4.0,390.7522883999627,None,ry1,1,2022-04-07_14h25.11.903,threat_forest,2021.2.3,60.07810152520136,True,64.0,0.5357142857142857,0.4511904761904762,-0.326530612244898,-0.8332653061224491,1,1,1,-0.3156650357591154,0.0546088098921367,0.5,0.5,0.5,1.0,0.0,0.0,2.0,2.0,1.0,2.0,-1.0,2.0,0,1,1,0.48604023880233255,0.2498051250673041,0.07450416860783937,0.6083331680731455,0.2382639246952356,0.08613975798334672,0.4966005268704677,0.24998844358244163,0.07744491934301417,0.5037481982563464,0.2499859510098311,0.07562700604076456,0.7658321041550414,0.17933329240050322,0.07355661304196932,0.7073161354790837,0.20702001997001818,0.07505610062174894,0.7392146257579928,0.19277636282346342,0.07837414756739491,0.4066694247763538,0.2412894037284233,0.11076775205854636,0.6755636290514933,0.21917741215426967,0.15459764732549972,0.6028630288540995,0.2394191972949607,0.16465203150113034
11.0,0.0,11.0,0.0,3.0,0.0,3.0,0.0,,,,left,1.1256963999476284,396.26938810001593,ry1,392.4025504000019,394.4023333999794,396.26938810001593,None,False,4.0,['r'],False,0.4081632653061224,0.5714285714285714,0.2857142857142857,2.0,2.0,0.9885754083994552,-0.0002517703993597,wait_cost,1.0,3.0,394.4023333999794,None,ry1,1,2022-04-07_14h25.11.903,threat_forest,2021.2.3,60.07810152520136,False,64.0,0.5357142857142857,0.4511904761904762,-0.326530612244898,-0.8332653061224491,1,0,0,0.1184018663168568,-0.0002517703993597,0.4081632653061224,0.4081632653061224,0.5714285714285714,0.7142857142857143,-0.5714285714285715,-0.653061224489796,3.346938775510204,3.346938775510204,0.0,2.0,1.0,4.0,0,0,1,0.4464136091361489,0.24712849871418657,0.10342240952660875,0.392347852747889,0.23841101519200983,0.08605603987732532,0.28845935643648274,0.20525055612073292,0.13954812394490745,0.5520208757506638,0.247293828486134,0.07853122702882354,0.601755390577531,0.2396458404884141,0.09827350194465245,0.7073161354790837,0.20702001997001818,0.07505610062174894,0.583794046348971,0.24297855779646654,0.11571543547995466,0.4066694247763538,0.2412894037284233,0.11076775205854636,0.5339994072502404,0.2488440403066323,0.19537952794725247,0.25851667267769557,0.1916858026253488,0.12193300103182832
11.0,0.0,11.0,0.0,4.0,0.0,4.0,0.0,,,,left,2.463954400038346,401.9193952999776,ry1,392.4025504000019,394.4023333999794,401.9193952999776,None,False,3.0,['r'],False,0.4081632653061224,0.5714285714285714,0.2857142857142857,2.0,2.0,0.9885754083994552,0.0701270304039983,wait_cost,1.0,2.0,399.41906639991794,None,ry1,1,2022-04-07_14h25.11.903,threat_forest,2021.2.3,60.07810152520136,False,64.0,0.5357142857142857,0.4511904761904762,-0.326530612244898,-0.8332653061224491,1,0,0,0.9017675390220824,0.0701270304039983,0.4081632653061224,0.4081632653061224,0.5714285714285714,0.7142857142857143,-0.5714285714285715,-0.653061224489796,2.346938775510204,2.346938775510204,0.0,2.0,-1.0,3.0,0,0,1,0.4464136091361489,0.24712849871418657,0.10342240952660875,0.392347852747889,0.23841101519200983,0.08605603987732532,0.4966005268704677,0.24998844358244163,0.07744491934301417,0.5520208757506638,0.247293828486134,0.07853122702882354,0.601755390577531,0.2396458404884141,0.09827350194465245,0.7073161354790837,0.20702001997001818,0.07505610062174894,0.583794046348971,0.24297855779646654,0.11571543547995466,0.4066694247763538,0.2412894037284233,0.11076775205854636,0.5339994072502404,0.2488440403066323,0.19537952794725247,0.6971016686915633,0.21115093219900122,0.13935333053282528
11.0,0.0,11.0,0.0,5.0,0.0,5.0,0.0,,,,left,1.1792366999434307,408.4863871999551,ry1,392.4025504000019,394.4023333999794,408.4863871999551,None,False,2.0,['r'],False,0.4081632653061224,0.5714285714285714,0.2857142857142857,2.0,2.0,0.9885754083994552,-0.0459183673469387,wait_cost,1.0,1.0,406.4025056000101,None,ry1,1,2022-04-07_14h25.11.903,threat_forest,2021.2.3,60.07810152520136,False,64.0,0.5357142857142857,0.4511904761904762,-0.326530612244898,-0.8332653061224491,1,0,0,0.1648673647157752,-0.0459183673469387,0.4081632653061224,0.4081632653061224,0.5714285714285714,0.7142857142857143,-0.5714285714285715,-0.653061224489796,1.346938775510204,1.346938775510204,0.0,2.0,-1.0,2.0,0,0,1,0.4464136091361489,0.24712849871418657,0.10342240952660875,0.392347852747889,0.23841101519200983,0.08605603987732532,0.4966005268704677,0.24998844358244163,0.07744491934301417,0.5520208757506638,0.247293828486134,0.07853122702882354,0.601755390577531,0.2396458404884141,0.09827350194465245,0.7073161354790837,0.20702001997001818,0.07505610062174894,0.583794046348971,0.24297855779646654,0.11571543547995466,0.4066694247763538,0.2412894037284233,0.11076775205854636,0.5339994072502404,0.2488440403066323,0.19537952794725247,0.09293998852982883,0.08430214706190411,0.0258299334484072
11.0,0.0,11.0,0.0,6.0,0.0,6.0,0.0,,,,left,0.9510590999852866,413.5028907000087,ry1,413.5028907000087,None,409.68616479996126,411.6859160999302,True,1.0,['r'],True,0.5,0.5,0.0,0.0,2.0,0.6309297535714574,0.5,succ_gain,0.0,3.0,411.6859160999302,None,ry1,1,2022-04-07_14h25.11.903,threat_forest,2021.2.3,60.07810152520136,True,64.0,0.5357142857142857,0.4511904761904762,-0.326530612244898,-0.8332653061224491,1,1,1,-0.0501790732727345,0.5,1.0,0.5,0.5,1.0,0.0,0.0,1.0,1.0,1.0,2.0,-1.0,1.0,1,1,1,0.48604023880233255,0.2498051250673041,0.07450416860783937,0.6083331680731455,0.2382639246952356,0.08613975798334672,0.4966005268704677,0.24998844358244163,0.07744491934301417,0.5037481982563464,0.2499859510098311,0.07562700604076456,0.7658321041550414,0.17933329240050322,0.07355661304196932,0.7073161354790837,0.20702001997001818,0.07505610062174894,0.7392146257579928,0.19277636282346342,0.07837414756739491,0.8510673335072794,0.1267517273440887,-0.053598183750873135,0.9817496640045099,0.017917261231541887,-0.1220690303533038,0.9999957163198709,4.283661779086195e-06,-0.04961249045653985
11.0,0.0,11.0,0.0,7.0,0.0,7.0,0.0,,,,left,1.1366463999729604,417.20280999992974,ry1,414.4863616999937,416.4859990000259,417.20280999992974,None,False,3.0,['r'],False,0.4081632653061224,0.5714285714285714,0.2857142857142857,2.0,2.0,0.9885754083994552,-0.2857142857142857,wait_cost,1.0,2.0,416.4859990000259,None,ry1,1,2022-04-07_14h25.11.903,threat_forest,2021.2.3,60.07810152520136,False,64.0,0.5357142857142857,0.4511904761904762,-0.326530612244898,-0.8332653061224491,1,0,0,0.1280821725325485,-0.2857142857142857,0.0,0.4081632653061224,0.5714285714285714,0.7142857142857143,-0.5714285714285715,-0.653061224489796,2.346938775510204,2.346938775510204,0.0,2.0,1.0,3.0,0,0,1,0.4464136091361489,0.24712849871418657,0.10342240952660875,0.392347852747889,0.23841101519200983,0.08605603987732532,0.28845935643648274,0.20525055612073292,0.13954812394490745,0.5520208757506638,0.247293828486134,0.07853122702882354,0.601755390577531,0.2396458404884141,0.09827350194465245,0.7073161354790837,0.20702001997001818,0.07505610062174894,0.583794046348971,0.24297855779646654,0.11571543547995466,0.4066694247763538,0.2412894037284233,0.11076775205854636,0.0745895445472127,0.06902594439145208,-0.051811358849221834,0.00016515732181428906,0.00016513004487334027,-0.049468540888573026
12.0,0.0,12.0,0.0,0.0,0.0,0.0,0.0,422.1992802999448,425.6967253999319,None,left,1.0249323999742046,426.8363681000192,ry1,426.8363681000192,None,422.1992802999448,425.6967253999319,True,5.0,['r'],True,0.625,0.625,0.0,0.0,2.0,0.6021808102656677,0.0512514556375116,succ_gain,0.0,6.0,,,ry1,1,2022-04-07_14h25.11.903,threat_forest,2021.2.3,60.07810152520136,True,60.0,0.6458333333333333,0.5907738095238095,0.1759259259259258,-0.075302343159486,1,1,1,0.0246266591708141,0.0512514556375116,0.625,0.625,0.625,1.0,0.5,0.5,5.5,5.5,1.0,2.0,-1.0,5.0,0,1,1,0.48604023880233255,0.2498051250673041,0.07450416860783937,0.6083331680731455,0.2382639246952356,0.08613975798334672,0.4966005268704677,0.24998844358244163,0.07744491934301417,0.5876414748279682,0.24231897188997856,0.0838980269467175,0.8653607017944717,0.11651155758425112,0.047811425856976876,0.7073161354790837,0.20702001997001818,0.07505610062174894,0.8807406714277023,0.10503654112078255,0.013111703457962073,0.4066694247763538,0.2412894037284233,0.11076775205854636,0.8243905153286779,0.1447707935647948,0.05231295823984122,0.5811218574804823,0.24341924423891634,0.16823187593625205
12.0,0.0,12.0,0.0,2.0,0.0,2.0,0.0,,,,left,0.6721381000243127,440.2370028999867,ry1,440.2370028999867,None,422.1992802999448,425.6967253999319,True,5.0,['r'],True,0.625,0.625,0.0,0.0,2.0,0.6021808102656677,0.0812504672485717,unsucc_cost,0.0,3.0,437.7863062999677,None,ry1,1,2022-04-07_14h25.11.903,threat_forest,2021.2.3,60.07810152520136,True,60.0,0.6458333333333333,0.5907738095238095,0.1759259259259258,-0.075302343159486,1,1,1,-0.3972914535838899,0.0812504672485717,0.625,0.625,0.625,1.0,0.5,0.5,5.5,5.5,1.0,2.0,-1.0,5.0,0,1,1,0.48604023880233255,0.2498051250673041,0.07450416860783937,0.6083331680731455,0.2382639246952356,0.08613975798334672,0.4966005268704677,0.24998844358244163,0.07744491934301417,0.5876414748279682,0.24231897188997856,0.0838980269467175,0.8653607017944717,0.11651155758425112,0.047811425856976876,0.7073161354790837,0.20702001997001818,0.07505610062174894,0.8807406714277023,0.10503654112078255,0.013111703457962073,0.4066694247763538,0.2412894037284233,0.11076775205854636,0.8243905153286779,0.1447707935647948,0.05231295823984122,0.7561731457937076,0.1843753193741558,0.11539047961857861
12.0,0.0,12.0,0.0,3.0,0.0,3.0,0.0,,,,left,1.9330661999993024,444.0884919000091,ry1,440.9368296000175,442.9364007000113,444.0884919000091,None,False,3.0,['r'],False,0.5185185185185185,0.6666666666666666,0.2222222222222222,2.0,2.0,0.9327883776363328,0.0317710181014625,wait_cost,1.0,2.0,442.9364007000113,None,ry1,1,2022-04-07_14h25.11.903,threat_forest,2021.2.3,60.07810152520136,False,60.0,0.6458333333333333,0.5907738095238095,0.1759259259259258,-0.075302343159486,0,0,0,0.6591074469234226,0.0317710181014625,0.5185185185185185,0.5185185185185185,0.6666666666666666,0.7777777777777778,-1.1102230246251563e-16,-0.1481481481481482,2.851851851851852,2.851851851851852,0.0,2.0,-1.0,3.0,0,0,0,0.4464136091361489,0.24712849871418657,0.10342240952660875,0.43969625071140017,0.24636345782173763,0.08152982336568751,0.4966005268704677,0.24998844358244163,0.07744491934301417,0.6147446867096737,0.23683365687189878,0.08981550167581887,0.7658321041550413,0.17933329240050325,0.07355661304196932,0.25136603545769326,0.18818115167597496,0.10055743431314779,0.7656219541056752,0.1794449774970825,0.06845802541350562,0.4066694247763538,0.2412894037284233,0.11076775205854636,0.7013827437858512,0.20944499050528223,0.14121876059084534,0.45140568241804574,0.2476385922987442,0.1720079840378434
12.0,0.0,12.0,0.0,4.0,0.0,4.0,0.0,,,,left,0.9298807999584824,450.5034593999153,ry1,450.5034593999153,None,446.0533107999945,448.05315960000735,True,2.0,['r'],True,0.625,0.625,0.0,0.0,2.0,0.6021808102656677,0.0532407407407407,succ_gain,0.0,4.0,448.05315960000735,None,ry1,1,2022-04-07_14h25.11.903,threat_forest,2021.2.3,60.07810152520136,True,60.0,0.6458333333333333,0.5907738095238095,0.1759259259259258,-0.075302343159486,1,1,1,-0.0726988731372327,0.0532407407407407,0.625,0.625,0.625,1.0,0.5,0.5,2.5,2.5,1.0,2.0,-1.0,2.0,0,1,1,0.48604023880233255,0.2498051250673041,0.07450416860783937,0.6083331680731455,0.2382639246952356,0.08613975798334672,0.4966005268704677,0.24998844358244163,0.07744491934301417,0.5876414748279682,0.24231897188997856,0.0838980269467175,0.8653607017944717,0.11651155758425112,0.047811425856976876,0.7073161354790837,0.20702001997001818,0.07505610062174894,0.8807406714277023,0.10503654112078255,0.013111703457962073,0.4066694247763538,0.2412894037284233,0.11076775205854636,0.8243905153286779,0.1447707935647948,0.05231295823984122,0.5940476245125359,0.2411550443235491,0.16620552885068135
12.0,0.0,12.0,0.0,5.0,0.0,5.0,0.0,,,,right,0.6514066000236198,455.3205356999533,ry1,455.3205356999533,None,446.0533107999945,448.05315960000735,False,4.0,['r'],True,0.625,0.625,0.0,0.0,2.0,0.6021808102656677,-0.1506076388888889,wait_cost,0.0,3.0,453.4532731999643,None,ry1,1,2022-04-07_14h25.11.903,threat_forest,2021.2.3,60.07810152520136,False,60.0,0.6458333333333333,0.5907738095238095,0.1759259259259258,-0.075302343159486,1,1,0,-0.4286212541317384,-0.1506076388888889,0.0,0.625,0.625,1.0,0.5,0.5,4.5,4.5,1.0,2.0,1.0,4.0,0,1,1,0.48604023880233255,0.2498051250673041,0.07450416860783937,0.6083331680731455,0.2382639246952356,0.08613975798334672,0.28845935643648274,0.20525055612073292,0.13954812394490745,0.5876414748279682,0.24231897188997856,0.0838980269467175,0.8653607017944717,0.11651155758425112,0.047811425856976876,0.7073161354790837,0.20702001997001818,0.07505610062174894,0.8807406714277023,0.10503654112078255,0.013111703457962073,0.4066694247763538,0.2412894037284233,0.11076775205854636,0.0745895445472127,0.06902594439145208,-0.051811358849221834,0.006147607642303006,0.006109814562579305,-0.0441483418790536
12.0,0.0,12.0,0.0,6.0,0.0,6.0,0.0,,,,left,0.5134588999208063,460.3214392999653,ry1,456.00354599999264,458.0032391999848,460.3214392999653,None,False,3.0,['r'],False,0.5185185185185185,0.6666666666666666,0.2222222222222222,2.0,2.0,0.9327883776363328,-0.3332475994513031,wait_cost,1.0,2.0,458.0032391999848,None,ry1,1,2022-04-07_14h25.11.903,threat_forest,2021.2.3,60.07810152520136,False,60.0,0.6458333333333333,0.5907738095238095,0.1759259259259258,-0.075302343159486,0,0,0,-0.6665852919194408,-0.3332475994513031,0.0,0.5185185185185185,0.6666666666666666,0.7777777777777778,-1.1102230246251563e-16,-0.1481481481481482,2.851851851851852,2.851851851851852,0.0,2.0,-1.0,3.0,0,0,0,0.4464136091361489,0.24712849871418657,0.10342240952660875,0.43969625071140017,0.24636345782173763,0.08152982336568751,0.4966005268704677,0.24998844358244163,0.07744491934301417,0.6147446867096737,0.23683365687189878,0.08981550167581887,0.7658321041550413,0.17933329240050325,0.07355661304196932,0.25136603545769326,0.18818115167597496,0.10055743431314779,0.7656219541056752,0.1794449774970825,0.06845802541350562,0.4066694247763538,0.2412894037284233,0.11076775205854636,0.0745895445472127,0.06902594439145208,-0.051811358849221834,4.6173167594240894e-05,4.617103563283525e-05,-0.049575003325940344
12.0,0.0,12.0,0.0,7.0,0.0,7.0,0.0,,,,right,0.6064672999782488,465.3705529000145,ry1,465.3705529000145,None,460.85366089991294,462.8533537000185,False,2.0,['r'],True,0.625,0.625,0.0,0.0,2.0,0.6021808102656677,-0.375,wait_cost,0.0,1.0,462.8533537000185,None,ry1,1,2022-04-07_14h25.11.903,threat_forest,2021.2.3,60.07810152520136,False,60.0,0.6458333333333333,0.5907738095238095,0.1759259259259258,-0.075302343159486,1,1,0,-0.5001044679983772,-0.375,0.0,0.625,0.625,1.0,0.5,0.5,2.5,2.5,1.0,2.0,-1.0,2.0,0,1,1,0.48604023880233255,0.2498051250673041,0.07450416860783937,0.6083331680731455,0.2382639246952356,0.08613975798334672,0.4966005268704677,0.24998844358244163,0.07744491934301417,0.5876414748279682,0.24231897188997856,0.0838980269467175,0.8653607017944717,0.11651155758425112,0.047811425856976876,0.7073161354790837,0.20702001997001818,0.07505610062174894,0.8807406714277023,0.10503654112078255,0.013111703457962073,0.4066694247763538,0.2412894037284233,0.11076775205854636,0.0745895445472127,0.06902594439145208,-0.051811358849221834,1.5071839229225263e-05,1.507161206888752e-05,-0.049602835773894266
13.0,0.0,13.0,0.0,0.0,0.0,0.0,0.0,471.2742975999136,474.7868104999652,None,left,1.3964440999552608,475.8872629000107,ry1,471.2742975999136,474.7868104999652,475.8872629000107,None,False,5.0,['r'],False,0.4081632653061224,0.5714285714285714,0.2857142857142857,2.0,2.0,0.9885754083994552,-0.0170150236195817,wait_cost,1.0,4.0,,,ry1,1,2022-04-07_14h25.11.903,threat_forest,2021.2.3,60.07810152520136,False,58.0,0.5357142857142857,0.5907738095238095,-0.326530612244898,-0.075302343159486,0,0,0,0.3339290769268527,-0.0170150236195817,0.4081632653061224,0.4081632653061224,0.5714285714285714,0.7142857142857143,-0.5714285714285715,-0.653061224489796,4.346938775510204,4.346938775510204,0.0,2.0,-1.0,5.0,0,0,0,0.4464136091361489,0.24712849871418657,0.10342240952660875,0.392347852747889,0.23841101519200983,0.08605603987732532,0.4966005268704677,0.24998844358244163,0.07744491934301417,0.5520208757506638,0.247293828486134,0.07853122702882354,0.601755390577531,0.2396458404884141,0.09827350194465245,0.25136603545769326,0.18818115167597496,0.10055743431314779,0.583794046348971,0.24297855779646654,0.11571543547995466,0.4066694247763538,0.2412894037284233,0.11076775205854636,0.5339994072502404,0.2488440403066323,0.19537952794725247,0.1819481972133668,0.1488430507441726,0.08359085428805489
13.0,0.0,13.0,0.0,1.0,0.0,1.0,0.0,,,,left,0.9424339999677612,480.57081689999904,ry1,480.57081689999904,None,477.303783099982,479.3037706000032,True,4.0,['r'],True,0.5,0.5,0.0,0.0,2.0,0.6309297535714574,0.0943759482946438,unsucc_cost,0.0,2.0,479.3037706000032,None,ry1,1,2022-04-07_14h25.11.903,threat_forest,2021.2.3,60.07810152520136,True,58.0,0.5357142857142857,0.5907738095238095,-0.326530612244898,-0.075302343159486,1,0,1,-0.0592893886713497,0.0943759482946438,0.5,0.5,0.5,1.0,0.0,0.0,4.0,4.0,1.0,2.0,-1.0,4.0,0,0,1,0.48604023880233255,0.2498051250673041,0.07450416860783937,0.6083331680731455,0.2382639246952356,0.08613975798334672,0.4966005268704677,0.24998844358244163,0.07744491934301417,0.5037481982563464,0.2499859510098311,0.07562700604076456,0.7658321041550414,0.17933329240050322,0.07355661304196932,0.7073161354790837,0.20702001997001818,0.07505610062174894,0.7392146257579928,0.19277636282346342,0.07837414756739491,0.4066694247763538,0.2412894037284233,0.11076775205854636,0.6755636290514933,0.21917741215426967,0.15459764732549972,0.8151421459617773,0.1506854278386059,0.08523969078455375
13.0,0.0,13.0,0.0,2.0,0.0,2.0,0.0,,,,left,0.8003282999852672,484.9871978999581,ry1,484.9871978999581,None,477.303783099982,479.3037706000032,True,2.0,['r'],True,0.5,0.5,0.0,0.0,2.0,0.6309297535714574,0.0546088098921367,succ_gain,0.0,4.0,483.536983500002,None,ry1,1,2022-04-07_14h25.11.903,threat_forest,2021.2.3,60.07810152520136,True,58.0,0.5357142857142857,0.5907738095238095,-0.326530612244898,-0.075302343159486,1,0,1,-0.2227332605134088,0.0546088098921367,0.5,0.5,0.5,1.0,0.0,0.0,2.0,2.0,1.0,2.0,-1.0,2.0,0,0,1,0.48604023880233255,0.2498051250673041,0.07450416860783937,0.6083331680731455,0.2382639246952356,0.08613975798334672,0.4966005268704677,0.24998844358244163,0.07744491934301417,0.5037481982563464,0.2499859510098311,0.07562700604076456,0.7658321041550414,0.17933329240050322,0.07355661304196932,0.7073161354790837,0.20702001997001818,0.07505610062174894,0.7392146257579928,0.19277636282346342,0.07837414756739491,0.4066694247763538,0.2412894037284233,0.11076775205854636,0.6755636290514933,0.21917741215426967,0.15459764732549972,0.6028630288540995,0.2394191972949607,0.16465203150113034
13.0,0.0,13.0,0.0,3.0,0.0,3.0,0.0,,,,left,2.042752700042911,491.3873041999759,ry1,485.8040365999332,487.80364940001164,491.3873041999759,None,False,4.0,['r'],False,0.4081632653061224,0.5714285714285714,0.2857142857142857,2.0,2.0,0.9885754083994552,-0.0002517703993597,wait_cost,1.0,3.0,487.8036494000117,None,ry1,1,2022-04-07_14h25.11.903,threat_forest,2021.2.3,60.07810152520136,False,58.0,0.5357142857142857,0.5907738095238095,-0.326530612244898,-0.075302343159486,0,0,0,0.7142982610504568,-0.0002517703993597,0.4081632653061224,0.4081632653061224,0.5714285714285714,0.7142857142857143,-0.5714285714285715,-0.653061224489796,3.346938775510204,3.346938775510204,0.0,2.0,1.0,4.0,0,0,0,0.4464136091361489,0.24712849871418657,0.10342240952660875,0.392347852747889,0.23841101519200983,0.08605603987732532,0.28845935643648274,0.20525055612073292,0.13954812394490745,0.5520208757506638,0.247293828486134,0.07853122702882354,0.601755390577531,0.2396458404884141,0.09827350194465245,0.25136603545769326,0.18818115167597496,0.10055743431314779,0.583794046348971,0.24297855779646654,0.11571543547995466,0.4066694247763538,0.2412894037284233,0.11076775205854636,0.5339994072502404,0.2488440403066323,0.19537952794725247,0.25851667267769557,0.1916858026253488,0.12193300103182832
13.0,0.0,13.0,0.0,4.0,0.0,4.0,0.0,,,,left,0.9272604000288992,496.77072559995577,ry1,496.77072559995577,None,493.4541988999117,495.4538485999219,True,3.0,['r'],True,0.5,0.5,0.0,0.0,2.0,0.6309297535714574,0.25,unsucc_cost,0.0,1.0,495.4538485999219,None,ry1,1,2022-04-07_14h25.11.903,threat_forest,2021.2.3,60.07810152520136,True,58.0,0.5357142857142857,0.5907738095238095,-0.326530612244898,-0.075302343159486,1,0,1,-0.0755208466829935,0.25,0.5,0.5,0.5,1.0,0.0,0.0,3.0,3.0,1.0,2.0,-1.0,3.0,0,0,1,0.48604023880233255,0.2498051250673041,0.07450416860783937,0.6083331680731455,0.2382639246952356,0.08613975798334672,0.4966005268704677,0.24998844358244163,0.07744491934301417,0.5037481982563464,0.2499859510098311,0.07562700604076456,0.7658321041550414,0.17933329240050322,0.07355661304196932,0.7073161354790837,0.20702001997001818,0.07505610062174894,0.7392146257579928,0.19277636282346342,0.07837414756739491,0.4066694247763538,0.2412894037284233,0.11076775205854636,0.6755636290514933,0.21917741215426967,0.15459764732549972,0.9965187491921458,0.003469131700667094,-0.046511622605651635
13.0,0.0,13.0,0.0,5.0,0.0,5.0,0.0,,,,right,0.8774553999537602,500.72082249994855,ry1,497.7206813999219,499.7204454999883,500.72082249994855,None,True,1.0,['r'],False,0.4081632653061224,0.5714285714285714,0.2857142857142857,2.0,2.0,0.9885754083994552,0.4081632653061224,unsucc_cost,1.0,0.0,499.7204454999883,None,ry1,1,2022-04-07_14h25.11.903,threat_forest,2021.2.3,60.07810152520136,True,58.0,0.5357142857142857,0.5907738095238095,-0.326530612244898,-0.075302343159486,0,0,1,-0.1307291511973356,0.4081632653061224,1.0,0.4081632653061224,0.5714285714285714,0.7142857142857143,-0.5714285714285715,-0.653061224489796,0.346938775510204,0.346938775510204,0.0,2.0,-1.0,1.0,1,0,0,0.4464136091361489,0.24712849871418657,0.10342240952660875,0.392347852747889,0.23841101519200983,0.08605603987732532,0.4966005268704677,0.24998844358244163,0.07744491934301417,0.5520208757506638,0.247293828486134,0.07853122702882354,0.601755390577531,0.2396458404884141,0.09827350194465245,0.25136603545769326,0.18818115167597496,0.10055743431314779,0.583794046348971,0.24297855779646654,0.11571543547995466,0.8510673335072794,0.1267517273440887,-0.053598183750873135,0.9817496640045099,0.017917261231541887,-0.1220690303533038,0.9999497307614307,5.02667115728929e-05,-0.049571337898277244
14.0,0.0,14.0,0.0,0.0,0.0,0.0,0.0,504.5474329999415,508.0491380000021,None,left,0.9485154999420048,509.9714411000023,ry1,509.9714411000023,None,504.5474329999415,508.04913800000213,True,4.0,['p'],True,0.24,0.4,0.4,2.0,2.0,0.9801625908629508,0.0188358143999999,unsucc_cost,0.0,2.0,,,ry1,1,2022-04-07_14h25.11.903,threat_forest,2021.2.3,60.07810152520136,True,65.0,0.3,0.4178571428571428,-1.5000000000000002,-0.9132653061224492,0,0,1,-0.0528571482097462,0.0188358143999999,0.24,0.24,0.4,0.6,-1.6,-1.4400000000000002,2.56,2.56,1.0,2.0,-1.0,4.0,0,0,0,0.48604023880233255,0.2498051250673041,0.07450416860783937,0.3124780067131565,0.214835502033729,0.099474291588875,0.4966005268704677,0.24998844358244163,0.07744491934301417,0.4362509523183806,0.24593605891968665,0.07999596826445227,0.27347407550332453,0.19868600553092647,0.0814876137304653,0.25136603545769326,0.18818115167597496,0.10055743431314779,0.27891300715973477,0.20112054159684853,0.08458069654674533,0.4066694247763538,0.2412894037284233,0.11076775205854636,0.2773943581792463,0.20044672822957033,0.1288491021299434,0.3677564589137356,0.23251164584096545,0.1584701141438184
14.0,0.0,14.0,0.0,1.0,0.0,1.0,0.0,,,,left,1.3494413000298664,516.7227545999922,ry1,510.93780129996594,512.9374547000043,516.7227545999922,None,False,2.0,['p'],False,0.16,0.2,0.2,2.0,2.0,0.8198746470064713,-0.00563328,wait_cost,1.0,1.0,512.9374547000043,None,ry1,1,2022-04-07_14h25.11.903,threat_forest,2021.2.3,60.07810152520136,False,65.0,0.3,0.4178571428571428,-1.5000000000000002,-0.9132653061224492,0,0,0,0.2996906549603064,-0.00563328,0.16,0.16,0.2,0.8,-1.8000000000000005,-1.5600000000000005,0.4399999999999997,0.4399999999999997,0.0,2.0,-1.0,2.0,0,0,0,0.4464136091361489,0.24712849871418657,0.10342240952660875,0.45657858025591314,0.24811458030740782,0.08053315355270302,0.4966005268704677,0.24998844358244163,0.07744491934301417,0.3102050641407222,0.21397788232217263,0.11447196495390954,0.22316504081316607,0.173362405372024,0.0711096636755078,0.25136603545769326,0.18818115167597496,0.10055743431314779,0.1732586770277754,0.1432401078623604,0.04152819771187086,0.4066694247763538,0.2412894037284233,0.11076775205854636,0.18577588161011124,0.15126320342209718,0.061237891750591744,0.23183135326390325,0.17808557690773058,0.10976147078886851
14.0,0.0,14.0,0.0,2.0,0.0,2.0,0.0,,,,left,0.807769599952735,523.3544986000052,ry1,523.3544986000052,None,518.104444299941,520.1042036999715,True,1.0,['p'],True,0.24,0.4,0.4,2.0,2.0,0.9801625908629508,0.0577919999999999,figh_cost,0.0,0.0,520.1042036999715,None,ry1,1,2022-04-07_14h25.11.903,threat_forest,2021.2.3,60.07810152520136,True,65.0,0.3,0.4178571428571428,-1.5000000000000002,-0.9132653061224492,0,0,1,-0.213478409696974,0.0577919999999999,1.0,0.24,0.4,0.6,-1.6,-1.4400000000000002,-0.4400000000000001,0.0,1.0,2.0,-1.0,1.0,1,0,0,0.48604023880233255,0.2498051250673041,0.07450416860783937,0.3124780067131565,0.214835502033729,0.099474291588875,0.4966005268704677,0.24998844358244163,0.07744491934301417,0.4362509523183806,0.24593605891968665,0.07999596826445227,0.27347407550332453,0.19868600553092647,0.0814876137304653,0.25136603545769326,0.18818115167597496,0.10055743431314779,0.27891300715973477,0.20112054159684853,0.08458069654674533,0.8510673335072794,0.1267517273440887,-0.053598183750873135,0.9817496640045099,0.017917261231541887,-0.1220690303533038,0.623109339232639,0.23484409059370304,0.16055753698792619
15.0,0.0,15.0,0.0,0.0,0.0,0.0,0.0,526.922549800016,530.4377267999807,None,left,0.6033529000123963,531.154859000002,ry1,531.154859000002,None,526.922549800016,530.4377267999807,True,5.0,['r'],True,0.5,0.5,0.0,0.0,2.0,0.6309297535714574,0.0898892961248285,succ_gain,0.0,6.0,,,ry1,1,2022-04-07_14h25.11.903,threat_forest,2021.2.3,60.07810152520136,True,49.0,0.5833333333333333,0.4416666666666666,-0.888888888888889,-1.1944444444444446,1,1,1,-0.5052530129564747,0.0898892961248285,0.5,0.5,0.5,1.0,0.0,0.0,5.0,5.0,1.0,2.0,-1.0,5.0,0,1,1,0.48604023880233255,0.2498051250673041,0.07450416860783937,0.6083331680731455,0.2382639246952356,0.08613975798334672,0.4966005268704677,0.24998844358244163,0.07744491934301417,0.5037481982563464,0.2499859510098311,0.07562700604076456,0.7658321041550414,0.17933329240050322,0.07355661304196932,0.7073161354790837,0.20702001997001818,0.07505610062174894,0.7392146257579928,0.19277636282346342,0.07837414756739491,0.4066694247763538,0.2412894037284233,0.11076775205854636,0.6755636290514933,0.21917741215426967,0.15459764732549972,0.7963222005737217,0.16219315344714702,0.09553853678757222
15.0,0.0,15.0,0.0,1.0,0.0,1.0,0.0,,,,left,2.0692760999081656,536.0382140999427,ry1,536.0382140999427,None,526.922549800016,530.4377267999807,True,6.0,['r'],True,0.5,0.5,0.0,0.0,2.0,0.6309297535714574,-0.0292365933641975,unsucc_cost,0.0,4.0,533.7877151999855,None,ry1,1,2022-04-07_14h25.11.903,threat_forest,2021.2.3,60.07810152520136,True,49.0,0.5833333333333333,0.4416666666666666,-0.888888888888889,-1.1944444444444446,1,1,1,0.7271988359251176,-0.0292365933641975,0.5,0.5,0.5,1.0,0.0,0.0,6.0,6.0,1.0,2.0,1.0,6.0,0,1,1,0.48604023880233255,0.2498051250673041,0.07450416860783937,0.6083331680731455,0.2382639246952356,0.08613975798334672,0.28845935643648274,0.20525055612073292,0.13954812394490745,0.5037481982563464,0.2499859510098311,0.07562700604076456,0.7658321041550414,0.17933329240050322,0.07355661304196932,0.7073161354790837,0.20702001997001818,0.07505610062174894,0.7392146257579928,0.19277636282346342,0.07837414756739491,0.4066694247763538,0.2412894037284233,0.11076775205854636,0.6755636290514933,0.21917741215426967,0.15459764732549972,0.13812771865888157,0.11904845199697443,0.05692616009414968
15.0,0.0,15.0,0.0,2.0,0.0,2.0,0.0,,,,left,0.6835641999496147,542.4217159999534,ry1,542.4217159999534,None,526.922549800016,530.4377267999807,True,4.0,['r'],True,0.5,0.5,0.0,0.0,2.0,0.6309297535714574,0.1141493055555555,succ_gain,0.0,6.0,540.138004999957,None,ry1,1,2022-04-07_14h25.11.903,threat_forest,2021.2.3,60.07810152520136,True,49.0,0.5833333333333333,0.4416666666666666,-0.888888888888889,-1.1944444444444446,1,1,1,-0.3804346989926617,0.1141493055555555,0.5,0.5,0.5,1.0,0.0,0.0,4.0,4.0,1.0,2.0,-1.0,4.0,0,1,1,0.48604023880233255,0.2498051250673041,0.07450416860783937,0.6083331680731455,0.2382639246952356,0.08613975798334672,0.4966005268704677,0.24998844358244163,0.07744491934301417,0.5037481982563464,0.2499859510098311,0.07562700604076456,0.7658321041550414,0.17933329240050322,0.07355661304196932,0.7073161354790837,0.20702001997001818,0.07505610062174894,0.7392146257579928,0.19277636282346342,0.07837414756739491,0.4066694247763538,0.2412894037284233,0.11076775205854636,0.6755636290514933,0.21917741215426967,0.15459764732549972,0.8822595072814226,0.10387766909296398,0.0433490587460201
15.0,0.0,15.0,0.0,3.0,0.0,3.0,0.0,,,,left,2.041234199889004,546.8047960000113,ry1,546.8047960000113,None,526.922549800016,530.4377267999807,True,6.0,['r'],True,0.5,0.5,0.0,0.0,2.0,0.6309297535714574,-0.1822916666666666,unsucc_cost,0.0,4.0,545.1214616999496,None,ry1,1,2022-04-07_14h25.11.903,threat_forest,2021.2.3,60.07810152520136,True,49.0,0.5833333333333333,0.4416666666666666,-0.888888888888889,-1.1944444444444446,1,1,1,0.7135546248630296,-0.1822916666666666,0.0,0.5,0.5,1.0,0.0,0.0,6.0,6.0,1.0,2.0,1.0,6.0,0,1,1,0.48604023880233255,0.2498051250673041,0.07450416860783937,0.6083331680731455,0.2382639246952356,0.08613975798334672,0.28845935643648274,0.20525055612073292,0.13954812394490745,0.5037481982563464,0.2499859510098311,0.07562700604076456,0.7658321041550414,0.17933329240050322,0.07355661304196932,0.7073161354790837,0.20702001997001818,0.07505610062174894,0.7392146257579928,0.19277636282346342,0.07837414756739491,0.4066694247763538,0.2412894037284233,0.11076775205854636,0.0745895445472127,0.06902594439145208,-0.051811358849221834,0.002637871840482535,0.002630913472635725,-0.04726178651649522
15.0,0.0,15.0,0.0,4.0,0.0,4.0,0.0,,,,left,0.781254900037311,553.4714428000152,ry1,553.4714428000152,None,526.922549800016,530.4377267999807,True,4.0,['r'],True,0.5,0.5,0.0,0.0,2.0,0.6309297535714574,0.1597222222222222,unsucc_cost,0.0,2.0,550.8716303999536,None,ry1,1,2022-04-07_14h25.11.903,threat_forest,2021.2.3,60.07810152520136,True,49.0,0.5833333333333333,0.4416666666666666,-0.888888888888889,-1.1944444444444446,1,1,1,-0.2468538059034369,0.1597222222222222,0.5,0.5,0.5,1.0,0.0,0.0,4.0,4.0,1.0,2.0,-1.0,4.0,0,1,1,0.48604023880233255,0.2498051250673041,0.07450416860783937,0.6083331680731455,0.2382639246952356,0.08613975798334672,0.4966005268704677,0.24998844358244163,0.07744491934301417,0.5037481982563464,0.2499859510098311,0.07562700604076456,0.7658321041550414,0.17933329240050322,0.07355661304196932,0.7073161354790837,0.20702001997001818,0.07505610062174894,0.7392146257579928,0.19277636282346342,0.07837414756739491,0.4066694247763538,0.2412894037284233,0.11076775205854636,0.6755636290514933,0.21917741215426967,0.15459764732549972,0.9621687115509548,0.03640008206333037,-0.01704004863395442
15.0,0.0,15.0,0.0,5.0,0.0,5.0,0.0,,,,left,1.610326200025156,558.8720055000158,ry1,558.8720055000158,None,526.922549800016,530.4377267999807,True,2.0,['r'],True,0.5,0.5,0.0,0.0,2.0,0.6309297535714574,0.1388888888888888,unsucc_cost,0.0,0.0,556.2716676999116,None,ry1,1,2022-04-07_14h25.11.903,threat_forest,2021.2.3,60.07810152520136,True,49.0,0.5833333333333333,0.4416666666666666,-0.888888888888889,-1.1944444444444446,1,1,1,0.4764367671852756,0.1388888888888888,0.5,0.5,0.5,1.0,0.0,0.0,2.0,2.0,1.0,2.0,-1.0,2.0,0,1,1,0.48604023880233255,0.2498051250673041,0.07450416860783937,0.6083331680731455,0.2382639246952356,0.08613975798334672,0.4966005268704677,0.24998844358244163,0.07744491934301417,0.5037481982563464,0.2499859510098311,0.07562700604076456,0.7658321041550414,0.17933329240050322,0.07355661304196932,0.7073161354790837,0.20702001997001818,0.07505610062174894,0.7392146257579928,0.19277636282346342,0.07837414756739491,0.4066694247763538,0.2412894037284233,0.11076775205854636,0.6755636290514933,0.21917741215426967,0.15459764732549972,0.9356799364204129,0.06018299300070499,0.004244481913570186
16.0,0.0,16.0,0.0,0.0,0.0,0.0,0.0,565.92864129995,569.4382902999641,None,left,1.1773848999291658,571.624354199972,ry1,565.92864129995,569.4382902999641,571.624354199972,None,False,5.0,['p'],False,0.16,0.2,0.2,2.0,1.0,0.8198746470064713,-0.0074793948520252,wait_cost,1.0,4.0,,,ry1,1,2022-04-07_14h25.11.903,threat_forest,2021.2.3,60.07810152520136,False,71.0,0.35,0.4666666666666666,-1.7350000000000003,-1.3119444444444446,0,0,0,0.1632957926012683,-0.0074793948520252,0.16,0.16,0.2,0.8,-2.0,-1.7200000000000004,3.28,3.28,0.0,1.0,-1.0,5.0,0,0,0,0.4464136091361489,0.24712849871418657,0.10342240952660875,0.45657858025591314,0.24811458030740782,0.08053315355270302,0.4966005268704677,0.24998844358244163,0.07744491934301417,0.3102050641407222,0.21397788232217263,0.11447196495390954,0.17982031809751117,0.1474849712968211,0.06050474507397552,0.25136603545769326,0.18818115167597496,0.10055743431314779,0.1732586770277754,0.1432401078623604,0.04152819771187086,0.4066694247763538,0.2412894037284233,0.11076775205854636,0.18577588161011124,0.15126320342209718,0.061237891750591744,0.22313264824066498,0.17334446952977264,0.10551841386951315
16.0,0.0,16.0,0.0,1.0,0.0,1.0,0.0,,,,left,1.8275267001008613,578.5553274999838,ry1,578.5553274999838,None,572.8222191999666,574.8216772999149,True,4.0,['p'],True,0.25,0.5,0.5,1.0,1.0,0.9463946303571862,0.0188078231718747,figh_cost,0.0,1.0,574.8216772999149,None,ry1,1,2022-04-07_14h25.11.903,threat_forest,2021.2.3,60.07810152520136,True,71.0,0.35,0.4666666666666666,-1.7350000000000003,-1.3119444444444446,0,0,1,0.6029635227133787,0.0188078231718747,0.25,0.25,0.5,0.5,-2.0,-1.75,2.25,2.25,1.0,1.0,-1.0,4.0,0,0,0,0.48604023880233255,0.2498051250673041,0.07450416860783937,0.2505319088043399,0.18776567147519382,0.11488137086578315,0.4966005268704677,0.24998844358244163,0.07744491934301417,0.5037481982563464,0.2499859510098311,0.07562700604076456,0.17982031809751117,0.1474849712968211,0.06050474507397552,0.25136603545769326,0.18818115167597496,0.10055743431314779,0.29457764918502843,0.20780165778565077,0.08955022991709877,0.4066694247763538,0.2412894037284233,0.11076775205854636,0.2906169528064512,0.20615873954794411,0.13670124368440814,0.36758195478327493,0.23246546130098134,0.15842878126178794
16.0,0.0,16.0,0.0,2.0,0.0,2.0,0.0,,,,left,0.935169899952598,584.8392039999599,ry1,584.8392039999599,None,572.8222191999666,574.8216772999149,True,1.0,['p'],True,0.25,0.5,0.5,1.0,1.0,0.9463946303571862,0.013472802734375,figh_cost,0.0,0.0,582.405141199939,None,ry1,1,2022-04-07_14h25.11.903,threat_forest,2021.2.3,60.07810152520136,True,71.0,0.35,0.4666666666666666,-1.7350000000000003,-1.3119444444444446,0,0,1,-0.0670270550216774,0.013472802734375,1.0,0.25,0.5,0.5,-2.0,-1.75,-0.75,0.0,1.0,1.0,-1.0,1.0,1,0,0,0.48604023880233255,0.2498051250673041,0.07450416860783937,0.2505319088043399,0.18776567147519382,0.11488137086578315,0.4966005268704677,0.24998844358244163,0.07744491934301417,0.5037481982563464,0.2499859510098311,0.07562700604076456,0.17982031809751117,0.1474849712968211,0.06050474507397552,0.25136603545769326,0.18818115167597496,0.10055743431314779,0.29457764918502843,0.20780165778565077,0.08955022991709877,0.8510673335072794,0.1267517273440887,-0.053598183750873135,0.9817496640045099,0.017917261231541887,-0.1220690303533038,0.33499825257014454,0.22277442334509423,0.14975578097378917
17.0,0.0,17.0,0.0,0.0,0.0,0.0,0.0,589.3983040999155,592.9052754999138,None,left,0.907417600043118,594.5081816000165,ry1,589.3983040999155,592.9052754999138,594.5081816000165,None,False,4.0,['p'],False,0.16,0.2,0.2,2.0,2.0,0.8198746470064713,0.0047596004754687,wait_cost,1.0,3.0,,,ry1,1,2022-04-07_14h25.11.903,threat_forest,2021.2.3,60.07810152520136,False,8.0,0.35,0.35,-1.5300000000000002,-1.6325000000000005,1,0,0,-0.097152515816155,0.0047596004754687,0.16,0.16,0.2,0.8,-1.8000000000000005,-1.5600000000000005,2.4399999999999995,2.4399999999999995,0.0,2.0,-1.0,4.0,0,0,1,0.4464136091361489,0.24712849871418657,0.10342240952660875,0.45657858025591314,0.24811458030740782,0.08053315355270302,0.4966005268704677,0.24998844358244163,0.07744491934301417,0.3102050641407222,0.21397788232217263,0.11447196495390954,0.22316504081316607,0.173362405372024,0.0711096636755078,0.7073161354790837,0.20702001997001818,0.07505610062174894,0.1732586770277754,0.1432401078623604,0.04152819771187086,0.4066694247763538,0.2412894037284233,0.11076775205854636,0.18577588161011124,0.15126320342209718,0.061237891750591744,0.28509825801007493,0.2038172412896957,0.132790039411892
17.0,0.0,17.0,0.0,1.0,0.0,1.0,0.0,,,,left,1.648551300051622,600.1062827999704,ry1,589.3983040999155,592.9052754999138,600.1062827999704,None,False,3.0,['p'],False,0.16,0.2,0.2,2.0,2.0,0.8198746470064713,0.0157060969937498,wait_cost,1.0,2.0,597.438718099962,None,ry1,1,2022-04-07_14h25.11.903,threat_forest,2021.2.3,60.07810152520136,False,8.0,0.35,0.35,-1.5300000000000002,-1.6325000000000005,1,0,0,0.4998969022760421,0.0157060969937498,0.16,0.16,0.2,0.8,-1.8000000000000005,-1.5600000000000005,1.4399999999999995,1.4399999999999995,0.0,2.0,-1.0,3.0,0,0,1,0.4464136091361489,0.24712849871418657,0.10342240952660875,0.45657858025591314,0.24811458030740782,0.08053315355270302,0.4966005268704677,0.24998844358244163,0.07744491934301417,0.3102050641407222,0.21397788232217263,0.11447196495390954,0.22316504081316607,0.173362405372024,0.0711096636755078,0.7073161354790837,0.20702001997001818,0.07505610062174894,0.1732586770277754,0.1432401078623604,0.04152819771187086,0.4066694247763538,0.2412894037284233,0.11076775205854636,0.18577588161011124,0.15126320342209718,0.061237891750591744,0.3484684869104663,0.22703820054079651,0.1535716509574398
