miniblock.thisRepN,miniblock.thisTrialN,miniblock.thisN,miniblock.thisIndex,day.thisRepN,day.thisTrialN,day.thisN,day.thisIndex,forest.started,fixation_forest.started,fixation_forest.stopped,key_resp.keys,key_resp.rt,key_resp.started,Subject_ID,weather_left.started,weather_left.stopped,weather_right.started,weather_right.stopped,foraging T/F,in_LP,p/r heuristic,good_weather.T/F,p_succ_correct,p_succ_uncorrected,r_threat,n_oponents,gain_if_succ,weather_entropy,OP_value_difference,action_outcome,forest_side_L=0_R=1,out_LP,fixation_day.started,fixation_day.stopped,participant,session,date,expName,psychopyVersion,frameRate,foraging T/F NaNs,fora_NR,forest_mean_p,mvt_cutoff_p,forest_mean_ev,mvt_cutoff_ev,mvt_policy_eg,mvt_policy_p,fora_response,logRT,optimal policy,$\mathit{p}$ success cor + cap,$\mathit{p}$ success cor,$\mathit{p}$ success,risk threat encounter,expected gain naive,expected gain correct,expected state no bounds,expected state with bounds,weather type,gain magnitude,win stay lose shift,continuous energy state,binary energy state,$\mathit{p}$ success based MVT,expected gain based MVT,weather type fit,weather type_uncertain,weather type_uncertain_fit,risk threat encounter fit,risk threat encounter_uncertain,risk threat encounter_uncertain_fit,win stay lose shift fit,win stay lose shift_uncertain,win stay lose shift_uncertain_fit,$\mathit{p}$ success fit,$\mathit{p}$ success_uncertain,$\mathit{p}$ success_uncertain_fit,expected gain naive fit,expected gain naive_uncertain,expected gain naive_uncertain_fit,expected gain based MVT fit,expected gain based MVT_uncertain,expected gain based MVT_uncertain_fit,$\mathit{p}$ success cor fit,$\mathit{p}$ success cor_uncertain,$\mathit{p}$ success cor_uncertain_fit,binary energy state fit,binary energy state_uncertain,binary energy state_uncertain_fit,$\mathit{p}$ success cor + cap fit,$\mathit{p}$ success cor + cap_uncertain,$\mathit{p}$ success cor + cap_uncertain_fit,optimal policy fit,optimal policy_uncertain,optimal policy_uncertain_fit
0.0,0.0,0.0,0.0,0.0,0.0,0.0,0.0,72.10452799987979,75.61118120001629,None,left,1.1514577998314053,76.13924399996176,iz8,72.10452799987979,75.61118120001629,76.13924399996176,None,False,5.0,['r'],False,0.5185185185185185,0.6666666666666666,0.2222222222222222,2.0,2.0,0.9327883776363328,-0.0122223691349874,wait_cost,1.0,4.0,,,iz8,1,2022-04-21_11h28.55.000,threat_forest,2021.2.3,59.73929775023638,False,60.0,0.6458333333333333,0.6458333333333333,0.1759259259259258,0.1759259259259258,0,0,0,0.1410287916100058,-0.0122223691349874,0.5185185185185185,0.5185185185185185,0.6666666666666666,0.7777777777777778,-1.1102230246251563e-16,-0.1481481481481482,4.851851851851852,4.851851851851852,0.0,2.0,,5.0,0,0,0,0.514289653994463,0.24979580578871854,-0.09645928568878089,0.4151118078986737,0.24279399484176833,-0.0977531785897823,,,,0.49563438999965737,0.24998094144932484,-0.15647037289845178,0.5402657801089906,0.24837866695221444,-0.13187951071008408,0.342996194386233,0.22534980502279447,-0.04868938102796205,0.5654863430900215,0.24571153886869598,-0.12885147417532483,0.3518005868753321,0.22803693394950406,-0.0849147043302646,0.6537075519890163,0.22637398846154383,-0.03745732379451655,0.2676715165715909,0.19602347578785545,-0.07626957452927552
0.0,0.0,0.0,0.0,1.0,0.0,1.0,0.0,,,,left,1.0777908000163734,80.52255130000412,iz8,72.10452799987979,75.61118120001629,80.52255130000412,None,False,4.0,['r'],False,0.5185185185185185,0.6666666666666666,0.2222222222222222,2.0,2.0,0.9327883776363328,0.0437285366701187,wait_cost,1.0,3.0,79.32210669992492,None,iz8,1,2022-04-21_11h28.55.000,threat_forest,2021.2.3,59.73929775023638,False,60.0,0.6458333333333333,0.6458333333333333,0.1759259259259258,0.1759259259259258,0,0,0,0.0749133905895436,0.0437285366701187,0.5185185185185185,0.5185185185185185,0.6666666666666666,0.7777777777777778,-1.1102230246251563e-16,-0.1481481481481482,3.851851851851852,3.851851851851852,0.0,2.0,-1.0,4.0,0,0,0,0.514289653994463,0.24979580578871854,-0.09645928568878089,0.4151118078986737,0.24279399484176833,-0.0977531785897823,0.4923558354807407,0.2499415667488025,-0.0819963039194771,0.49563438999965737,0.24998094144932484,-0.15647037289845178,0.5402657801089906,0.24837866695221444,-0.13187951071008408,0.342996194386233,0.22534980502279447,-0.04868938102796205,0.5654863430900215,0.24571153886869598,-0.12885147417532483,0.3518005868753321,0.22803693394950406,-0.0849147043302646,0.6537075519890163,0.22637398846154383,-0.03745732379451655,0.46235964773852983,0.2485832038816325,-0.009028462752569355
0.0,0.0,0.0,0.0,2.0,0.0,2.0,0.0,,,,left,1.119106299942359,85.38923779991455,iz8,72.10452799987979,75.61118120001629,85.38923779991455,None,False,3.0,['r'],False,0.5185185185185185,0.6666666666666666,0.2222222222222222,2.0,2.0,0.9327883776363328,0.0932899939702561,wait_cost,1.0,2.0,83.62224359996617,None,iz8,1,2022-04-21_11h28.55.000,threat_forest,2021.2.3,59.73929775023638,False,60.0,0.6458333333333333,0.6458333333333333,0.1759259259259258,0.1759259259259258,0,0,0,0.1125304202982169,0.0932899939702561,0.5185185185185185,0.5185185185185185,0.6666666666666666,0.7777777777777778,-1.1102230246251563e-16,-0.1481481481481482,2.851851851851852,2.851851851851852,0.0,2.0,-1.0,3.0,0,0,0,0.514289653994463,0.24979580578871854,-0.09645928568878089,0.4151118078986737,0.24279399484176833,-0.0977531785897823,0.4923558354807407,0.2499415667488025,-0.0819963039194771,0.49563438999965737,0.24998094144932484,-0.15647037289845178,0.5402657801089906,0.24837866695221444,-0.13187951071008408,0.342996194386233,0.22534980502279447,-0.04868938102796205,0.5654863430900215,0.24571153886869598,-0.12885147417532483,0.3518005868753321,0.22803693394950406,-0.0849147043302646,0.6537075519890163,0.22637398846154383,-0.03745732379451655,0.6472710492542088,0.22831123805156445,-0.03496294852237991
0.0,0.0,0.0,0.0,3.0,0.0,3.0,0.0,,,,left,0.8068699000868946,90.92386389989406,iz8,90.92386389989406,None,86.53945189993829,88.53894210001454,True,2.0,['r'],True,0.625,0.625,0.0,0.0,2.0,0.6021808102656677,0.0850764152838109,succ_gain,0.0,4.0,88.53894210001454,None,iz8,1,2022-04-21_11h28.55.000,threat_forest,2021.2.3,59.73929775023638,True,60.0,0.6458333333333333,0.6458333333333333,0.1759259259259258,0.1759259259259258,1,0,1,-0.2145928379751543,0.0850764152838109,0.625,0.625,0.625,1.0,0.5,0.5,2.5,2.5,1.0,2.0,-1.0,2.0,0,0,1,0.3283566005763313,0.22053854343428692,-0.09955347707365625,0.46902820340555484,0.24904074781571228,-0.09167705905080897,0.4923558354807407,0.2499415667488025,-0.0819963039194771,0.48149320954163516,0.2496574987069302,-0.15425963734414072,0.6018496115179139,0.23962665663365001,-0.1017049503282017,0.504908499588737,0.2499759066317874,-0.1479803775179459,0.6534500375600784,0.22645308597281052,-0.07450939557107816,0.3518005868753321,0.22803693394950406,-0.0849147043302646,0.7876369820527473,0.16726496655558754,-0.0999766477927824,0.6180926104418164,0.2360541353590374,-0.025057246148912193
0.0,0.0,0.0,0.0,4.0,0.0,4.0,0.0,,,,left,1.098701599985361,95.67466800007968,iz8,91.75596059998496,93.75565110007301,95.67466800007968,None,False,4.0,['r'],False,0.5185185185185185,0.6666666666666666,0.2222222222222222,2.0,2.0,0.9327883776363328,0.0476305298353909,wait_cost,1.0,3.0,93.755651100073,None,iz8,1,2022-04-21_11h28.55.000,threat_forest,2021.2.3,59.73929775023638,False,60.0,0.6458333333333333,0.6458333333333333,0.1759259259259258,0.1759259259259258,0,0,0,0.0941291189768108,0.0476305298353909,0.5185185185185185,0.5185185185185185,0.6666666666666666,0.7777777777777778,-1.1102230246251563e-16,-0.1481481481481482,3.851851851851852,3.851851851851852,0.0,2.0,1.0,4.0,0,0,0,0.514289653994463,0.24979580578871854,-0.09645928568878089,0.4151118078986737,0.24279399484176833,-0.0977531785897823,0.15662606012635316,0.13209433741564916,-0.1637944132095167,0.49563438999965737,0.24998094144932484,-0.15647037289845178,0.5402657801089906,0.24837866695221444,-0.13187951071008408,0.342996194386233,0.22534980502279447,-0.04868938102796205,0.5654863430900215,0.24571153886869598,-0.12885147417532483,0.3518005868753321,0.22803693394950406,-0.0849147043302646,0.6537075519890163,0.22637398846154383,-0.03745732379451655,0.4772217560554304,0.24948115160280168,-0.007879693432814694
0.0,0.0,0.0,0.0,5.0,0.0,5.0,0.0,,,,left,0.6767736000474542,99.72277950006536,iz8,91.75596059998496,93.75565110007301,99.72277950006536,None,False,3.0,['r'],False,0.5185185185185185,0.6666666666666666,0.2222222222222222,2.0,2.0,0.9327883776363328,0.0683727709190671,wait_cost,1.0,2.0,98.80580860003828,None,iz8,1,2022-04-21_11h28.55.000,threat_forest,2021.2.3,59.73929775023638,False,60.0,0.6458333333333333,0.6458333333333333,0.1759259259259258,0.1759259259259258,0,0,0,-0.3904184784730002,0.0683727709190671,0.5185185185185185,0.5185185185185185,0.6666666666666666,0.7777777777777778,-1.1102230246251563e-16,-0.1481481481481482,2.851851851851852,2.851851851851852,0.0,2.0,-1.0,3.0,0,0,0,0.514289653994463,0.24979580578871854,-0.09645928568878089,0.4151118078986737,0.24279399484176833,-0.0977531785897823,0.4923558354807407,0.2499415667488025,-0.0819963039194771,0.49563438999965737,0.24998094144932484,-0.15647037289845178,0.5402657801089906,0.24837866695221444,-0.13187951071008408,0.342996194386233,0.22534980502279447,-0.04868938102796205,0.5654863430900215,0.24571153886869598,-0.12885147417532483,0.3518005868753321,0.22803693394950406,-0.0849147043302646,0.6537075519890163,0.22637398846154383,-0.03745732379451655,0.5562661419919901,0.2468341212653372,-0.011266112450816768
0.0,0.0,0.0,0.0,6.0,0.0,6.0,0.0,,,,left,0.5094033000059426,104.59359740000218,iz8,104.59359740000218,None,100.42293799994512,102.42248379997909,True,2.0,['r'],True,0.625,0.625,0.0,0.0,2.0,0.6021808102656677,0.0532407407407407,succ_gain,0.0,4.0,102.42248379997908,None,iz8,1,2022-04-21_11h28.55.000,threat_forest,2021.2.3,59.73929775023638,True,60.0,0.6458333333333333,0.6458333333333333,0.1759259259259258,0.1759259259259258,1,0,1,-0.6745152382364398,0.0532407407407407,0.625,0.625,0.625,1.0,0.5,0.5,2.5,2.5,1.0,2.0,-1.0,2.0,0,0,1,0.3283566005763313,0.22053854343428692,-0.09955347707365625,0.46902820340555484,0.24904074781571228,-0.09167705905080897,0.4923558354807407,0.2499415667488025,-0.0819963039194771,0.48149320954163516,0.2496574987069302,-0.15425963734414072,0.6018496115179139,0.23962665663365001,-0.1017049503282017,0.504908499588737,0.2499759066317874,-0.1479803775179459,0.6534500375600784,0.22645308597281052,-0.07450939557107816,0.3518005868753321,0.22803693394950406,-0.0849147043302646,0.7876369820527473,0.16726496655558754,-0.0999766477927824,0.4986543335285689,0.24999818918174768,-0.00721823297821278
0.0,0.0,0.0,0.0,7.0,0.0,7.0,0.0,,,,left,0.4440605998970568,109.17318330006674,iz8,105.1227430999279,107.12271069991402,109.17318330006674,None,False,4.0,['r'],False,0.5185185185185185,0.6666666666666666,0.2222222222222222,2.0,2.0,0.9327883776363328,0.0,wait_cost,1.0,3.0,107.12271069991402,None,iz8,1,2022-04-21_11h28.55.000,threat_forest,2021.2.3,59.73929775023638,False,60.0,0.6458333333333333,0.6458333333333333,0.1759259259259258,0.1759259259259258,0,0,0,-0.8117942396086812,0.0,0.0,0.5185185185185185,0.6666666666666666,0.7777777777777778,-1.1102230246251563e-16,-0.1481481481481482,3.851851851851852,3.851851851851852,0.0,2.0,1.0,4.0,0,0,0,0.514289653994463,0.24979580578871854,-0.09645928568878089,0.4151118078986737,0.24279399484176833,-0.0977531785897823,0.15662606012635316,0.13209433741564916,-0.1637944132095167,0.49563438999965737,0.24998094144932484,-0.15647037289845178,0.5402657801089906,0.24837866695221444,-0.13187951071008408,0.342996194386233,0.22534980502279447,-0.04868938102796205,0.5654863430900215,0.24571153886869598,-0.12885147417532483,0.3518005868753321,0.22803693394950406,-0.0849147043302646,0.06578276310113566,0.061455391179915525,-0.21189091928175077,0.30585714078914283,0.21230855021743328,-0.05543562904048843
1.0,0.0,1.0,0.0,0.0,0.0,0.0,0.0,114.22029020008632,117.72272419999354,None,right,1.1794188998173922,119.10675049992278,iz8,114.22029020008632,117.72272419999354,119.10675049992278,None,True,5.0,['p'],False,0.4444444444444445,0.6666666666666666,0.3333333333333333,1.0,2.0,0.9656336071428248,0.0253949986159629,succ_gain,1.0,6.0,,,iz8,1,2022-04-21_11h28.55.000,threat_forest,2021.2.3,59.73929775023638,True,15.0,0.4833333333333333,0.5645833333333332,-0.8977777777777778,-0.360925925925926,0,0,1,0.1650218593985448,0.0253949986159629,0.4444444444444445,0.4444444444444445,0.6666666666666666,0.6666666666666667,-0.3333333333333335,-0.5555555555555556,4.444444444444445,4.444444444444445,0.0,2.0,-1.0,5.0,0,0,0,0.514289653994463,0.24979580578871854,-0.09645928568878089,0.38881733836466936,0.23763841575168362,-0.10276793024950867,0.4923558354807407,0.2499415667488025,-0.0819963039194771,0.49563438999965737,0.24998094144932484,-0.15647037289845178,0.4983923148051382,0.24999741534831424,-0.13746051660967495,0.342996194386233,0.22534980502279447,-0.04868938102796205,0.501381157236356,0.24999809240468843,-0.1409469540382986,0.3518005868753321,0.22803693394950406,-0.0849147043302646,0.54129527243998,0.2482947004741078,-0.014271893679184744,0.3938374311924732,0.23872950898418716,-0.021634566780172337
1.0,0.0,1.0,0.0,1.0,0.0,1.0,0.0,,,,right,0.700641900068149,124.74292399990372,iz8,124.74292399990372,None,120.30637850007042,122.30613819998689,False,6.0,['p'],True,0.24,0.3,0.2,2.0,2.0,0.9003120349047065,-0.0831804998354586,wait_cost,0.0,5.0,122.30613819998688,None,iz8,1,2022-04-21_11h28.55.000,threat_forest,2021.2.3,59.73929775023638,False,15.0,0.4833333333333333,0.5645833333333332,-0.8977777777777778,-0.360925925925926,0,0,0,-0.3557583640291108,-0.0831804998354586,0.24,0.24,0.3,0.8,-1.4,-1.24,4.76,4.76,1.0,2.0,1.0,6.0,0,0,0,0.3283566005763313,0.22053854343428692,-0.09955347707365625,0.4204344660567231,0.24366932580832126,-0.09690175776185372,0.15662606012635316,0.13209433741564916,-0.1637944132095167,0.3738989356996891,0.23409852158232883,-0.04791381655555904,0.3673668598528557,0.23240845013470798,-0.07681852996038985,0.342996194386233,0.22534980502279447,-0.04868938102796205,0.33040064847761536,0.22123605996318663,-0.05978837727183817,0.3518005868753321,0.22803693394950406,-0.0849147043302646,0.24395076155856912,0.1844387874935633,-0.0818119812006371,0.10991726887670566,0.09783546287939167,-0.2018842112589579
1.0,0.0,1.0,0.0,2.0,0.0,2.0,0.0,,,,left,2.013789099873975,128.85653289989568,iz8,125.47306059999391,127.47279389994219,128.85653289989568,None,False,5.0,['p'],False,0.4444444444444445,0.6666666666666666,0.3333333333333333,1.0,2.0,0.9656336071428248,0.0727072881708411,wait_cost,1.0,4.0,127.4727938999422,None,iz8,1,2022-04-21_11h28.55.000,threat_forest,2021.2.3,59.73929775023638,False,15.0,0.4833333333333333,0.5645833333333332,-0.8977777777777778,-0.360925925925926,0,0,0,0.7000180717694515,0.0727072881708411,0.4444444444444445,0.4444444444444445,0.6666666666666666,0.6666666666666667,-0.3333333333333335,-0.5555555555555556,4.444444444444445,4.444444444444445,0.0,2.0,-1.0,5.0,0,0,0,0.514289653994463,0.24979580578871854,-0.09645928568878089,0.38881733836466936,0.23763841575168362,-0.10276793024950867,0.4923558354807407,0.2499415667488025,-0.0819963039194771,0.49563438999965737,0.24998094144932484,-0.15647037289845178,0.4983923148051382,0.24999741534831424,-0.13746051660967495,0.342996194386233,0.22534980502279447,-0.04868938102796205,0.501381157236356,0.24999809240468843,-0.1409469540382986,0.3518005868753321,0.22803693394950406,-0.0849147043302646,0.54129527243998,0.2482947004741078,-0.014271893679184744,0.5725608110026799,0.24473492870663333,-0.013951667467935414
1.0,0.0,1.0,0.0,3.0,0.0,3.0,0.0,,,,right,0.651417399989441,136.42358419997618,iz8,125.47306059999391,127.47279389994219,136.42358419997618,None,True,4.0,['p'],False,0.4444444444444445,0.6666666666666666,0.3333333333333333,1.0,2.0,0.9656336071428248,0.110089861911294,succ_gain,1.0,6.0,132.88964350009337,None,iz8,1,2022-04-21_11h28.55.000,threat_forest,2021.2.3,59.73929775023638,True,15.0,0.4833333333333333,0.5645833333333332,-0.8977777777777778,-0.360925925925926,0,0,1,-0.4286046748150827,0.110089861911294,0.4444444444444445,0.4444444444444445,0.6666666666666666,0.6666666666666667,-0.3333333333333335,-0.5555555555555556,3.4444444444444446,3.4444444444444446,0.0,2.0,-1.0,4.0,0,0,0,0.514289653994463,0.24979580578871854,-0.09645928568878089,0.38881733836466936,0.23763841575168362,-0.10276793024950867,0.4923558354807407,0.2499415667488025,-0.0819963039194771,0.49563438999965737,0.24998094144932484,-0.15647037289845178,0.4983923148051382,0.24999741534831424,-0.13746051660967495,0.342996194386233,0.22534980502279447,-0.04868938102796205,0.501381157236356,0.24999809240468843,-0.1409469540382986,0.3518005868753321,0.22803693394950406,-0.0849147043302646,0.54129527243998,0.2482947004741078,-0.014271893679184744,0.7034904715212764,0.20859162800004866,-0.06019079028939284
1.0,0.0,1.0,0.0,4.0,0.0,4.0,0.0,,,,left,1.024044000077993,140.5400745999068,iz8,125.47306059999391,127.47279389994219,140.5400745999068,None,False,6.0,['p'],False,0.4444444444444445,0.6666666666666666,0.3333333333333333,1.0,2.0,0.9656336071428248,-0.1746436213991769,wait_cost,1.0,5.0,139.1064065999817,None,iz8,1,2022-04-21_11h28.55.000,threat_forest,2021.2.3,59.73929775023638,False,15.0,0.4833333333333333,0.5645833333333332,-0.8977777777777778,-0.360925925925926,0,0,0,0.0237594945203474,-0.1746436213991769,0.0,0.4444444444444445,0.6666666666666666,0.6666666666666667,-0.3333333333333335,-0.5555555555555556,5.444444444444445,5.444444444444445,0.0,2.0,1.0,6.0,0,0,0,0.514289653994463,0.24979580578871854,-0.09645928568878089,0.38881733836466936,0.23763841575168362,-0.10276793024950867,0.15662606012635316,0.13209433741564916,-0.1637944132095167,0.49563438999965737,0.24998094144932484,-0.15647037289845178,0.4983923148051382,0.24999741534831424,-0.13746051660967495,0.342996194386233,0.22534980502279447,-0.04868938102796205,0.501381157236356,0.24999809240468843,-0.1409469540382986,0.3518005868753321,0.22803693394950406,-0.0849147043302646,0.06578276310113566,0.061455391179915525,-0.21189091928175077,0.02959023229662249,0.028714650449254416,-0.2903123756212063
1.0,0.0,1.0,0.0,5.0,0.0,5.0,0.0,,,,right,0.5651761000044644,144.67508640000597,iz8,144.67508640000597,None,141.5900842999108,143.5898021000903,False,5.0,['p'],True,0.24,0.3,0.2,2.0,2.0,0.9003120349047065,-0.1213333333333333,wait_cost,0.0,4.0,143.5898021000903,None,iz8,1,2022-04-21_11h28.55.000,threat_forest,2021.2.3,59.73929775023638,False,15.0,0.4833333333333333,0.5645833333333332,-0.8977777777777778,-0.360925925925926,0,0,0,-0.5706179149744299,-0.1213333333333333,0.0,0.24,0.3,0.8,-1.4,-1.24,3.76,3.76,1.0,2.0,-1.0,5.0,0,0,0,0.3283566005763313,0.22053854343428692,-0.09955347707365625,0.4204344660567231,0.24366932580832126,-0.09690175776185372,0.4923558354807407,0.2499415667488025,-0.0819963039194771,0.3738989356996891,0.23409852158232883,-0.04791381655555904,0.3673668598528557,0.23240845013470798,-0.07681852996038985,0.342996194386233,0.22534980502279447,-0.04868938102796205,0.33040064847761536,0.22123605996318663,-0.05978837727183817,0.3518005868753321,0.22803693394950406,-0.0849147043302646,0.06578276310113566,0.061455391179915525,-0.21189091928175077,0.06446274030301545,0.06030729541564144,-0.24989503237094435
1.0,0.0,1.0,0.0,6.0,0.0,6.0,0.0,,,,left,0.4556073001585901,150.59030309994705,iz8,145.25689320010133,147.25651249988005,150.59030309994705,None,False,4.0,['p'],False,0.4444444444444445,0.6666666666666666,0.3333333333333333,1.0,2.0,0.9656336071428248,-0.2192592592592592,wait_cost,1.0,3.0,147.25651249988005,None,iz8,1,2022-04-21_11h28.55.000,threat_forest,2021.2.3,59.73929775023638,False,15.0,0.4833333333333333,0.5645833333333332,-0.8977777777777778,-0.360925925925926,0,0,0,-0.7861240243623479,-0.2192592592592592,0.0,0.4444444444444445,0.6666666666666666,0.6666666666666667,-0.3333333333333335,-0.5555555555555556,3.4444444444444446,3.4444444444444446,0.0,2.0,-1.0,4.0,0,0,0,0.514289653994463,0.24979580578871854,-0.09645928568878089,0.38881733836466936,0.23763841575168362,-0.10276793024950867,0.4923558354807407,0.2499415667488025,-0.0819963039194771,0.49563438999965737,0.24998094144932484,-0.15647037289845178,0.4983923148051382,0.24999741534831424,-0.13746051660967495,0.342996194386233,0.22534980502279447,-0.04868938102796205,0.501381157236356,0.24999809240468843,-0.1409469540382986,0.3518005868753321,0.22803693394950406,-0.0849147043302646,0.06578276310113566,0.061455391179915525,-0.21189091928175077,0.015178912784547537,0.01494851339122664,-0.3079237749610347
1.0,0.0,1.0,0.0,7.0,0.0,7.0,0.0,,,,right,0.8660903999116272,154.67374160001054,iz8,154.67374160001054,None,151.07351560005918,153.07379819988273,False,3.0,['p'],True,0.24,0.3,0.2,2.0,2.0,0.9003120349047065,-0.2,wait_cost,0.0,2.0,153.07379819988273,None,iz8,1,2022-04-21_11h28.55.000,threat_forest,2021.2.3,59.73929775023638,False,15.0,0.4833333333333333,0.5645833333333332,-0.8977777777777778,-0.360925925925926,0,0,0,-0.1437659879790234,-0.2,0.0,0.24,0.3,0.8,-1.4,-1.24,1.76,1.76,1.0,2.0,-1.0,3.0,0,0,0,0.3283566005763313,0.22053854343428692,-0.09955347707365625,0.4204344660567231,0.24366932580832126,-0.09690175776185372,0.4923558354807407,0.2499415667488025,-0.0819963039194771,0.3738989356996891,0.23409852158232883,-0.04791381655555904,0.3673668598528557,0.23240845013470798,-0.07681852996038985,0.342996194386233,0.22534980502279447,-0.04868938102796205,0.33040064847761536,0.22123605996318663,-0.05978837727183817,0.3518005868753321,0.22803693394950406,-0.0849147043302646,0.06578276310113566,0.061455391179915525,-0.21189091928175077,0.02027202364668102,0.019861068703949433,-0.30163900727154663
2.0,0.0,2.0,0.0,0.0,0.0,0.0,0.0,160.7468288000673,164.25679020001553,None,right,0.7489340000320226,166.50730350008234,iz8,160.7468288000673,164.25679020001553,166.50730350008234,None,True,5.0,['p'],False,0.4444444444444445,0.6666666666666666,0.3333333333333333,1.0,2.0,0.9656336071428248,0.0210978181405199,succ_gain,1.0,6.0,,,iz8,1,2022-04-21_11h28.55.000,threat_forest,2021.2.3,59.73929775023638,True,53.0,0.5,0.4916666666666666,-0.8703703703703706,-0.8840740740740742,1,0,1,-0.2891044167947207,0.0210978181405199,0.4444444444444445,0.4444444444444445,0.6666666666666666,0.6666666666666667,-0.3333333333333335,-0.5555555555555556,4.444444444444445,4.444444444444445,0.0,2.0,-1.0,5.0,0,0,1,0.514289653994463,0.24979580578871854,-0.09645928568878089,0.38881733836466936,0.23763841575168362,-0.10276793024950867,0.4923558354807407,0.2499415667488025,-0.0819963039194771,0.49563438999965737,0.24998094144932484,-0.15647037289845178,0.4983923148051382,0.24999741534831424,-0.13746051660967495,0.504908499588737,0.2499759066317874,-0.1479803775179459,0.501381157236356,0.24999809240468843,-0.1409469540382986,0.3518005868753321,0.22803693394950406,-0.0849147043302646,0.54129527243998,0.2482947004741078,-0.014271893679184744,0.37826379656946046,0.23518029677431831,-0.026175171984545498
2.0,0.0,2.0,0.0,1.0,0.0,1.0,0.0,,,,left,0.6710350001230836,171.75746749993414,iz8,160.7468288000673,164.25679020001553,171.75746749993414,None,False,6.0,['p'],False,0.4444444444444445,0.6666666666666666,0.3333333333333333,1.0,2.0,0.9656336071428248,-0.0737245483227398,wait_cost,1.0,5.0,169.27374810003676,None,iz8,1,2022-04-21_11h28.55.000,threat_forest,2021.2.3,59.73929775023638,False,53.0,0.5,0.4916666666666666,-0.8703703703703706,-0.8840740740740742,1,0,0,-0.3989339822335667,-0.0737245483227398,0.4444444444444445,0.4444444444444445,0.6666666666666666,0.6666666666666667,-0.3333333333333335,-0.5555555555555556,5.444444444444445,5.444444444444445,0.0,2.0,1.0,6.0,0,0,1,0.514289653994463,0.24979580578871854,-0.09645928568878089,0.38881733836466936,0.23763841575168362,-0.10276793024950867,0.15662606012635316,0.13209433741564916,-0.1637944132095167,0.49563438999965737,0.24998094144932484,-0.15647037289845178,0.4983923148051382,0.24999741534831424,-0.13746051660967495,0.504908499588737,0.2499759066317874,-0.1479803775179459,0.501381157236356,0.24999809240468843,-0.1409469540382986,0.3518005868753321,0.22803693394950406,-0.0849147043302646,0.54129527243998,0.2482947004741078,-0.014271893679184744,0.12488275365375603,0.1092870514936113,-0.18723387766789112
2.0,0.0,2.0,0.0,2.0,0.0,2.0,0.0,,,,left,0.5919516000431031,177.65770799992606,iz8,160.7468288000673,164.25679020001553,177.65770799992606,None,False,5.0,['p'],False,0.4444444444444445,0.6666666666666666,0.3333333333333333,1.0,2.0,0.9656336071428248,0.0683164578319449,wait_cost,1.0,4.0,174.4569081000518,None,iz8,1,2022-04-21_11h28.55.000,threat_forest,2021.2.3,59.73929775023638,False,53.0,0.5,0.4916666666666666,-0.8703703703703706,-0.8840740740740742,1,0,0,-0.5243304041243387,0.0683164578319449,0.4444444444444445,0.4444444444444445,0.6666666666666666,0.6666666666666667,-0.3333333333333335,-0.5555555555555556,4.444444444444445,4.444444444444445,0.0,2.0,-1.0,5.0,0,0,1,0.514289653994463,0.24979580578871854,-0.09645928568878089,0.38881733836466936,0.23763841575168362,-0.10276793024950867,0.4923558354807407,0.2499415667488025,-0.0819963039194771,0.49563438999965737,0.24998094144932484,-0.15647037289845178,0.4983923148051382,0.24999741534831424,-0.13746051660967495,0.504908499588737,0.2499759066317874,-0.1479803775179459,0.501381157236356,0.24999809240468843,-0.1409469540382986,0.3518005868753321,0.22803693394950406,-0.0849147043302646,0.54129527243998,0.2482947004741078,-0.014271893679184744,0.5560535679278042,0.24685799752256304,-0.0112355668955188
2.0,0.0,2.0,0.0,3.0,0.0,3.0,0.0,,,,right,0.7311717998236418,182.84078540001065,iz8,160.7468288000673,164.25679020001553,182.84078540001065,None,True,4.0,['p'],False,0.4444444444444445,0.6666666666666666,0.3333333333333333,1.0,2.0,0.9656336071428248,0.1073049501261665,succ_gain,1.0,6.0,180.27377910004,None,iz8,1,2022-04-21_11h28.55.000,threat_forest,2021.2.3,59.73929775023638,True,53.0,0.5,0.4916666666666666,-0.8703703703703706,-0.8840740740740742,1,0,1,-0.3131068265667182,0.1073049501261665,0.4444444444444445,0.4444444444444445,0.6666666666666666,0.6666666666666667,-0.3333333333333335,-0.5555555555555556,3.4444444444444446,3.4444444444444446,0.0,2.0,-1.0,4.0,0,0,1,0.514289653994463,0.24979580578871854,-0.09645928568878089,0.38881733836466936,0.23763841575168362,-0.10276793024950867,0.4923558354807407,0.2499415667488025,-0.0819963039194771,0.49563438999965737,0.24998094144932484,-0.15647037289845178,0.4983923148051382,0.24999741534831424,-0.13746051660967495,0.504908499588737,0.2499759066317874,-0.1479803775179459,0.501381157236356,0.24999809240468843,-0.1409469540382986,0.3518005868753321,0.22803693394950406,-0.0849147043302646,0.54129527243998,0.2482947004741078,-0.014271893679184744,0.694530699971574,0.2121578067685695,-0.05562847929794357
2.0,0.0,2.0,0.0,4.0,0.0,4.0,0.0,,,,left,0.4298505999613553,189.10795570001932,iz8,160.7468288000673,164.25679020001553,189.10795570001932,None,False,6.0,['p'],False,0.4444444444444445,0.6666666666666666,0.3333333333333333,1.0,2.0,0.9656336071428248,-0.1726108824874257,wait_cost,1.0,5.0,185.59057660005053,None,iz8,1,2022-04-21_11h28.55.000,threat_forest,2021.2.3,59.73929775023638,False,53.0,0.5,0.4916666666666666,-0.8703703703703706,-0.8840740740740742,1,0,0,-0.8443175726168042,-0.1726108824874257,0.0,0.4444444444444445,0.6666666666666666,0.6666666666666667,-0.3333333333333335,-0.5555555555555556,5.444444444444445,5.444444444444445,0.0,2.0,1.0,6.0,0,0,1,0.514289653994463,0.24979580578871854,-0.09645928568878089,0.38881733836466936,0.23763841575168362,-0.10276793024950867,0.15662606012635316,0.13209433741564916,-0.1637944132095167,0.49563438999965737,0.24998094144932484,-0.15647037289845178,0.4983923148051382,0.24999741534831424,-0.13746051660967495,0.504908499588737,0.2499759066317874,-0.1479803775179459,0.501381157236356,0.24999809240468843,-0.1409469540382986,0.3518005868753321,0.22803693394950406,-0.0849147043302646,0.06578276310113566,0.061455391179915525,-0.21189091928175077,0.030496010564020237,0.029566003903699407,-0.2892232156337406
2.0,0.0,2.0,0.0,5.0,0.0,5.0,0.0,,,,right,0.546146199805662,194.07550520007496,iz8,194.07550520007496,None,189.55757929990068,191.55717419995926,False,5.0,['p'],True,0.2592592592592592,0.3333333333333333,0.2222222222222222,2.0,2.0,0.9327883776363324,-0.1337448559670782,wait_cost,0.0,4.0,191.5571741999593,None,iz8,1,2022-04-21_11h28.55.000,threat_forest,2021.2.3,59.73929775023638,False,53.0,0.5,0.4916666666666666,-0.8703703703703706,-0.8840740740740742,0,0,0,-0.604868573868103,-0.1337448559670782,0.0,0.2592592592592592,0.3333333333333333,0.7777777777777778,-1.3333333333333337,-1.1851851851851856,3.8148148148148144,3.8148148148148144,1.0,2.0,-1.0,5.0,0,0,0,0.3283566005763313,0.22053854343428692,-0.09955347707365625,0.4151118078986737,0.24279399484176833,-0.0977531785897823,0.4923558354807407,0.2499415667488025,-0.0819963039194771,0.3845575996163754,0.23667305219366694,-0.06551076838699843,0.3752026576825901,0.2344256233505112,-0.08377319669242744,0.342996194386233,0.22534980502279447,-0.04868938102796205,0.3454023792184206,0.226099575648675,-0.07351188627344973,0.3518005868753321,0.22803693394950406,-0.0849147043302646,0.06578276310113566,0.061455391179915525,-0.21189091928175077,0.05391951604266816,0.05101220183239263,-0.261786502309507
2.0,0.0,2.0,0.0,6.0,0.0,6.0,0.0,,,,left,0.4508133002091199,199.79145579994656,iz8,194.6408816999756,196.64057889999822,199.79145579994656,None,False,4.0,['p'],False,0.4444444444444445,0.6666666666666666,0.3333333333333333,1.0,2.0,0.9656336071428248,-0.2160493827160494,wait_cost,1.0,3.0,196.64057889999825,None,iz8,1,2022-04-21_11h28.55.000,threat_forest,2021.2.3,59.73929775023638,False,53.0,0.5,0.4916666666666666,-0.8703703703703706,-0.8840740740740742,1,0,0,-0.7967019936822612,-0.2160493827160494,0.0,0.4444444444444445,0.6666666666666666,0.6666666666666667,-0.3333333333333335,-0.5555555555555556,3.4444444444444446,3.4444444444444446,0.0,2.0,-1.0,4.0,0,0,1,0.514289653994463,0.24979580578871854,-0.09645928568878089,0.38881733836466936,0.23763841575168362,-0.10276793024950867,0.4923558354807407,0.2499415667488025,-0.0819963039194771,0.49563438999965737,0.24998094144932484,-0.15647037289845178,0.4983923148051382,0.24999741534831424,-0.13746051660967495,0.504908499588737,0.2499759066317874,-0.1479803775179459,0.501381157236356,0.24999809240468843,-0.1409469540382986,0.3518005868753321,0.22803693394950406,-0.0849147043302646,0.06578276310113566,0.061455391179915525,-0.21189091928175077,0.01593041826680036,0.01567664004064516,-0.3069922624285917
2.0,0.0,2.0,0.0,7.0,0.0,7.0,0.0,,,,left,0.6507894000969827,203.10797129990533,iz8,194.6408816999756,196.64057889999822,203.10797129990533,None,False,3.0,['p'],False,0.4444444444444445,0.6666666666666666,0.3333333333333333,1.0,2.0,0.9656336071428248,-0.3333333333333333,wait_cost,1.0,2.0,202.27400079998188,None,iz8,1,2022-04-21_11h28.55.000,threat_forest,2021.2.3,59.73929775023638,False,53.0,0.5,0.4916666666666666,-0.8703703703703706,-0.8840740740740742,1,0,0,-0.4295691912668504,-0.3333333333333333,0.0,0.4444444444444445,0.6666666666666666,0.6666666666666667,-0.3333333333333335,-0.5555555555555556,2.4444444444444446,2.4444444444444446,0.0,2.0,-1.0,3.0,0,0,1,0.514289653994463,0.24979580578871854,-0.09645928568878089,0.38881733836466936,0.23763841575168362,-0.10276793024950867,0.4923558354807407,0.2499415667488025,-0.0819963039194771,0.49563438999965737,0.24998094144932484,-0.15647037289845178,0.4983923148051382,0.24999741534831424,-0.13746051660967495,0.504908499588737,0.2499759066317874,-0.1479803775179459,0.501381157236356,0.24999809240468843,-0.1409469540382986,0.3518005868753321,0.22803693394950406,-0.0849147043302646,0.06578276310113566,0.061455391179915525,-0.21189091928175077,0.002685992117923825,0.002678777564266277,-0.3236207868774449
3.0,0.0,3.0,0.0,0.0,0.0,0.0,0.0,207.8841814999469,211.390826900024,None,left,1.4330546997953206,212.4415249999147,iz8,212.4415249999147,None,207.8841814999469,211.39082690002397,True,4.0,['p'],True,0.32,0.4,0.2,1.0,2.0,0.9455672104350704,0.0381787567431899,unsucc_cost,0.0,2.0,,,iz8,1,2022-04-21_11h28.55.000,threat_forest,2021.2.3,59.73929775023638,True,12.0,0.3111111111111111,0.4055555555555555,-1.1204938271604938,-0.995432098765432,1,0,1,0.3598083196425176,0.0381787567431899,0.32,0.32,0.4,0.8,-1.0,-0.92,3.08,3.08,1.0,2.0,-1.0,4.0,0,0,1,0.3283566005763313,0.22053854343428692,-0.09955347707365625,0.4204344660567231,0.24366932580832126,-0.09690175776185372,0.4923558354807407,0.2499415667488025,-0.0819963039194771,0.40620147476354085,0.24120183666346534,-0.09646507198667242,0.41529517440431696,0.2428250925208049,-0.11273229070962454,0.504908499588737,0.2499759066317874,-0.1479803775179459,0.39465067306617857,0.23890151931459078,-0.10963546446227523,0.3518005868753321,0.22803693394950406,-0.0849147043302646,0.3489321409076577,0.22717850194925623,-0.036606393804856224,0.4413423253707142,0.2465592772070849,-0.011617728045348219
3.0,0.0,3.0,0.0,1.0,0.0,1.0,0.0,,,,right,0.6536755000706762,218.39360180008225,iz8,213.89106049994007,215.89101250004023,218.39360180008225,None,True,2.0,['p'],False,0.1975308641975308,0.2222222222222222,0.1111111111111111,1.0,2.0,0.7461067557824965,-0.0130550838348044,succ_gain,1.0,4.0,215.89101250004023,None,iz8,1,2022-04-21_11h28.55.000,threat_forest,2021.2.3,59.73929775023638,True,12.0,0.3111111111111111,0.4055555555555555,-1.1204938271604938,-0.995432098765432,0,0,1,-0.4251442279235724,-0.0130550838348044,0.1975308641975308,0.1975308641975308,0.2222222222222222,0.8888888888888888,-1.4444444444444444,-1.3209876543209875,0.6790123456790123,0.6790123456790123,0.0,2.0,-1.0,2.0,0,0,0,0.514289653994463,0.24979580578871854,-0.09645928568878089,0.44189880181140345,0.24662425076904945,-0.09402754817409331,0.4923558354807407,0.2499415667488025,-0.0819963039194771,0.34951401863851184,0.2273539694136699,-0.0018147105228529803,0.3621813704731659,0.23100602535534523,-0.07198334928239558,0.342996194386233,0.22534980502279447,-0.04868938102796205,0.2985408734864585,0.20941422034440088,-0.026430384224115033,0.3518005868753321,0.22803693394950406,-0.0849147043302646,0.19773637697207286,0.15863670219403114,-0.10910272089920403,0.2651827152726587,0.19486084279327873,-0.07775696302953827
3.0,0.0,3.0,0.0,2.0,0.0,2.0,0.0,,,,right,0.8712067001033574,224.24161410005763,iz8,213.89106049994007,215.89101250004023,224.24161410005763,None,True,4.0,['p'],False,0.1975308641975308,0.2222222222222222,0.1111111111111111,1.0,2.0,0.7461067557824965,-0.0323179562505064,succ_gain,1.0,6.0,221.0742842000909,None,iz8,1,2022-04-21_11h28.55.000,threat_forest,2021.2.3,59.73929775023638,True,12.0,0.3111111111111111,0.4055555555555555,-1.1204938271604938,-0.995432098765432,0,0,1,-0.1378760167325398,-0.0323179562505064,0.1975308641975308,0.1975308641975308,0.2222222222222222,0.8888888888888888,-1.4444444444444444,-1.3209876543209875,2.6790123456790123,2.6790123456790123,0.0,2.0,1.0,4.0,0,0,0,0.514289653994463,0.24979580578871854,-0.09645928568878089,0.44189880181140345,0.24662425076904945,-0.09402754817409331,0.15662606012635316,0.13209433741564916,-0.1637944132095167,0.34951401863851184,0.2273539694136699,-0.0018147105228529803,0.3621813704731659,0.23100602535534523,-0.07198334928239558,0.342996194386233,0.22534980502279447,-0.04868938102796205,0.2985408734864585,0.20941422034440088,-0.026430384224115033,0.3518005868753321,0.22803693394950406,-0.0849147043302646,0.19773637697207286,0.15863670219403114,-0.10910272089920403,0.21185538124757747,0.1669726786840211,-0.11343506160668332
3.0,0.0,3.0,0.0,3.0,0.0,3.0,0.0,,,,right,1.1323024001903832,229.8914683000185,iz8,229.8914683000185,None,225.1412623000797,227.14107319992036,False,6.0,['p'],True,0.32,0.4,0.2,1.0,2.0,0.9455672104350704,-0.3730546733729614,wait_cost,0.0,5.0,227.1410731999204,None,iz8,1,2022-04-21_11h28.55.000,threat_forest,2021.2.3,59.73929775023638,False,12.0,0.3111111111111111,0.4055555555555555,-1.1204938271604938,-0.995432098765432,1,0,0,0.1242530820833653,-0.3730546733729614,0.0,0.32,0.4,0.8,-1.0,-0.92,5.08,5.08,1.0,2.0,1.0,6.0,0,0,1,0.3283566005763313,0.22053854343428692,-0.09955347707365625,0.4204344660567231,0.24366932580832126,-0.09690175776185372,0.15662606012635316,0.13209433741564916,-0.1637944132095167,0.40620147476354085,0.24120183666346534,-0.09646507198667242,0.41529517440431696,0.2428250925208049,-0.11273229070962454,0.504908499588737,0.2499759066317874,-0.1479803775179459,0.39465067306617857,0.23890151931459078,-0.10963546446227523,0.3518005868753321,0.22803693394950406,-0.0849147043302646,0.06578276310113566,0.061455391179915525,-0.21189091928175077,0.0014649782342032885,0.0014628320729765999,-0.3251763795271692
3.0,0.0,3.0,0.0,4.0,0.0,4.0,0.0,,,,left,0.9336978001520038,236.61050139996223,iz8,231.041357900016,233.04108390002511,236.61050139996223,None,False,5.0,['p'],False,0.1975308641975308,0.2222222222222222,0.1111111111111111,1.0,2.0,0.7461067557824965,-0.4866382262565363,wait_cost,1.0,4.0,233.04108390002511,None,iz8,1,2022-04-21_11h28.55.000,threat_forest,2021.2.3,59.73929775023638,False,12.0,0.3111111111111111,0.4055555555555555,-1.1204938271604938,-0.995432098765432,0,0,0,-0.0686024475494355,-0.4866382262565363,0.0,0.1975308641975308,0.2222222222222222,0.8888888888888888,-1.4444444444444444,-1.3209876543209875,3.679012345679012,3.679012345679012,0.0,2.0,-1.0,5.0,0,0,0,0.514289653994463,0.24979580578871854,-0.09645928568878089,0.44189880181140345,0.24662425076904945,-0.09402754817409331,0.4923558354807407,0.2499415667488025,-0.0819963039194771,0.34951401863851184,0.2273539694136699,-0.0018147105228529803,0.3621813704731659,0.23100602535534523,-0.07198334928239558,0.342996194386233,0.22534980502279447,-0.04868938102796205,0.2985408734864585,0.20941422034440088,-0.026430384224115033,0.3518005868753321,0.22803693394950406,-0.0849147043302646,0.06578276310113566,0.061455391179915525,-0.21189091928175077,0.0002582277676232057,0.0002581610860432341,-0.3267175483920845
3.0,0.0,3.0,0.0,5.0,0.0,5.0,0.0,,,,left,1.522728299954906,242.4751394998748,iz8,231.041357900016,233.04108390002511,242.4751394998748,None,False,4.0,['p'],False,0.1975308641975308,0.2222222222222222,0.1111111111111111,1.0,2.0,0.7461067557824965,-0.5736503581771071,wait_cost,1.0,3.0,239.5745665999129,None,iz8,1,2022-04-21_11h28.55.000,threat_forest,2021.2.3,59.73929775023638,False,12.0,0.3111111111111111,0.4055555555555555,-1.1204938271604938,-0.995432098765432,0,0,0,0.4205036600697291,-0.5736503581771071,0.0,0.1975308641975308,0.2222222222222222,0.8888888888888888,-1.4444444444444444,-1.3209876543209875,2.6790123456790123,2.6790123456790123,0.0,2.0,-1.0,4.0,0,0,0,0.514289653994463,0.24979580578871854,-0.09645928568878089,0.44189880181140345,0.24662425076904945,-0.09402754817409331,0.4923558354807407,0.2499415667488025,-0.0819963039194771,0.34951401863851184,0.2273539694136699,-0.0018147105228529803,0.3621813704731659,0.23100602535534523,-0.07198334928239558,0.342996194386233,0.22534980502279447,-0.04868938102796205,0.2985408734864585,0.20941422034440088,-0.026430384224115033,0.3518005868753321,0.22803693394950406,-0.0849147043302646,0.06578276310113566,0.061455391179915525,-0.21189091928175077,6.826590893915682e-05,6.826124870483356e-05,-0.32696049249876
3.0,0.0,3.0,0.0,6.0,0.0,6.0,0.0,,,,right,0.7106654001399875,248.37519069993868,iz8,248.37519069993868,None,244.02485909988167,246.02457350003533,False,3.0,['p'],True,0.32,0.4,0.2,1.0,2.0,0.9455672104350704,-0.5557925925925925,wait_cost,0.0,2.0,246.02457350003533,None,iz8,1,2022-04-21_11h28.55.000,threat_forest,2021.2.3,59.73929775023638,False,12.0,0.3111111111111111,0.4055555555555555,-1.1204938271604938,-0.995432098765432,1,0,0,-0.3415535645330966,-0.5557925925925925,0.0,0.32,0.4,0.8,-1.0,-0.92,2.08,2.08,1.0,2.0,-1.0,3.0,0,0,1,0.3283566005763313,0.22053854343428692,-0.09955347707365625,0.4204344660567231,0.24366932580832126,-0.09690175776185372,0.4923558354807407,0.2499415667488025,-0.0819963039194771,0.40620147476354085,0.24120183666346534,-0.09646507198667242,0.41529517440431696,0.2428250925208049,-0.11273229070962454,0.504908499588737,0.2499759066317874,-0.1479803775179459,0.39465067306617857,0.23890151931459078,-0.10963546446227523,0.3518005868753321,0.22803693394950406,-0.0849147043302646,0.06578276310113566,0.061455391179915525,-0.21189091928175077,8.970052157953408e-05,8.969247539596247e-05,-0.32693307493855345
3.0,0.0,3.0,0.0,7.0,0.0,7.0,0.0,,,,right,0.62640820001252,254.87515669991265,iz8,254.87515669991265,None,244.02485909988167,246.02457350003533,False,2.0,['p'],True,0.32,0.4,0.2,1.0,2.0,0.9455672104350704,-0.6799999999999999,wait_cost,0.0,1.0,251.1081141999457,None,iz8,1,2022-04-21_11h28.55.000,threat_forest,2021.2.3,59.73929775023638,False,12.0,0.3111111111111111,0.4055555555555555,-1.1204938271604938,-0.995432098765432,1,0,0,-0.4677530436943552,-0.6799999999999999,0.0,0.32,0.4,0.8,-1.0,-0.92,1.08,1.08,1.0,2.0,-1.0,2.0,0,0,1,0.3283566005763313,0.22053854343428692,-0.09955347707365625,0.4204344660567231,0.24366932580832126,-0.09690175776185372,0.4923558354807407,0.2499415667488025,-0.0819963039194771,0.40620147476354085,0.24120183666346534,-0.09646507198667242,0.41529517440431696,0.2428250925208049,-0.11273229070962454,0.504908499588737,0.2499759066317874,-0.1479803775179459,0.39465067306617857,0.23890151931459078,-0.10963546446227523,0.3518005868753321,0.22803693394950406,-0.0849147043302646,0.06578276310113566,0.061455391179915525,-0.21189091928175077,1.3425119412076812e-05,1.3424939178245591e-05,-0.3270306461040397
4.0,0.0,4.0,0.0,0.0,0.0,0.0,0.0,258.7325641999487,262.24158759997226,None,right,1.0336812001187354,263.2604151000269,iz8,258.7325641999487,262.24158759997226,263.2604151000269,None,True,5.0,['p'],False,0.1975308641975308,0.2222222222222222,0.1111111111111111,1.0,1.0,0.7461067557824965,-0.0071988747894753,unsucc_cost,1.0,3.0,,,iz8,1,2022-04-21_11h28.55.000,threat_forest,2021.2.3,59.73929775023638,True,48.0,0.3111111111111111,0.3111111111111111,-1.3792592592592592,-1.2498765432098766,0,0,1,0.0331264114468795,-0.0071988747894753,0.1975308641975308,0.1975308641975308,0.2222222222222222,0.8888888888888888,-1.6666666666666667,-1.5185185185185184,3.481481481481482,3.481481481481482,0.0,1.0,-1.0,5.0,0,0,0,0.514289653994463,0.24979580578871854,-0.09645928568878089,0.44189880181140345,0.24662425076904945,-0.09402754817409331,0.4923558354807407,0.2499415667488025,-0.0819963039194771,0.34951401863851184,0.2273539694136699,-0.0018147105228529803,0.3367514978277793,0.22334992653852648,-0.04558719484142948,0.342996194386233,0.22534980502279447,-0.04868938102796205,0.2985408734864585,0.20941422034440088,-0.026430384224115033,0.3518005868753321,0.22803693394950406,-0.0849147043302646,0.19773637697207286,0.15863670219403114,-0.10910272089920403,0.2829962356279175,0.20290936624834569,-0.06746026468448585
4.0,0.0,4.0,0.0,1.0,0.0,1.0,0.0,,,,right,0.6337171997874975,268.50859940005466,iz8,258.7325641999487,262.24158759997226,268.50859940005466,None,True,3.0,['p'],False,0.1975308641975308,0.2222222222222222,0.1111111111111111,1.0,1.0,0.7461067557824965,0.0102042008928614,unsucc_cost,1.0,1.0,266.32497849990614,None,iz8,1,2022-04-21_11h28.55.000,threat_forest,2021.2.3,59.73929775023638,True,48.0,0.3111111111111111,0.3111111111111111,-1.3792592592592592,-1.2498765432098766,0,0,1,-0.4561524811754924,0.0102042008928614,0.1975308641975308,0.1975308641975308,0.2222222222222222,0.8888888888888888,-1.6666666666666667,-1.5185185185185184,1.4814814814814816,1.4814814814814816,0.0,1.0,-1.0,3.0,0,0,0,0.514289653994463,0.24979580578871854,-0.09645928568878089,0.44189880181140345,0.24662425076904945,-0.09402754817409331,0.4923558354807407,0.2499415667488025,-0.0819963039194771,0.34951401863851184,0.2273539694136699,-0.0018147105228529803,0.3367514978277793,0.22334992653852648,-0.04558719484142948,0.342996194386233,0.22534980502279447,-0.04868938102796205,0.2985408734864585,0.20941422034440088,-0.026430384224115033,0.3518005868753321,0.22803693394950406,-0.0849147043302646,0.19773637697207286,0.15863670219403114,-0.10910272089920403,0.3399508474823984,0.22438426877839748,-0.03998682877095322
4.0,0.0,4.0,0.0,2.0,0.0,2.0,0.0,,,,right,0.8041088001336902,274.3586538999807,iz8,258.7325641999487,262.24158759997226,274.3586538999807,None,True,1.0,['p'],False,0.1975308641975308,0.2222222222222222,0.1111111111111111,1.0,1.0,0.7461067557824965,0.0175935243885211,succ_gain,1.0,2.0,271.1583682000637,None,iz8,1,2022-04-21_11h28.55.000,threat_forest,2021.2.3,59.73929775023638,True,48.0,0.3111111111111111,0.3111111111111111,-1.3792592592592592,-1.2498765432098766,0,0,1,-0.2180206954092102,0.0175935243885211,1.0,0.1975308641975308,0.2222222222222222,0.8888888888888888,-1.6666666666666667,-1.5185185185185184,-0.5185185185185184,0.0,0.0,1.0,-1.0,1.0,1,0,0,0.514289653994463,0.24979580578871854,-0.09645928568878089,0.44189880181140345,0.24662425076904945,-0.09402754817409331,0.4923558354807407,0.2499415667488025,-0.0819963039194771,0.34951401863851184,0.2273539694136699,-0.0018147105228529803,0.3367514978277793,0.22334992653852648,-0.04558719484142948,0.342996194386233,0.22534980502279447,-0.04868938102796205,0.2985408734864585,0.20941422034440088,-0.026430384224115033,0.9400028337021953,0.056397506334038186,-0.19224981246446876,0.9756172615816743,0.023788220485549214,-0.2517313018968752,0.36574539403614065,0.23197570077748889,-0.03027490014975842
4.0,0.0,4.0,0.0,3.0,0.0,3.0,0.0,,,,right,1.2993634000886232,280.3426940999925,iz8,280.3426940999925,None,275.1920541001018,277.1917594000697,False,2.0,['p'],True,0.32,0.4,0.2,1.0,1.0,0.9455672104350704,0.0283699473129097,wait_cost,0.0,1.0,277.1917594000697,None,iz8,1,2022-04-21_11h28.55.000,threat_forest,2021.2.3,59.73929775023638,False,48.0,0.3111111111111111,0.3111111111111111,-1.3792592592592592,-1.2498765432098766,1,1,0,0.2618744522895688,0.0283699473129097,0.32,0.32,0.4,0.8,-1.4,-1.24,0.76,0.76,1.0,1.0,1.0,2.0,0,1,1,0.3283566005763313,0.22053854343428692,-0.09955347707365625,0.4204344660567231,0.24366932580832126,-0.09690175776185372,0.15662606012635316,0.13209433741564916,-0.1637944132095167,0.40620147476354085,0.24120183666346534,-0.09646507198667242,0.3673668598528557,0.23240845013470798,-0.07681852996038985,0.504908499588737,0.2499759066317874,-0.1479803775179459,0.39465067306617857,0.23890151931459078,-0.10963546446227523,0.3518005868753321,0.22803693394950406,-0.0849147043302646,0.3489321409076577,0.22717850194925623,-0.036606393804856224,0.40474901202275343,0.24092724928935844,-0.01882293690924669
4.0,0.0,4.0,0.0,4.0,0.0,4.0,0.0,,,,right,0.6871931001078337,285.07983920001425,iz8,281.6593631999567,283.65865210001357,285.07983920001425,None,True,1.0,['p'],False,0.1975308641975308,0.2222222222222222,0.1111111111111111,1.0,1.0,0.7461067557824965,0.0571620179850632,unsucc_cost,1.0,0.0,283.6586521000136,None,iz8,1,2022-04-21_11h28.55.000,threat_forest,2021.2.3,59.73929775023638,True,48.0,0.3111111111111111,0.3111111111111111,-1.3792592592592592,-1.2498765432098766,0,0,1,-0.3751399489506333,0.0571620179850632,1.0,0.1975308641975308,0.2222222222222222,0.8888888888888888,-1.6666666666666667,-1.5185185185185184,-0.5185185185185184,0.0,0.0,1.0,-1.0,1.0,1,0,0,0.514289653994463,0.24979580578871854,-0.09645928568878089,0.44189880181140345,0.24662425076904945,-0.09402754817409331,0.4923558354807407,0.2499415667488025,-0.0819963039194771,0.34951401863851184,0.2273539694136699,-0.0018147105228529803,0.3367514978277793,0.22334992653852648,-0.04558719484142948,0.342996194386233,0.22534980502279447,-0.04868938102796205,0.2985408734864585,0.20941422034440088,-0.026430384224115033,0.9400028337021953,0.056397506334038186,-0.19224981246446876,0.9756172615816743,0.023788220485549214,-0.2517313018968752,0.5136423466309387,0.24981388637840132,-0.007454016644719952
5.0,0.0,5.0,0.0,0.0,0.0,0.0,0.0,291.2997121999506,294.80864199995995,None,right,0.8766691000200808,295.4799929999281,iz8,291.2997121999506,294.80864199995995,295.4799929999281,None,True,5.0,['p'],False,0.27,0.3,0.1,1.0,2.0,0.7963326591781347,-0.0191201048580569,succ_gain,1.0,6.0,,,iz8,1,2022-04-21_11h28.55.000,threat_forest,2021.2.3,59.73929775023638,True,1.0,0.4833333333333333,0.3972222222222222,-0.7877777777777778,-1.0835185185185183,1,0,1,-0.1316256667939836,-0.0191201048580569,0.27,0.27,0.3,0.9,-1.1,-1.02,3.98,3.98,0.0,2.0,-1.0,5.0,0,0,1,0.514289653994463,0.24979580578871854,-0.09645928568878089,0.44459889110959067,0.246930717133713,-0.09372945310388042,0.4923558354807407,0.2499415667488025,-0.0819963039194771,0.3738989356996891,0.23409852158232883,-0.04791381655555904,0.4031226848762571,0.24061478581441503,-0.10511175202801792,0.504908499588737,0.2499759066317874,-0.1479803775179459,0.3539067860710922,0.22865677284392238,-0.08072759626541803,0.3518005868753321,0.22803693394950406,-0.0849147043302646,0.2807259093933679,0.2019188731886345,-0.06332337986958572,0.24750727992027202,0.18624742630674018,-0.08877634463130943
5.0,0.0,5.0,0.0,1.0,0.0,1.0,0.0,,,,right,1.3249135999940336,301.6594479000196,iz8,301.6594479000196,None,296.3757038998883,298.3754886998795,False,6.0,['p'],True,0.4444444444444445,0.6666666666666666,0.3333333333333333,1.0,2.0,0.9656336071428248,-0.0704457173777337,wait_cost,0.0,5.0,298.3754886998795,None,iz8,1,2022-04-21_11h28.55.000,threat_forest,2021.2.3,59.73929775023638,False,1.0,0.4833333333333333,0.3972222222222222,-0.7877777777777778,-1.0835185185185183,1,1,0,0.2813472497604079,-0.0704457173777337,0.4444444444444445,0.4444444444444445,0.6666666666666666,0.6666666666666667,-0.3333333333333335,-0.5555555555555556,5.444444444444445,5.444444444444445,1.0,2.0,1.0,6.0,0,1,1,0.3283566005763313,0.22053854343428692,-0.09955347707365625,0.38881733836466936,0.23763841575168362,-0.10276793024950867,0.15662606012635316,0.13209433741564916,-0.1637944132095167,0.49563438999965737,0.24998094144932484,-0.15647037289845178,0.4983923148051382,0.24999741534831424,-0.13746051660967495,0.504908499588737,0.2499759066317874,-0.1479803775179459,0.501381157236356,0.24999809240468843,-0.1409469540382986,0.3518005868753321,0.22803693394950406,-0.0849147043302646,0.54129527243998,0.2482947004741078,-0.014271893679184744,0.13046637671436215,0.11344490126138831,-0.1819146256259661
5.0,0.0,5.0,0.0,2.0,0.0,2.0,0.0,,,,right,0.6398167000152171,308.55917369993404,iz8,308.55917369993404,None,296.3757038998883,298.3754886998795,False,5.0,['p'],True,0.4444444444444445,0.6666666666666666,0.3333333333333333,1.0,2.0,0.9656336071428248,0.0505826202705592,wait_cost,0.0,4.0,305.0089779000264,None,iz8,1,2022-04-21_11h28.55.000,threat_forest,2021.2.3,59.73929775023638,False,1.0,0.4833333333333333,0.3972222222222222,-0.7877777777777778,-1.0835185185185183,1,1,0,-0.4465735498767389,0.0505826202705592,0.4444444444444445,0.4444444444444445,0.6666666666666666,0.6666666666666667,-0.3333333333333335,-0.5555555555555556,4.444444444444445,4.444444444444445,1.0,2.0,-1.0,5.0,0,1,1,0.3283566005763313,0.22053854343428692,-0.09955347707365625,0.38881733836466936,0.23763841575168362,-0.10276793024950867,0.4923558354807407,0.2499415667488025,-0.0819963039194771,0.49563438999965737,0.24998094144932484,-0.15647037289845178,0.4983923148051382,0.24999741534831424,-0.13746051660967495,0.504908499588737,0.2499759066317874,-0.1479803775179459,0.501381157236356,0.24999809240468843,-0.1409469540382986,0.3518005868753321,0.22803693394950406,-0.0849147043302646,0.54129527243998,0.2482947004741078,-0.014271893679184744,0.4884941230554429,0.24986761479573671,-0.007385280396518867
5.0,0.0,5.0,0.0,3.0,0.0,3.0,0.0,,,,right,0.7522021001204848,314.04288890003227,iz8,314.04288890003227,None,296.3757038998883,298.3754886998795,False,4.0,['p'],True,0.4444444444444445,0.6666666666666666,0.3333333333333333,1.0,2.0,0.9656336071428248,0.084740865512117,wait_cost,0.0,3.0,311.22561209998094,None,iz8,1,2022-04-21_11h28.55.000,threat_forest,2021.2.3,59.73929775023638,False,1.0,0.4833333333333333,0.3972222222222222,-0.7877777777777778,-1.0835185185185183,1,1,0,-0.2847502409789333,0.084740865512117,0.4444444444444445,0.4444444444444445,0.6666666666666666,0.6666666666666667,-0.3333333333333335,-0.5555555555555556,3.4444444444444446,3.4444444444444446,1.0,2.0,-1.0,4.0,0,1,1,0.3283566005763313,0.22053854343428692,-0.09955347707365625,0.38881733836466936,0.23763841575168362,-0.10276793024950867,0.4923558354807407,0.2499415667488025,-0.0819963039194771,0.49563438999965737,0.24998094144932484,-0.15647037289845178,0.4983923148051382,0.24999741534831424,-0.13746051660967495,0.504908499588737,0.2499759066317874,-0.1479803775179459,0.501381157236356,0.24999809240468843,-0.1409469540382986,0.3518005868753321,0.22803693394950406,-0.0849147043302646,0.54129527243998,0.2482947004741078,-0.014271893679184744,0.6168806021627501,0.23633892483807292,-0.02469290710289407
5.0,0.0,5.0,0.0,4.0,0.0,4.0,0.0,,,,left,0.8016413999721408,317.55964690004475,iz8,317.55964690004475,None,296.3757038998883,298.3754886998795,True,3.0,['p'],True,0.4444444444444445,0.6666666666666666,0.3333333333333333,1.0,2.0,0.9656336071428248,0.1229938271604937,figh_cost,0.0,0.0,316.82572060008533,None,iz8,1,2022-04-21_11h28.55.000,threat_forest,2021.2.3,59.73929775023638,True,1.0,0.4833333333333333,0.3972222222222222,-0.7877777777777778,-1.0835185185185183,1,1,1,-0.2210939033133478,0.1229938271604937,0.4444444444444445,0.4444444444444445,0.6666666666666666,0.6666666666666667,-0.3333333333333335,-0.5555555555555556,2.4444444444444446,2.4444444444444446,1.0,2.0,-1.0,3.0,0,1,1,0.3283566005763313,0.22053854343428692,-0.09955347707365625,0.38881733836466936,0.23763841575168362,-0.10276793024950867,0.4923558354807407,0.2499415667488025,-0.0819963039194771,0.49563438999965737,0.24998094144932484,-0.15647037289845178,0.4983923148051382,0.24999741534831424,-0.13746051660967495,0.504908499588737,0.2499759066317874,-0.1479803775179459,0.501381157236356,0.24999809240468843,-0.1409469540382986,0.3518005868753321,0.22803693394950406,-0.0849147043302646,0.54129527243998,0.2482947004741078,-0.014271893679184744,0.7429402654913244,0.19098002740300485,-0.08272179734102061
6.0,0.0,6.0,0.0,0.0,0.0,0.0,0.0,323.0138783999719,326.5258690000046,None,right,1.988389400066808,327.0762686000671,iz8,327.0762686000671,None,323.0138783999719,326.5258690000046,False,5.0,['r'],True,0.36,0.6,0.4,2.0,1.0,0.9801625908629508,-0.019480620685,wait_cost,0.0,4.0,,,iz8,1,2022-04-21_11h28.55.000,threat_forest,2021.2.3,59.73929775023638,False,24.0,0.55,0.5166666666666666,-0.91,-0.848888888888889,0,0,0,0.687324964338438,-0.019480620685,0.36,0.36,0.6,0.6,-1.4000000000000004,-1.3200000000000005,3.68,3.68,1.0,1.0,-1.0,5.0,0,0,0,0.3283566005763313,0.22053854343428692,-0.09955347707365625,0.3733354034017298,0.23395607996859755,-0.10634968103971859,0.4923558354807407,0.2499415667488025,-0.0819963039194771,0.4730212622388242,0.24927214770881376,-0.15162575801787104,0.3673668598528557,0.23240845013470804,-0.07681852996039007,0.342996194386233,0.22534980502279447,-0.04868938102796205,0.42836617013242334,0.24486859441850306,-0.12647291584465103,0.3518005868753321,0.22803693394950406,-0.0849147043302646,0.4085326688795627,0.24163372733770427,-0.021317172457796962,0.24648190163659692,0.18572857380220387,-0.08944012697034481
6.0,0.0,6.0,0.0,1.0,0.0,1.0,0.0,,,,right,0.8892055000178516,333.34342799987644,iz8,329.09482620004565,331.1092926999554,333.34342799987644,None,True,4.0,['r'],False,0.5,0.5,0.0,0.0,1.0,0.6309297535714574,0.102124415,succ_gain,1.0,5.0,331.1092926999554,None,iz8,1,2022-04-21_11h28.55.000,threat_forest,2021.2.3,59.73929775023638,True,24.0,0.55,0.5166666666666666,-0.91,-0.848888888888889,1,0,1,-0.117426911556016,0.102124415,0.5,0.5,0.5,1.0,-0.5,-0.5,3.5,3.5,0.0,1.0,-1.0,4.0,0,0,1,0.514289653994463,0.24979580578871854,-0.09645928568878089,0.46902820340555484,0.24904074781571228,-0.09167705905080897,0.4923558354807407,0.2499415667488025,-0.0819963039194771,0.4393364849241291,0.24631993793863954,-0.1314473639862459,0.4774272349780832,0.24949047027926535,-0.13571270735905439,0.504908499588737,0.2499759066317874,-0.1479803775179459,0.549580338786399,0.24754179000582588,-0.13401594152361707,0.3518005868753321,0.22803693394950406,-0.0849147043302646,0.6266617047526079,0.23395681254916317,-0.02943700776374228,0.6774689772895942,0.21850476209978553,-0.0475086440486705
6.0,0.0,6.0,0.0,2.0,0.0,2.0,0.0,,,,right,0.7725919999647886,337.8931225000415,iz8,337.8931225000415,None,334.25975230010226,336.2621917000506,False,5.0,['r'],True,0.36,0.6,0.4,2.0,1.0,0.9801625908629508,-0.0404334399999999,wait_cost,0.0,4.0,336.2621917000506,None,iz8,1,2022-04-21_11h28.55.000,threat_forest,2021.2.3,59.73929775023638,False,24.0,0.55,0.5166666666666666,-0.91,-0.848888888888889,0,0,0,-0.2580041834957892,-0.0404334399999999,0.36,0.36,0.6,0.6,-1.4000000000000004,-1.3200000000000005,3.68,3.68,1.0,1.0,1.0,5.0,0,0,0,0.3283566005763313,0.22053854343428692,-0.09955347707365625,0.3733354034017298,0.23395607996859755,-0.10634968103971859,0.15662606012635316,0.13209433741564916,-0.1637944132095167,0.4730212622388242,0.24927214770881376,-0.15162575801787104,0.3673668598528557,0.23240845013470804,-0.07681852996039007,0.342996194386233,0.22534980502279447,-0.04868938102796205,0.42836617013242334,0.24486859441850306,-0.12647291584465103,0.3518005868753321,0.22803693394950406,-0.0849147043302646,0.4085326688795627,0.24163372733770427,-0.021317172457796962,0.19187344156218952,0.1550580239852706,-0.12867780842892945
6.0,0.0,6.0,0.0,3.0,0.0,3.0,0.0,,,,right,0.6099056000821292,343.87641620007344,iz8,343.87641620007344,None,334.25975230010226,336.2621917000506,False,4.0,['r'],True,0.36,0.6,0.4,2.0,1.0,0.9801625908629508,-0.0316195,wait_cost,0.0,3.0,340.69281979999505,None,iz8,1,2022-04-21_11h28.55.000,threat_forest,2021.2.3,59.73929775023638,False,24.0,0.55,0.5166666666666666,-0.91,-0.848888888888889,0,0,0,-0.4944510877541329,-0.0316195,0.36,0.36,0.6,0.6,-1.4000000000000004,-1.3200000000000005,2.68,2.68,1.0,1.0,-1.0,4.0,0,0,0,0.3283566005763313,0.22053854343428692,-0.09955347707365625,0.3733354034017298,0.23395607996859755,-0.10634968103971859,0.4923558354807407,0.2499415667488025,-0.0819963039194771,0.4730212622388242,0.24927214770881376,-0.15162575801787104,0.3673668598528557,0.23240845013470804,-0.07681852996039007,0.342996194386233,0.22534980502279447,-0.04868938102796205,0.42836617013242334,0.24486859441850306,-0.12647291584465103,0.3518005868753321,0.22803693394950406,-0.0849147043302646,0.4085326688795627,0.24163372733770427,-0.021317172457796962,0.21364431349463198,0.16800042080603939,-0.11212024272518226
6.0,0.0,6.0,0.0,4.0,0.0,4.0,0.0,,,,right,0.642271899851039,350.27804809995,iz8,350.27804809995,None,334.25975230010226,336.2621917000506,False,3.0,['r'],True,0.36,0.6,0.4,2.0,1.0,0.9801625908629508,-0.0570119999999999,wait_cost,0.0,2.0,346.509491099976,None,iz8,1,2022-04-21_11h28.55.000,threat_forest,2021.2.3,59.73929775023638,False,24.0,0.55,0.5166666666666666,-0.91,-0.848888888888889,0,0,0,-0.4427435449342695,-0.0570119999999999,0.36,0.36,0.6,0.6,-1.4000000000000004,-1.3200000000000005,1.6799999999999995,1.6799999999999995,1.0,1.0,-1.0,3.0,0,0,0,0.3283566005763313,0.22053854343428692,-0.09955347707365625,0.3733354034017298,0.23395607996859755,-0.10634968103971859,0.4923558354807407,0.2499415667488025,-0.0819963039194771,0.4730212622388242,0.24927214770881376,-0.15162575801787104,0.3673668598528557,0.23240845013470804,-0.07681852996039007,0.342996194386233,0.22534980502279447,-0.04868938102796205,0.42836617013242334,0.24486859441850306,-0.12647291584465103,0.3518005868753321,0.22803693394950406,-0.0849147043302646,0.4085326688795627,0.24163372733770427,-0.021317172457796962,0.15559074904959871,0.13138226785978352,-0.1589668571316072
6.0,0.0,6.0,0.0,5.0,0.0,5.0,0.0,,,,right,0.5957337999716401,356.60997819993645,iz8,356.60997819993645,None,334.25975230010226,336.2621917000506,False,2.0,['r'],True,0.36,0.6,0.4,2.0,1.0,0.9801625908629508,-0.0699999999999999,wait_cost,0.0,1.0,352.943046499975,None,iz8,1,2022-04-21_11h28.55.000,threat_forest,2021.2.3,59.73929775023638,False,24.0,0.55,0.5166666666666666,-0.91,-0.848888888888889,0,0,0,-0.5179613560349681,-0.0699999999999999,0.36,0.36,0.6,0.6,-1.4000000000000004,-1.3200000000000005,0.6799999999999997,0.6799999999999997,1.0,1.0,-1.0,2.0,0,0,0,0.3283566005763313,0.22053854343428692,-0.09955347707365625,0.3733354034017298,0.23395607996859755,-0.10634968103971859,0.4923558354807407,0.2499415667488025,-0.0819963039194771,0.4730212622388242,0.24927214770881376,-0.15162575801787104,0.3673668598528557,0.23240845013470804,-0.07681852996039007,0.342996194386233,0.22534980502279447,-0.04868938102796205,0.42836617013242334,0.24486859441850306,-0.12647291584465103,0.3518005868753321,0.22803693394950406,-0.0849147043302646,0.4085326688795627,0.24163372733770427,-0.021317172457796962,0.13124157509680992,0.11401722406291834,-0.1811824372592117
6.0,0.0,6.0,0.0,6.0,0.0,6.0,0.0,,,,right,0.6626391999889165,360.0435919999145,iz8,357.2266935000662,359.2263235000428,360.0435919999145,None,True,1.0,['r'],False,0.5,0.5,0.0,0.0,1.0,0.6309297535714574,0.5,succ_gain,1.0,2.0,359.2263235000428,None,iz8,1,2022-04-21_11h28.55.000,threat_forest,2021.2.3,59.73929775023638,True,24.0,0.55,0.5166666666666666,-0.91,-0.848888888888889,1,0,1,-0.4115246300016273,0.5,1.0,0.5,0.5,1.0,-0.5,-0.5,0.5,0.5,0.0,1.0,-1.0,1.0,1,0,1,0.514289653994463,0.24979580578871854,-0.09645928568878089,0.46902820340555484,0.24904074781571228,-0.09167705905080897,0.4923558354807407,0.2499415667488025,-0.0819963039194771,0.4393364849241291,0.24631993793863954,-0.1314473639862459,0.4774272349780832,0.24949047027926535,-0.13571270735905439,0.504908499588737,0.2499759066317874,-0.1479803775179459,0.549580338786399,0.24754179000582588,-0.13401594152361707,0.9400028337021953,0.056397506334038186,-0.19224981246446876,0.9756172615816743,0.023788220485549214,-0.2517313018968752,0.9989166617694986,0.0010821646087796905,-0.32566337792762046
6.0,0.0,6.0,0.0,7.0,0.0,7.0,0.0,,,,right,0.6325083000119776,364.9768395998981,iz8,364.9768395998981,None,360.7267114999704,362.7263996999245,False,2.0,['r'],True,0.36,0.6,0.4,2.0,1.0,0.9801625908629508,-0.64,wait_cost,0.0,1.0,362.7263996999245,None,iz8,1,2022-04-21_11h28.55.000,threat_forest,2021.2.3,59.73929775023638,False,24.0,0.55,0.5166666666666666,-0.91,-0.848888888888889,0,0,0,-0.4580619359179805,-0.64,0.0,0.36,0.6,0.6,-1.4000000000000004,-1.3200000000000005,0.6799999999999997,0.6799999999999997,1.0,1.0,1.0,2.0,0,0,0,0.3283566005763313,0.22053854343428692,-0.09955347707365625,0.3733354034017298,0.23395607996859755,-0.10634968103971859,0.15662606012635316,0.13209433741564916,-0.1637944132095167,0.4730212622388242,0.24927214770881376,-0.15162575801787104,0.3673668598528557,0.23240845013470804,-0.07681852996039007,0.342996194386233,0.22534980502279447,-0.04868938102796205,0.42836617013242334,0.24486859441850306,-0.12647291584465103,0.3518005868753321,0.22803693394950406,-0.0849147043302646,0.06578276310113566,0.061455391179915525,-0.21189091928175077,2.47496392425402e-05,2.474902669789758e-05,-0.32701615888612034
7.0,0.0,7.0,0.0,0.0,0.0,0.0,0.0,369.66801310004666,373.1765739000402,None,right,1.192529199877754,375.8784362999722,iz8,375.8784362999722,None,369.66801310004666,373.17657390004024,False,4.0,['r'],True,0.46875,0.625,0.25,2.0,1.0,0.9634951148421658,0.0314926583817976,wait_cost,0.0,3.0,,,iz8,1,2022-04-21_11h28.55.000,threat_forest,2021.2.3,59.73929775023638,False,38.0,0.6125,0.58125,-0.5218750000000001,-0.7159375000000001,0,0,0,0.1760764297512287,0.0314926583817976,0.46875,0.46875,0.625,0.75,-0.875,-0.84375,3.15625,3.15625,1.0,1.0,-1.0,4.0,0,0,0,0.3283566005763313,0.22053854343428692,-0.09955347707365625,0.4084863759841723,0.24162525661948972,-0.09888999209560731,0.4923558354807407,0.2499415667488025,-0.0819963039194771,0.48149320954163516,0.2496574987069302,-0.15425963734414072,0.4306557207878039,0.24519137094054103,-0.12089057760117661,0.342996194386233,0.22534980502279447,-0.04868938102796205,0.5225245636939957,0.24949264403039514,-0.13952071718351455,0.3518005868753321,0.22803693394950406,-0.0849147043302646,0.5792553588383361,0.24371858809540656,-0.019112025409188382,0.4163045318333829,0.24299506860837078,-0.01617751854415045
7.0,0.0,7.0,0.0,1.0,0.0,1.0,0.0,,,,right,0.7471984000876546,380.3439146000892,iz8,377.0935649999883,379.09332760004327,380.3439146000892,None,True,3.0,['r'],False,0.6,0.6,0.0,0.0,1.0,0.6126016192893442,0.1452018321690559,unsucc_cost,1.0,1.0,379.09332760004327,None,iz8,1,2022-04-21_11h28.55.000,threat_forest,2021.2.3,59.73929775023638,True,38.0,0.6125,0.58125,-0.5218750000000001,-0.7159375000000001,1,1,1,-0.291424533280109,0.1452018321690559,0.6,0.6,0.6,1.0,-0.2,-0.2,2.8,2.8,0.0,1.0,-1.0,3.0,0,1,1,0.514289653994463,0.24979580578871854,-0.09645928568878089,0.46902820340555484,0.24904074781571228,-0.09167705905080897,0.4923558354807407,0.2499415667488025,-0.0819963039194771,0.4730212622388242,0.24927214770881376,-0.15162575801787104,0.5151719928298719,0.24976981063357034,-0.13667579721855716,0.504908499588737,0.2499759066317874,-0.1479803775179459,0.6334825471129129,0.23218240961624897,-0.0906759774592536,0.3518005868753321,0.22803693394950406,-0.0849147043302646,0.7599082371866415,0.1824477082425326,-0.08391793600732406,0.802329859113823,0.15859665628821587,-0.12415073839168589
7.0,0.0,7.0,0.0,2.0,0.0,2.0,0.0,,,,right,0.580264899879694,385.5940960000735,iz8,377.0935649999883,379.09332760004327,385.5940960000735,None,True,1.0,['r'],False,0.6,0.6,0.0,0.0,1.0,0.6126016192893442,0.206885390625,unsucc_cost,1.0,0.0,383.1100626999978,None,iz8,1,2022-04-21_11h28.55.000,threat_forest,2021.2.3,59.73929775023638,True,38.0,0.6125,0.58125,-0.5218750000000001,-0.7159375000000001,1,1,1,-0.5442705557777934,0.206885390625,1.0,0.6,0.6,1.0,-0.2,-0.2,0.7999999999999999,0.7999999999999999,0.0,1.0,-1.0,1.0,1,1,1,0.514289653994463,0.24979580578871854,-0.09645928568878089,0.46902820340555484,0.24904074781571228,-0.09167705905080897,0.4923558354807407,0.2499415667488025,-0.0819963039194771,0.4730212622388242,0.24927214770881376,-0.15162575801787104,0.5151719928298719,0.24976981063357034,-0.13667579721855716,0.504908499588737,0.2499759066317874,-0.1479803775179459,0.6334825471129129,0.23218240961624897,-0.0906759774592536,0.9400028337021953,0.056397506334038186,-0.19224981246446876,0.9756172615816743,0.023788220485549214,-0.2517313018968752,0.9124727286374597,0.07986624813036869,-0.2248727239720164
8.0,0.0,8.0,0.0,0.0,0.0,0.0,0.0,390.9704934998881,394.4768948999699,None,right,0.9599868000950664,396.9941835999489,iz8,390.9704934998881,394.4768948999699,396.9941835999489,None,True,4.0,['p'],False,0.4166666666666667,0.5,0.1666666666666666,1.0,1.0,0.9358932809493992,0.0414014973705713,figh_cost,1.0,1.0,,,iz8,1,2022-04-21_11h28.55.000,threat_forest,2021.2.3,59.73929775023638,True,16.0,0.4,0.5062500000000001,-1.1033333333333333,-0.8126041666666667,0,0,1,-0.0408357445157583,0.0414014973705713,0.4166666666666667,0.4166666666666667,0.5,0.8333333333333334,-0.9999999999999998,-0.9166666666666664,3.083333333333333,3.083333333333333,0.0,1.0,-1.0,4.0,0,0,0,0.514289653994463,0.24979580578871854,-0.09645928568878089,0.42845289435838474,0.24488101167430754,-0.0957231697504298,0.4923558354807407,0.2499415667488025,-0.0819963039194771,0.4393364849241291,0.24631993793863954,-0.1314473639862459,0.41529517440431696,0.24282509252080486,-0.11273229070962443,0.342996194386233,0.22534980502279447,-0.04868938102796205,0.47721562672484014,0.24948087233445818,-0.13948750068220106,0.3518005868753321,0.22803693394950406,-0.0849147043302646,0.49734411915411736,0.24999294629693247,-0.01247566736038691,0.45352634476459835,0.24784019936906096,-0.009979008946249812
8.0,0.0,8.0,0.0,1.0,0.0,1.0,0.0,,,,right,0.9493131001945584,400.6108951000497,iz8,390.9704934998881,394.4768948999699,400.6108951000497,None,True,1.0,['p'],False,0.4166666666666667,0.5,0.1666666666666666,1.0,1.0,0.9358932809493992,0.0372662954218108,succ_gain,1.0,2.0,399.9769643000327,None,iz8,1,2022-04-21_11h28.55.000,threat_forest,2021.2.3,59.73929775023638,True,16.0,0.4,0.5062500000000001,-1.1033333333333333,-0.8126041666666667,0,0,1,-0.0520166083428105,0.0372662954218108,1.0,0.4166666666666667,0.5,0.8333333333333334,-0.9999999999999998,-0.9166666666666664,0.0833333333333334,0.0833333333333334,0.0,1.0,-1.0,1.0,1,0,0,0.514289653994463,0.24979580578871854,-0.09645928568878089,0.42845289435838474,0.24488101167430754,-0.0957231697504298,0.4923558354807407,0.2499415667488025,-0.0819963039194771,0.4393364849241291,0.24631993793863954,-0.1314473639862459,0.41529517440431696,0.24282509252080486,-0.11273229070962443,0.342996194386233,0.22534980502279447,-0.04868938102796205,0.47721562672484014,0.24948087233445818,-0.13948750068220106,0.9400028337021953,0.056397506334038186,-0.19224981246446876,0.9756172615816743,0.023788220485549214,-0.2517313018968752,0.43790478205990313,0.2461441839089719,-0.01214876836592177
8.0,0.0,8.0,0.0,2.0,0.0,2.0,0.0,,,,right,1.003151900134981,404.9612189000472,iz8,404.9612189000472,None,401.57747259992175,403.57703489996493,False,2.0,['p'],True,0.27,0.3,0.1,1.0,1.0,0.7963326591781347,0.0086842224691358,wait_cost,0.0,1.0,403.5770348999649,None,iz8,1,2022-04-21_11h28.55.000,threat_forest,2021.2.3,59.73929775023638,False,16.0,0.4,0.5062500000000001,-1.1033333333333333,-0.8126041666666667,0,0,0,0.0031469433106295,0.0086842224691358,0.27,0.27,0.3,0.9,-1.4,-1.29,0.71,0.71,1.0,1.0,1.0,2.0,0,0,0,0.3283566005763313,0.22053854343428692,-0.09955347707365625,0.44459889110959067,0.246930717133713,-0.09372945310388042,0.15662606012635316,0.13209433741564916,-0.1637944132095167,0.3738989356996891,0.23409852158232883,-0.04791381655555904,0.3673668598528557,0.23240845013470798,-0.07681852996038985,0.342996194386233,0.22534980502279447,-0.04868938102796205,0.3539067860710922,0.22865677284392238,-0.08072759626541803,0.3518005868753321,0.22803693394950406,-0.0849147043302646,0.2807259093933679,0.2019188731886345,-0.06332337986958572,0.3347548083292544,0.22269402662969856,-0.042149202233913
8.0,0.0,8.0,0.0,3.0,0.0,3.0,0.0,,,,right,1.248281099833548,408.9107528999448,iz8,405.9940176999662,407.9938819000963,408.9107528999448,None,True,1.0,['p'],False,0.4166666666666667,0.5,0.1666666666666666,1.0,1.0,0.9358932809493992,0.0748196450617284,unsucc_cost,1.0,0.0,407.9938819000963,None,iz8,1,2022-04-21_11h28.55.000,threat_forest,2021.2.3,59.73929775023638,True,16.0,0.4,0.5062500000000001,-1.1033333333333333,-0.8126041666666667,0,0,1,0.2217674848356993,0.0748196450617284,1.0,0.4166666666666667,0.5,0.8333333333333334,-0.9999999999999998,-0.9166666666666664,0.0833333333333334,0.0833333333333334,0.0,1.0,-1.0,1.0,1,0,0,0.514289653994463,0.24979580578871854,-0.09645928568878089,0.42845289435838474,0.24488101167430754,-0.0957231697504298,0.4923558354807407,0.2499415667488025,-0.0819963039194771,0.4393364849241291,0.24631993793863954,-0.1314473639862459,0.41529517440431696,0.24282509252080486,-0.11273229070962443,0.342996194386233,0.22534980502279447,-0.04868938102796205,0.47721562672484014,0.24948087233445818,-0.13948750068220106,0.9400028337021953,0.056397506334038186,-0.19224981246446876,0.9756172615816743,0.023788220485549214,-0.2517313018968752,0.58044729710928,0.24352823238781124,-0.015495427395872785
9.0,0.0,9.0,0.0,0.0,0.0,0.0,0.0,414.7994609999005,418.3105637999252,None,right,1.1920044999569654,419.8122658999637,iz8,419.8122658999637,None,414.7994609999005,418.31056379992515,False,4.0,['p'],True,0.2040816326530612,0.2857142857142857,0.2857142857142857,2.0,2.0,0.9335459102197724,-0.0053173066993206,wait_cost,0.0,3.0,,,iz8,1,2022-04-21_11h28.55.000,threat_forest,2021.2.3,59.73929775023638,False,21.0,0.4761904761904761,0.4380952380952381,-1.012471655328798,-1.0579024943310658,0,0,0,0.1756363437677146,-0.0053173066993206,0.2040816326530612,0.2040816326530612,0.2857142857142857,0.7142857142857143,-1.7142857142857144,-1.469387755102041,2.5306122448979598,2.5306122448979598,1.0,2.0,-1.0,4.0,0,0,0,0.3283566005763313,0.22053854343428692,-0.09955347707365625,0.4000168869022257,0.2400033770952777,-0.1004675691036995,0.4923558354807407,0.2499415667488025,-0.0819963039194771,0.36936746892333966,0.23293514182450537,-0.03996210004850553,0.33141723093496567,0.22157984997436533,-0.03948445041795212,0.342996194386233,0.22534980502279447,-0.04868938102796205,0.3033395605058081,0.21132467153795131,-0.031821154162424814,0.3518005868753321,0.22803693394950406,-0.0849147043302646,0.20441035793349985,0.1626267635029983,-0.10488245252553424,0.2888709511549587,0.20542452473378817,-0.06424255296889209
9.0,0.0,9.0,0.0,1.0,0.0,1.0,0.0,,,,right,0.7187161999754608,423.994696599897,iz8,421.0277265000623,423.027305399999,423.994696599897,None,True,3.0,['p'],False,0.4444444444444445,0.6666666666666666,0.3333333333333333,1.0,2.0,0.9656336071428248,0.0927490191006968,succ_gain,1.0,5.0,423.027305399999,None,iz8,1,2022-04-21_11h28.55.000,threat_forest,2021.2.3,59.73929775023638,True,21.0,0.4761904761904761,0.4380952380952381,-1.012471655328798,-1.0579024943310658,1,1,1,-0.3302887140974376,0.0927490191006968,0.4444444444444445,0.4444444444444445,0.6666666666666666,0.6666666666666667,-0.3333333333333335,-0.5555555555555556,2.4444444444444446,2.4444444444444446,0.0,2.0,-1.0,3.0,0,1,1,0.514289653994463,0.24979580578871854,-0.09645928568878089,0.38881733836466936,0.23763841575168362,-0.10276793024950867,0.4923558354807407,0.2499415667488025,-0.0819963039194771,0.49563438999965737,0.24998094144932484,-0.15647037289845178,0.4983923148051382,0.24999741534831424,-0.13746051660967495,0.504908499588737,0.2499759066317874,-0.1479803775179459,0.501381157236356,0.24999809240468843,-0.1409469540382986,0.3518005868753321,0.22803693394950406,-0.0849147043302646,0.54129527243998,0.2482947004741078,-0.014271893679184744,0.6453799859389331,0.22886465968839562,-0.034254940937648526
9.0,0.0,9.0,0.0,2.0,0.0,2.0,0.0,,,,left,1.3884455000516027,430.1279036998749,iz8,421.0277265000623,423.027305399999,430.1279036998749,None,False,5.0,['p'],False,0.4444444444444445,0.6666666666666666,0.3333333333333333,1.0,2.0,0.9656336071428248,0.0918775427186178,wait_cost,1.0,4.0,426.7440098999068,None,iz8,1,2022-04-21_11h28.55.000,threat_forest,2021.2.3,59.73929775023638,False,21.0,0.4761904761904761,0.4380952380952381,-1.012471655328798,-1.0579024943310658,1,1,0,0.3281847760412654,0.0918775427186178,0.4444444444444445,0.4444444444444445,0.6666666666666666,0.6666666666666667,-0.3333333333333335,-0.5555555555555556,4.444444444444445,4.444444444444445,0.0,2.0,1.0,5.0,0,1,1,0.514289653994463,0.24979580578871854,-0.09645928568878089,0.38881733836466936,0.23763841575168362,-0.10276793024950867,0.15662606012635316,0.13209433741564916,-0.1637944132095167,0.49563438999965737,0.24998094144932484,-0.15647037289845178,0.4983923148051382,0.24999741534831424,-0.13746051660967495,0.504908499588737,0.2499759066317874,-0.1479803775179459,0.501381157236356,0.24999809240468843,-0.1409469540382986,0.3518005868753321,0.22803693394950406,-0.0849147043302646,0.54129527243998,0.2482947004741078,-0.014271893679184744,0.6423240454387629,0.22974386608994496,-0.033130147905692686
9.0,0.0,9.0,0.0,3.0,0.0,3.0,0.0,,,,right,0.5331778000108898,436.34491099999286,iz8,421.0277265000623,423.027305399999,436.34491099999286,None,True,4.0,['p'],False,0.4444444444444445,0.6666666666666666,0.3333333333333333,1.0,2.0,0.9656336071428248,0.1281138193638644,figh_cost,1.0,1.0,433.5441697998904,None,iz8,1,2022-04-21_11h28.55.000,threat_forest,2021.2.3,59.73929775023638,True,21.0,0.4761904761904761,0.4380952380952381,-1.012471655328798,-1.0579024943310658,1,1,1,-0.6289003269327891,0.1281138193638644,0.4444444444444445,0.4444444444444445,0.6666666666666666,0.6666666666666667,-0.3333333333333335,-0.5555555555555556,3.4444444444444446,3.4444444444444446,0.0,2.0,-1.0,4.0,0,1,1,0.514289653994463,0.24979580578871854,-0.09645928568878089,0.38881733836466936,0.23763841575168362,-0.10276793024950867,0.4923558354807407,0.2499415667488025,-0.0819963039194771,0.49563438999965737,0.24998094144932484,-0.15647037289845178,0.4983923148051382,0.24999741534831424,-0.13746051660967495,0.504908499588737,0.2499759066317874,-0.1479803775179459,0.501381157236356,0.24999809240468843,-0.1409469540382986,0.3518005868753321,0.22803693394950406,-0.0849147043302646,0.54129527243998,0.2482947004741078,-0.014271893679184744,0.7576069181468345,0.18363867572289014,-0.09211379130327912
9.0,0.0,9.0,0.0,4.0,0.0,4.0,0.0,,,,right,0.8374164998531342,440.21125670010224,iz8,440.21125670010224,None,436.9115907000378,438.9108557999134,False,1.0,['p'],True,0.2040816326530612,0.2857142857142857,0.2857142857142857,2.0,2.0,0.9335459102197724,0.0919241468318242,wait_cost,0.0,0.0,438.9108557999134,None,iz8,1,2022-04-21_11h28.55.000,threat_forest,2021.2.3,59.73929775023638,False,21.0,0.4761904761904761,0.4380952380952381,-1.012471655328798,-1.0579024943310658,0,0,0,-0.1774337219213567,0.0919241468318242,1.0,0.2040816326530612,0.2857142857142857,0.7142857142857143,-1.7142857142857144,-1.469387755102041,-0.4693877551020406,0.0,1.0,2.0,-1.0,1.0,1,0,0,0.3283566005763313,0.22053854343428692,-0.09955347707365625,0.4000168869022257,0.2400033770952777,-0.1004675691036995,0.4923558354807407,0.2499415667488025,-0.0819963039194771,0.36936746892333966,0.23293514182450537,-0.03996210004850553,0.33141723093496567,0.22157984997436533,-0.03948445041795212,0.342996194386233,0.22534980502279447,-0.04868938102796205,0.3033395605058081,0.21132467153795131,-0.031821154162424814,0.9400028337021953,0.056397506334038186,-0.19224981246446876,0.9756172615816743,0.023788220485549214,-0.2517313018968752,0.642487764344725,0.22969723701204214,-0.03318980177288383
10.0,0.0,10.0,0.0,0.0,0.0,0.0,0.0,444.2730854998808,447.7778457999229,None,left,1.5047526000998914,451.06443280004896,iz8,451.06443280004896,None,444.2730854998808,447.77784579992294,True,5.0,['r'],True,0.46875,0.625,0.25,2.0,2.0,0.9634951148421658,-0.0155794500840503,unsucc_cost,0.0,3.0,,,iz8,1,2022-04-21_11h28.55.000,threat_forest,2021.2.3,59.73929775023638,True,19.0,0.5982142857142857,0.5372023809523809,-0.0446428571428572,-0.5285572562358276,1,0,1,0.4086284993724054,-0.0155794500840503,0.46875,0.46875,0.625,0.75,-0.25,-0.375,4.625,4.625,1.0,2.0,-1.0,5.0,0,0,1,0.3283566005763313,0.22053854343428692,-0.09955347707365625,0.4084863759841723,0.24162525661948972,-0.09888999209560731,0.4923558354807407,0.2499415667488025,-0.0819963039194771,0.48149320954163516,0.2496574987069302,-0.15425963734414072,0.5088815891470245,0.24992111737422348,-0.13719746186654547,0.504908499588737,0.2499759066317874,-0.1479803775179459,0.5225245636939957,0.24949264403039514,-0.13952071718351455,0.3518005868753321,0.22803693394950406,-0.0849147043302646,0.5792553588383361,0.24371858809540656,-0.019112025409188382,0.25772889050915815,0.19130470950607653,-0.08230642255929446
10.0,0.0,10.0,0.0,1.0,0.0,1.0,0.0,,,,right,0.8365785998757929,456.21146179991774,iz8,452.5947374999523,454.5943899000995,456.21146179991774,None,True,3.0,['r'],False,0.5714285714285714,0.5714285714285714,0.0,0.0,2.0,0.6216097450797566,0.2045482011987489,unsucc_cost,1.0,1.0,454.5943899000995,None,iz8,1,2022-04-21_11h28.55.000,threat_forest,2021.2.3,59.73929775023638,True,19.0,0.5982142857142857,0.5372023809523809,-0.0446428571428572,-0.5285572562358276,1,1,1,-0.1784348001771445,0.2045482011987489,0.5714285714285714,0.5714285714285714,0.5714285714285714,1.0,0.2857142857142856,0.2857142857142856,3.2857142857142856,3.2857142857142856,0.0,2.0,-1.0,3.0,0,1,1,0.514289653994463,0.24979580578871854,-0.09645928568878089,0.46902820340555484,0.24904074781571228,-0.09167705905080897,0.4923558354807407,0.2499415667488025,-0.0819963039194771,0.4633583072757244,0.2486573863542998,-0.14742385577768347,0.5757323701311081,0.24426460811432482,-0.11769535046575752,0.504908499588737,0.2499759066317874,-0.1479803775179459,0.6100916383790106,0.23787983115902514,-0.10675254035830228,0.3518005868753321,0.22803693394950406,-0.0849147043302646,0.7253109817212604,0.19923496151580183,-0.06616214014756022,0.9095758176837203,0.08224764956871188,-0.22182613134095974
10.0,0.0,10.0,0.0,2.0,0.0,2.0,0.0,,,,left,0.5489686999935657,461.5616776999086,iz8,461.5616776999086,None,457.0781914999243,459.07785840006545,True,1.0,['r'],True,0.46875,0.625,0.25,2.0,2.0,0.9634951148421658,0.3047633530538698,succ_gain,0.0,3.0,459.0778584000655,None,iz8,1,2022-04-21_11h28.55.000,threat_forest,2021.2.3,59.73929775023638,True,19.0,0.5982142857142857,0.5372023809523809,-0.0446428571428572,-0.5285572562358276,1,0,1,-0.5997138518600712,0.3047633530538698,1.0,0.46875,0.625,0.75,-0.25,-0.375,0.625,0.625,1.0,2.0,-1.0,1.0,1,0,1,0.3283566005763313,0.22053854343428692,-0.09955347707365625,0.4084863759841723,0.24162525661948972,-0.09888999209560731,0.4923558354807407,0.2499415667488025,-0.0819963039194771,0.48149320954163516,0.2496574987069302,-0.15425963734414072,0.5088815891470245,0.24992111737422348,-0.13719746186654547,0.504908499588737,0.2499759066317874,-0.1479803775179459,0.5225245636939957,0.24949264403039514,-0.13952071718351455,0.9400028337021953,0.056397506334038186,-0.19224981246446876,0.9756172615816743,0.023788220485549214,-0.2517313018968752,0.978979109170998,0.020579012977757168,-0.30072052133344557
10.0,0.0,10.0,0.0,3.0,0.0,3.0,0.0,,,,right,1.028047899948433,464.7286862998735,iz8,462.1281616000924,464.1279462999664,464.7286862998735,None,True,3.0,['r'],False,0.5714285714285714,0.5714285714285714,0.0,0.0,2.0,0.6216097450797566,0.1827383633208046,unsucc_cost,1.0,1.0,464.1279462999664,None,iz8,1,2022-04-21_11h28.55.000,threat_forest,2021.2.3,59.73929775023638,True,19.0,0.5982142857142857,0.5372023809523809,-0.0446428571428572,-0.5285572562358276,1,1,1,0.0276617612280238,0.1827383633208046,0.5714285714285714,0.5714285714285714,0.5714285714285714,1.0,0.2857142857142856,0.2857142857142856,3.2857142857142856,3.2857142857142856,0.0,2.0,1.0,3.0,0,1,1,0.514289653994463,0.24979580578871854,-0.09645928568878089,0.46902820340555484,0.24904074781571228,-0.09167705905080897,0.15662606012635316,0.13209433741564916,-0.1637944132095167,0.4633583072757244,0.2486573863542998,-0.14742385577768347,0.5757323701311081,0.24426460811432482,-0.11769535046575752,0.504908499588737,0.2499759066317874,-0.1479803775179459,0.6100916383790106,0.23787983115902514,-0.10675254035830228,0.3518005868753321,0.22803693394950406,-0.0849147043302646,0.7253109817212604,0.19923496151580183,-0.06616214014756022,0.87814100317345,0.10700938171897684,-0.19014776351664142
10.0,0.0,10.0,0.0,4.0,0.0,4.0,0.0,,,,left,0.9853558999020606,468.5618914000224,iz8,468.5618914000224,None,465.7781823999248,467.77803419996053,True,1.0,['r'],True,0.46875,0.625,0.25,2.0,2.0,0.9634951148421658,0.3303161932497608,succ_gain,0.0,3.0,467.7780341999605,None,iz8,1,2022-04-21_11h28.55.000,threat_forest,2021.2.3,59.73929775023638,True,19.0,0.5982142857142857,0.5372023809523809,-0.0446428571428572,-0.5285572562358276,1,0,1,-0.0147523833727671,0.3303161932497608,1.0,0.46875,0.625,0.75,-0.25,-0.375,0.625,0.625,1.0,2.0,-1.0,1.0,1,0,1,0.3283566005763313,0.22053854343428692,-0.09955347707365625,0.4084863759841723,0.24162525661948972,-0.09888999209560731,0.4923558354807407,0.2499415667488025,-0.0819963039194771,0.48149320954163516,0.2496574987069302,-0.15425963734414072,0.5088815891470245,0.24992111737422348,-0.13719746186654547,0.504908499588737,0.2499759066317874,-0.1479803775179459,0.5225245636939957,0.24949264403039514,-0.13952071718351455,0.9400028337021953,0.056397506334038186,-0.19224981246446876,0.9756172615816743,0.023788220485549214,-0.2517313018968752,0.9856811628335012,0.014113808068698204,-0.3089916365335414
10.0,0.0,10.0,0.0,5.0,0.0,5.0,0.0,,,,right,0.549323899904266,472.8783154000994,iz8,469.5783216999844,471.57802679995075,472.8783154000994,None,True,3.0,['r'],False,0.5714285714285714,0.5714285714285714,0.0,0.0,2.0,0.6216097450797566,0.2485650510204081,unsucc_cost,1.0,1.0,471.5780267999508,None,iz8,1,2022-04-21_11h28.55.000,threat_forest,2021.2.3,59.73929775023638,True,19.0,0.5982142857142857,0.5372023809523809,-0.0446428571428572,-0.5285572562358276,1,1,1,-0.599067029832649,0.2485650510204081,0.5714285714285714,0.5714285714285714,0.5714285714285714,1.0,0.2857142857142856,0.2857142857142856,3.2857142857142856,3.2857142857142856,0.0,2.0,1.0,3.0,0,1,1,0.514289653994463,0.24979580578871854,-0.09645928568878089,0.46902820340555484,0.24904074781571228,-0.09167705905080897,0.15662606012635316,0.13209433741564916,-0.1637944132095167,0.4633583072757244,0.2486573863542998,-0.14742385577768347,0.5757323701311081,0.24426460811432482,-0.11769535046575752,0.504908499588737,0.2499759066317874,-0.1479803775179459,0.6100916383790106,0.23787983115902514,-0.10675254035830228,0.3518005868753321,0.22803693394950406,-0.0849147043302646,0.7253109817212604,0.19923496151580183,-0.06616214014756022,0.9517353901420241,0.04593513729323327,-0.26828173119589055
10.0,0.0,10.0,0.0,6.0,0.0,6.0,0.0,,,,right,0.7442866000346839,477.361756300088,iz8,469.5783216999844,471.57802679995075,477.361756300088,None,True,1.0,['r'],False,0.5714285714285714,0.5714285714285714,0.0,0.0,2.0,0.6216097450797566,0.5714285714285714,succ_gain,1.0,3.0,475.4447450998705,None,iz8,1,2022-04-21_11h28.55.000,threat_forest,2021.2.3,59.73929775023638,True,19.0,0.5982142857142857,0.5372023809523809,-0.0446428571428572,-0.5285572562358276,1,1,1,-0.2953291032249517,0.5714285714285714,1.0,0.5714285714285714,0.5714285714285714,1.0,0.2857142857142856,0.2857142857142856,1.2857142857142856,1.2857142857142856,0.0,2.0,-1.0,1.0,1,1,1,0.514289653994463,0.24979580578871854,-0.09645928568878089,0.46902820340555484,0.24904074781571228,-0.09167705905080897,0.4923558354807407,0.2499415667488025,-0.0819963039194771,0.4633583072757244,0.2486573863542998,-0.14742385577768347,0.5757323701311081,0.24426460811432482,-0.11769535046575752,0.504908499588737,0.2499759066317874,-0.1479803775179459,0.6100916383790106,0.23787983115902514,-0.10675254035830228,0.9400028337021953,0.056397506334038186,-0.19224981246446876,0.9756172615816743,0.023788220485549214,-0.2517313018968752,0.9996363431363093,0.0003635246173762141,-0.3265827539164565
10.0,0.0,10.0,0.0,7.0,0.0,7.0,0.0,,,,right,0.3996730998624116,481.2973676000256,iz8,481.2973676000256,None,478.128578200005,480.1281888000667,False,3.0,['r'],True,0.46875,0.625,0.25,2.0,2.0,0.9634951148421658,-0.25,wait_cost,0.0,2.0,480.1281888000667,None,iz8,1,2022-04-21_11h28.55.000,threat_forest,2021.2.3,59.73929775023638,False,19.0,0.5982142857142857,0.5372023809523809,-0.0446428571428572,-0.5285572562358276,1,0,0,-0.9171083163492466,-0.25,0.0,0.46875,0.625,0.75,-0.25,-0.375,2.625,2.625,1.0,2.0,1.0,3.0,0,0,1,0.3283566005763313,0.22053854343428692,-0.09955347707365625,0.4084863759841723,0.24162525661948972,-0.09888999209560731,0.15662606012635316,0.13209433741564916,-0.1637944132095167,0.48149320954163516,0.2496574987069302,-0.15425963734414072,0.5088815891470245,0.24992111737422348,-0.13719746186654547,0.504908499588737,0.2499759066317874,-0.1479803775179459,0.5225245636939957,0.24949264403039514,-0.13952071718351455,0.3518005868753321,0.22803693394950406,-0.0849147043302646,0.06578276310113566,0.061455391179915525,-0.21189091928175077,0.009540231032312793,0.009449215024162893,-0.31495917924496536
11.0,0.0,11.0,0.0,0.0,0.0,0.0,0.0,486.01804580003954,489.5283339999151,None,left,1.2352887999732047,490.9455802999437,iz8,490.9455802999437,None,486.01804580003954,489.52833399991505,True,4.0,['r'],True,0.24,0.4,0.4,2.0,2.0,0.9801625908629508,-0.0095698812742934,figh_cost,0.0,1.0,,,iz8,1,2022-04-21_11h28.55.000,threat_forest,2021.2.3,59.73929775023638,True,46.0,0.3666666666666667,0.4824404761904762,-1.0533333333333337,-0.5489880952380953,0,0,1,0.2113047888743451,-0.0095698812742934,0.24,0.24,0.4,0.6,-1.6,-1.4400000000000002,2.56,2.56,1.0,2.0,-1.0,4.0,0,0,0,0.3283566005763313,0.22053854343428692,-0.09955347707365625,0.3733354034017298,0.23395607996859755,-0.10634968103971859,0.4923558354807407,0.2499415667488025,-0.0819963039194771,0.40620147476354085,0.24120183666346534,-0.09646507198667242,0.3442896628241604,0.22575429089658638,-0.05387679172963622,0.342996194386233,0.22534980502279447,-0.04868938102796205,0.33040064847761536,0.22123605996318663,-0.05978837727183817,0.3518005868753321,0.22803693394950406,-0.0849147043302646,0.24395076155856912,0.1844387874935633,-0.0818119812006371,0.2756973153113502,0.19968830564146417,-0.07158105648006802
11.0,0.0,11.0,0.0,1.0,0.0,1.0,0.0,,,,left,1.3630812000483274,495.16196119994856,iz8,495.16196119994856,None,486.01804580003954,489.52833399991505,True,1.0,['r'],True,0.24,0.4,0.4,2.0,2.0,0.9801625908629508,0.0546311547259259,succ_gain,0.0,3.0,494.2116765999235,None,iz8,1,2022-04-21_11h28.55.000,threat_forest,2021.2.3,59.73929775023638,True,46.0,0.3666666666666667,0.4824404761904762,-1.0533333333333337,-0.5489880952380953,0,0,1,0.3097477254434471,0.0546311547259259,1.0,0.24,0.4,0.6,-1.6,-1.4400000000000002,-0.4400000000000001,0.0,1.0,2.0,-1.0,1.0,1,0,0,0.3283566005763313,0.22053854343428692,-0.09955347707365625,0.3733354034017298,0.23395607996859755,-0.10634968103971859,0.4923558354807407,0.2499415667488025,-0.0819963039194771,0.40620147476354085,0.24120183666346534,-0.09646507198667242,0.3442896628241604,0.22575429089658638,-0.05387679172963622,0.342996194386233,0.22534980502279447,-0.04868938102796205,0.33040064847761536,0.22123605996318663,-0.05978837727183817,0.9400028337021953,0.056397506334038186,-0.19224981246446876,0.9756172615816743,0.023788220485549214,-0.2517313018968752,0.5039699272844388,0.2499842396773563,-0.007236078964446502
11.0,0.0,11.0,0.0,2.0,0.0,2.0,0.0,,,,right,1.4793772001285106,499.77880620001815,iz8,496.54534989991225,498.5451164999977,499.77880620001815,None,True,3.0,['r'],False,0.3333333333333333,0.3333333333333333,0.0,0.0,2.0,0.5793801642856949,0.1273255308641976,unsucc_cost,1.0,1.0,498.5451164999977,None,iz8,1,2022-04-21_11h28.55.000,threat_forest,2021.2.3,59.73929775023638,True,46.0,0.3666666666666667,0.4824404761904762,-1.0533333333333337,-0.5489880952380953,0,0,1,0.3916211884863645,0.1273255308641976,0.3333333333333333,0.3333333333333333,0.3333333333333333,1.0,-0.6666666666666669,-0.6666666666666669,2.333333333333333,2.333333333333333,0.0,2.0,1.0,3.0,0,0,0,0.514289653994463,0.24979580578871854,-0.09645928568878089,0.46902820340555484,0.24904074781571228,-0.09167705905080897,0.15662606012635316,0.13209433741564916,-0.1637944132095167,0.3845575996163754,0.23667305219366694,-0.06551076838699843,0.45654138875149664,0.24811134910835148,-0.1309578712093069,0.342996194386233,0.22534980502279447,-0.04868938102796205,0.40579493364632335,0.24112540547329944,-0.11591066201302258,0.3518005868753321,0.22803693394950406,-0.0849147043302646,0.36838088510063993,0.23267640859310906,-0.030791284779264017,0.7553863221551137,0.1847778264560845,-0.09065644430855013
11.0,0.0,11.0,0.0,3.0,0.0,3.0,0.0,,,,right,0.8679039999842644,505.0287301000208,iz8,496.54534989991225,498.5451164999977,505.0287301000208,None,True,1.0,['r'],False,0.3333333333333333,0.3333333333333333,0.0,0.0,2.0,0.5793801642856949,0.1446074074074073,unsucc_cost,1.0,0.0,503.2785887999926,None,iz8,1,2022-04-21_11h28.55.000,threat_forest,2021.2.3,59.73929775023638,True,46.0,0.3666666666666667,0.4824404761904762,-1.0533333333333337,-0.5489880952380953,0,0,1,-0.1416741695347875,0.1446074074074073,1.0,0.3333333333333333,0.3333333333333333,1.0,-0.6666666666666669,-0.6666666666666669,0.3333333333333331,0.3333333333333331,0.0,2.0,-1.0,1.0,1,0,0,0.514289653994463,0.24979580578871854,-0.09645928568878089,0.46902820340555484,0.24904074781571228,-0.09167705905080897,0.4923558354807407,0.2499415667488025,-0.0819963039194771,0.3845575996163754,0.23667305219366694,-0.06551076838699843,0.45654138875149664,0.24811134910835148,-0.1309578712093069,0.342996194386233,0.22534980502279447,-0.04868938102796205,0.40579493364632335,0.24112540547329944,-0.11591066201302258,0.9400028337021953,0.056397506334038186,-0.19224981246446876,0.9756172615816743,0.023788220485549214,-0.2517313018968752,0.800884226852876,0.15946868203114709,-0.12303513177461997
12.0,0.0,12.0,0.0,0.0,0.0,0.0,0.0,509.1974333999679,512.7119581999723,None,right,1.218638699967414,513.545923900092,iz8,513.545923900092,None,509.1974333999679,512.7119581999723,False,4.0,['r'],True,0.25,0.25,0.0,0.0,2.0,0.5118595071429148,0.0318177712615933,wait_cost,0.0,3.0,,,iz8,1,2022-04-21_11h28.55.000,threat_forest,2021.2.3,59.73929775023638,False,34.0,0.4583333333333333,0.4125,-1.3888888888888888,-1.221111111111111,1,0,0,0.197734416056051,0.0318177712615933,0.25,0.25,0.25,1.0,-1.0,-1.0,3.0,3.0,1.0,2.0,-1.0,4.0,0,0,1,0.3283566005763313,0.22053854343428692,-0.09955347707365625,0.46902820340555484,0.24904074781571228,-0.09167705905080897,0.4923558354807407,0.2499415667488025,-0.0819963039194771,0.3581405146287225,0.22987588641019627,-0.019052047579683817,0.41529517440431696,0.2428250925208049,-0.11273229070962454,0.504908499588737,0.2499759066317874,-0.1479803775179459,0.33814931087413724,0.22380435442948335,-0.06703540072283232,0.3518005868753321,0.22803693394950406,-0.0849147043302646,0.2558379401992194,0.19038488855384006,-0.07552281912813097,0.41751314193870437,0.24319591824717568,-0.01592056605404063
12.0,0.0,12.0,0.0,1.0,0.0,1.0,0.0,,,,right,0.8586607000324875,517.8959905998781,iz8,517.8959905998781,None,509.1974333999679,512.7119581999723,False,3.0,['r'],True,0.25,0.25,0.0,0.0,2.0,0.5118595071429148,0.0633364704901298,wait_cost,0.0,2.0,516.7953530999366,None,iz8,1,2022-04-21_11h28.55.000,threat_forest,2021.2.3,59.73929775023638,False,34.0,0.4583333333333333,0.4125,-1.3888888888888888,-1.221111111111111,1,0,0,-0.1523814291700741,0.0633364704901298,0.25,0.25,0.25,1.0,-1.0,-1.0,2.0,2.0,1.0,2.0,-1.0,3.0,0,0,1,0.3283566005763313,0.22053854343428692,-0.09955347707365625,0.46902820340555484,0.24904074781571228,-0.09167705905080897,0.4923558354807407,0.2499415667488025,-0.0819963039194771,0.3581405146287225,0.22987588641019627,-0.019052047579683817,0.41529517440431696,0.2428250925208049,-0.11273229070962454,0.504908499588737,0.2499759066317874,-0.1479803775179459,0.33814931087413724,0.22380435442948335,-0.06703540072283232,0.3518005868753321,0.22803693394950406,-0.0849147043302646,0.2558379401992194,0.19038488855384006,-0.07552281912813097,0.5371824630478617,0.24861746444169439,-0.00898463227185331
12.0,0.0,12.0,0.0,2.0,0.0,2.0,0.0,,,,left,1.510842900024727,522.9796458999626,iz8,522.9796458999626,None,509.1974333999679,512.7119581999723,True,2.0,['r'],True,0.25,0.25,0.0,0.0,2.0,0.5118595071429148,0.0165064514746228,unsucc_cost,0.0,0.0,520.7787591998931,None,iz8,1,2022-04-21_11h28.55.000,threat_forest,2021.2.3,59.73929775023638,True,34.0,0.4583333333333333,0.4125,-1.3888888888888888,-1.221111111111111,1,0,1,0.4126677070214105,0.0165064514746228,0.25,0.25,0.25,1.0,-1.0,-1.0,1.0,1.0,1.0,2.0,-1.0,2.0,0,0,1,0.3283566005763313,0.22053854343428692,-0.09955347707365625,0.46902820340555484,0.24904074781571228,-0.09167705905080897,0.4923558354807407,0.2499415667488025,-0.0819963039194771,0.3581405146287225,0.22987588641019627,-0.019052047579683817,0.41529517440431696,0.2428250925208049,-0.11273229070962454,0.504908499588737,0.2499759066317874,-0.1479803775179459,0.33814931087413724,0.22380435442948335,-0.06703540072283232,0.3518005868753321,0.22803693394950406,-0.0849147043302646,0.2558379401992194,0.19038488855384006,-0.07552281912813097,0.36189772485972993,0.23092776160108117,-0.03161555768075436
13.0,0.0,13.0,0.0,0.0,0.0,0.0,0.0,528.264404400019,531.7788976999,None,right,1.0550098000094297,535.096117899986,iz8,535.096117899986,None,528.264404400019,531.7788976999,False,4.0,['r'],True,0.25,0.5,0.5,2.0,2.0,0.9463946303571862,-0.0085880818517447,wait_cost,0.0,3.0,,,iz8,1,2022-04-21_11h28.55.000,threat_forest,2021.2.3,59.73929775023638,False,70.0,0.4166666666666666,0.4375,-1.0833333333333337,-1.2361111111111112,0,0,0,0.0535500559933504,-0.0085880818517447,0.25,0.25,0.5,0.5,-1.5,-1.5,2.5,2.5,1.0,2.0,-1.0,4.0,0,0,0,0.3283566005763313,0.22053854343428692,-0.09955347707365625,0.35059922223980233,0.227679407604648,-0.11245490270438274,0.4923558354807407,0.2499415667488025,-0.0819963039194771,0.4393364849241291,0.24631993793863954,-0.1314473639862459,0.35574446609032107,0.22919034093643348,-0.06572336133234913,0.342996194386233,0.22534980502279447,-0.04868938102796205,0.33814931087413724,0.22380435442948335,-0.06703540072283232,0.3518005868753321,0.22803693394950406,-0.0849147043302646,0.2558379401992194,0.19038488855384006,-0.07552281912813097,0.2787055172280167,0.2010287518946804,-0.06986618656707372
13.0,0.0,13.0,0.0,1.0,0.0,1.0,0.0,,,,right,0.6439195999410003,540.5295599999372,iz8,536.1792440998834,538.1792279998772,540.5295599999372,None,True,3.0,['r'],False,0.3333333333333333,0.3333333333333333,0.0,0.0,2.0,0.5793801642856949,0.1048304344564472,unsucc_cost,1.0,1.0,538.1792279998772,None,iz8,1,2022-04-21_11h28.55.000,threat_forest,2021.2.3,59.73929775023638,True,70.0,0.4166666666666666,0.4375,-1.0833333333333337,-1.2361111111111112,1,0,1,-0.4401814054836569,0.1048304344564472,0.3333333333333333,0.3333333333333333,0.3333333333333333,1.0,-0.6666666666666669,-0.6666666666666669,2.333333333333333,2.333333333333333,0.0,2.0,-1.0,3.0,0,0,1,0.514289653994463,0.24979580578871854,-0.09645928568878089,0.46902820340555484,0.24904074781571228,-0.09167705905080897,0.4923558354807407,0.2499415667488025,-0.0819963039194771,0.3845575996163754,0.23667305219366694,-0.06551076838699843,0.45654138875149664,0.24811134910835148,-0.1309578712093069,0.504908499588737,0.2499759066317874,-0.1479803775179459,0.40579493364632335,0.24112540547329944,-0.11591066201302258,0.3518005868753321,0.22803693394950406,-0.0849147043302646,0.36838088510063993,0.23267640859310906,-0.030791284779264017,0.6864438285948878,0.21523869877888008,-0.05168700905921564
13.0,0.0,13.0,0.0,2.0,0.0,2.0,0.0,,,,left,1.1969632001128048,546.8293566000648,iz8,546.8293566000648,None,541.1959734999109,543.1957739999052,True,1.0,['r'],True,0.25,0.5,0.5,2.0,2.0,0.9463946303571862,0.0910674672067901,figh_cost,0.0,0.0,543.1957739999052,None,iz8,1,2022-04-21_11h28.55.000,threat_forest,2021.2.3,59.73929775023638,True,70.0,0.4166666666666666,0.4375,-1.0833333333333337,-1.2361111111111112,0,0,1,0.1797876826720063,0.0910674672067901,1.0,0.25,0.5,0.5,-1.5,-1.5,-0.5,0.0,1.0,2.0,-1.0,1.0,1,0,0,0.3283566005763313,0.22053854343428692,-0.09955347707365625,0.35059922223980233,0.227679407604648,-0.11245490270438274,0.4923558354807407,0.2499415667488025,-0.0819963039194771,0.4393364849241291,0.24631993793863954,-0.1314473639862459,0.35574446609032107,0.22919034093643348,-0.06572336133234913,0.342996194386233,0.22534980502279447,-0.04868938102796205,0.33814931087413724,0.22380435442948335,-0.06703540072283232,0.9400028337021953,0.056397506334038186,-0.19224981246446876,0.9756172615816743,0.023788220485549214,-0.2517313018968752,0.6394729945027535,0.23054728380443487,-0.032102313434269725
14.0,0.0,14.0,0.0,0.0,0.0,0.0,0.0,551.2298864000477,554.729257900035,None,right,1.2559233999345452,558.2966201000381,iz8,558.2966201000381,None,551.2298864000477,554.729257900035,False,5.0,['r'],True,0.4,0.4,0.0,0.0,1.0,0.6126016192893442,0.049106757699623,wait_cost,0.0,4.0,,,iz8,1,2022-04-21_11h28.55.000,threat_forest,2021.2.3,59.73929775023638,False,36.0,0.4142857142857142,0.4154761904761904,-1.083673469387755,-1.0835034013605442,1,0,0,0.2278710788729449,0.049106757699623,0.4,0.4,0.4,1.0,-0.7999999999999999,-0.7999999999999999,4.2,4.2,1.0,1.0,-1.0,5.0,0,0,1,0.3283566005763313,0.22053854343428692,-0.09955347707365625,0.46902820340555484,0.24904074781571228,-0.09167705905080897,0.4923558354807407,0.2499415667488025,-0.0819963039194771,0.40620147476354085,0.24120183666346534,-0.09646507198667242,0.4399385231031929,0.24639261899297438,-0.12503215542985935,0.504908499588737,0.2499759066317874,-0.1479803775179459,0.4627601312498526,0.2486131921754718,-0.13703914495716474,0.3518005868753321,0.22803693394950406,-0.0849147043302646,0.4709495738340298,0.24915607273957546,-0.013360824437782415,0.4828564559909242,0.24970609889880893,-0.007591912144302271
