miniblock.thisRepN,miniblock.thisTrialN,miniblock.thisN,miniblock.thisIndex,day.thisRepN,day.thisTrialN,day.thisN,day.thisIndex,forest.started,fixation_forest.started,fixation_forest.stopped,key_resp.keys,key_resp.rt,key_resp.started,Subject_ID,weather_left.started,weather_left.stopped,weather_right.started,weather_right.stopped,foraging T/F,in_LP,p/r heuristic,good_weather.T/F,p_succ_correct,p_succ_uncorrected,r_threat,n_oponents,gain_if_succ,weather_entropy,OP_value_difference,action_outcome,forest_side_L=0_R=1,out_LP,fixation_day.started,fixation_day.stopped,participant,session,date,expName,psychopyVersion,frameRate,foraging T/F NaNs,fora_NR,forest_mean_p,mvt_cutoff_p,forest_mean_ev,mvt_cutoff_ev,mvt_policy_eg,mvt_policy_p,fora_response,logRT,optimal policy values,multi-heuristic policy,** $\mathit{p}$ success,* $\mathit{p}$ gain,* $\mathit{r}$ predator,expected gain naive,expected gain correct,expected state no bounds,expected state with bounds,weather type,gain magnitude,win stay lose shift,continuous energy state,** binary energy state,** wait when safe,$\mathit{p}$ success based MVT,marginal value,$\mathit{OP}$ values + cap,win stay lose shift fit,win stay lose shift_uncertain,win stay lose shift_uncertain_fit,** wait when safe fit,** wait when safe_uncertain,** wait when safe_uncertain_fit,** binary energy state fit,** binary energy state_uncertain,** binary energy state_uncertain_fit,weather type fit,weather type_uncertain,weather type_uncertain_fit,* $\mathit{r}$ predator fit,* $\mathit{r}$ predator_uncertain,* $\mathit{r}$ predator_uncertain_fit,* $\mathit{p}$ gain fit,* $\mathit{p}$ gain_uncertain,* $\mathit{p}$ gain_uncertain_fit,expected gain naive fit,expected gain naive_uncertain,expected gain naive_uncertain_fit,** $\mathit{p}$ success fit,** $\mathit{p}$ success_uncertain,** $\mathit{p}$ success_uncertain_fit,marginal value fit,marginal value_uncertain,marginal value_uncertain_fit,multi-heuristic policy fit,multi-heuristic policy_uncertain,multi-heuristic policy_uncertain_fit,optimal policy values fit,optimal policy values_uncertain,optimal policy values_uncertain_fit
0.0,0.0,0.0,0.0,0.0,0.0,0.0,0.0,33.02597730001435,36.53067969996482,,left,2.8004063999978825,38.92816340003628,zu11,38.92816340003628,,33.02597730001435,36.53067969996482,True,4.0,['r'],True,0.25,0.5,0.5,2.0,1.0,0.9463946303571862,0.0015300455080301,figh_cost,0.0,1.0,,,zu11,1,2023-03-28_11h13.54.028,threat_forest,2021.2.3,60.03842457677967,True,43.0,0.4166666666666666,0.4166666666666666,-1.375,-1.375,0,0,1.0,1.0297645495053396,0.0015300455080301,0.25,0.25,0.5,0.5,-1.0,-0.75,3.25,3.25,1.0,1.0,,4.0,0,1,0,0,0.0015300455080301,,,,0.5986409606933494,0.24026996087349312,0.32143836457015323,0.4701753608165332,0.24911049089757598,0.2861368479636375,0.49668711948004257,0.2499890248226605,0.32658931759251786,0.6127315281421947,0.23729160256272558,0.4407502458135988,0.5893018037266082,0.2420251878511743,0.27692389124611677,0.4704780994372427,0.2491284573871626,0.3197113608145523,0.4657650648038984,0.24882796921211867,0.33286422452044007,0.45028854827481785,0.24752877156737482,0.3715419550403536,0.3848980899524736,0.23675155030341113,0.34658648452544866,0.42056302657524836,0.2436897672531153,0.35259292646603724
0.0,0.0,0.0,0.0,1.0,0.0,1.0,0.0,,,,right,2.1195454000262544,47.40400780003984,zu11,41.759329100023024,43.77380780002568,47.40400780003984,,True,1.0,['r'],False,0.3333333333333333,0.3333333333333333,0.0,0.0,1.0,0.5793801642856949,0.0177720309284978,unsucc_cost,1.0,0.0,43.77380780002568,,zu11,1,2023-03-28_11h13.54.028,threat_forest,2021.2.3,60.03842457677967,True,43.0,0.4166666666666666,0.4166666666666666,-1.375,-1.375,1,0,1.0,0.7512016317397944,0.0177720309284978,1.0,0.3333333333333333,0.3333333333333333,0.0,-2.220446049250313e-16,-2.220446049250313e-16,0.9999999999999998,1.0,0.0,1.0,-1.0,1.0,1,1,0,1,0.625,0.597780711322595,0.24043893249324738,0.29135005866526953,0.5986409606933494,0.24026996087349312,0.32143836457015323,0.9555550095567019,0.04246963326779318,0.20678795646348969,0.5698320356203388,0.24512348680111978,0.23206409359790126,0.4928337510821613,0.24994864487644758,0.2288002973020733,0.46600618721855297,0.24884442069257995,0.2786293923025215,0.5356299415131895,0.2487305072677667,0.3108813393857002,0.5315641344758063,0.2490037054147932,0.3340318689003676,0.6289281902376961,0.2333775217620325,0.1718288389848599,0.9857025601968895,0.01409302301818684,0.06830827211637956,0.48372004240020233,0.24973496298054879,0.36135421361624603
1.0,0.0,1.0,0.0,0.0,0.0,0.0,0.0,54.49342299997807,57.99392010003794,,left,1.1439597000135109,61.041779699968174,zu11,61.041779699968174,,54.49342299997807,57.99392010003794,True,5.0,['p'],True,0.4444444444444445,0.6666666666666666,0.3333333333333333,1.0,1.0,0.9656336071428248,0.0467066160950204,figh_cost,0.0,2.0,,,zu11,1,2023-03-28_11h13.54.028,threat_forest,2021.2.3,60.03842457677967,True,57.0,0.4583333333333333,0.4375,-1.34375,-1.359375,1,1,1.0,0.1344956650761945,0.0467066160950204,0.4444444444444445,0.4444444444444445,0.6666666666666666,0.3333333333333333,0.0,0.0,5.0,5.0,1.0,1.0,-1.0,5.0,0,1,1,1,0.0467066160950204,0.597780711322595,0.24043893249324738,0.29135005866526953,0.5986409606933494,0.24026996087349312,0.32143836457015323,0.4701753608165332,0.24911049089757598,0.2861368479636375,0.49668711948004257,0.2499890248226605,0.32658931759251786,0.5735418850550255,0.24459159114255344,0.3185074528072249,0.7023147589794394,0.2090687382990913,0.26868143042484344,0.5356299415131895,0.24873050726776672,0.3108813393857002,0.6172432032770754,0.2362540312853304,0.24931918524948204,0.6289281902376961,0.2333775217620325,0.1718288389848599,0.6792330239717947,0.217875523117926,0.32299526093025704,0.5962107473694102,0.24074349209061954,0.3483228971922105
1.0,0.0,1.0,0.0,1.0,0.0,1.0,0.0,,,,left,1.4059546999633312,66.22147099999711,zu11,62.20689080003649,64.22145790001377,66.22147099999711,,False,2.0,['p'],False,0.1875,0.25,0.25,2.0,1.0,0.895754137500101,-0.0136192356711001,wait_cost,1.0,1.0,64.22145790001377,,zu11,1,2023-03-28_11h13.54.028,threat_forest,2021.2.3,60.03842457677967,False,57.0,0.4583333333333333,0.4375,-1.34375,-1.359375,0,0,0.0,0.3407165737821805,-0.0136192356711001,0.1875,0.1875,0.25,0.25,-1.0,-0.6875,1.3125,1.3125,0.0,1.0,-1.0,2.0,0,1,0,0,-0.0136192356711001,0.597780711322595,0.24043893249324738,0.29135005866526953,0.5986409606933494,0.24026996087349312,0.32143836457015323,0.4701753608165332,0.24911049089757598,0.2861368479636375,0.5698320356203388,0.24512348680111978,0.23206409359790126,0.5535614173017636,0.24713117457662634,0.2759805681883023,0.4049654001162774,0.2409684248249408,0.2766595931205758,0.4704780994372427,0.2491284573871626,0.3197113608145523,0.4170637871719241,0.24312158460173608,0.29494928258694064,0.45028854827481785,0.24752877156737482,0.3715419550403536,0.2972036315112687,0.20887363292778274,0.31174471534838105,0.36387024855886063,0.23146869077257365,0.3348809506825589
1.0,0.0,1.0,0.0,2.0,0.0,2.0,0.0,,,,left,1.0586408999515695,70.51861010002904,zu11,70.51861010002904,,67.65199259994552,69.66624339995906,True,1.0,['p'],True,0.4444444444444445,0.6666666666666666,0.3333333333333333,1.0,1.0,0.9656336071428248,0.0687386779676624,succ_gain,0.0,2.0,69.66624339995906,,zu11,1,2023-03-28_11h13.54.028,threat_forest,2021.2.3,60.03842457677967,True,57.0,0.4583333333333333,0.4375,-1.34375,-1.359375,1,1,1.0,0.0569859155839066,0.0687386779676624,1.0,0.4444444444444445,0.6666666666666666,0.3333333333333333,0.0,0.0,1.0,1.0,1.0,1.0,-1.0,1.0,1,1,1,1,0.625,0.597780711322595,0.24043893249324738,0.29135005866526953,0.5986409606933494,0.24026996087349312,0.32143836457015323,0.9555550095567019,0.04246963326779318,0.20678795646348969,0.49668711948004257,0.2499890248226605,0.32658931759251786,0.5735418850550255,0.24459159114255344,0.3185074528072249,0.7023147589794394,0.2090687382990913,0.26868143042484344,0.5356299415131895,0.24873050726776672,0.3108813393857002,0.6172432032770754,0.2362540312853304,0.24931918524948204,0.6289281902376961,0.2333775217620325,0.1718288389848599,0.9857025601968895,0.01409302301818684,0.06830827211637956,0.6761291458845763,0.21897852396996967,0.3167789829637936
1.0,0.0,1.0,0.0,3.0,0.0,3.0,0.0,,,,left,1.6589153000386432,74.55029970000032,zu11,71.59818219998851,73.61277709994465,74.55029970000032,,False,2.0,['p'],False,0.1875,0.25,0.25,2.0,1.0,0.895754137500101,-0.0403212559076002,wait_cost,1.0,1.0,73.61277709994465,,zu11,1,2023-03-28_11h13.54.028,threat_forest,2021.2.3,60.03842457677967,False,57.0,0.4583333333333333,0.4375,-1.34375,-1.359375,0,0,0.0,0.5061639550759377,-0.0403212559076002,0.1875,0.1875,0.25,0.25,-1.0,-0.6875,1.3125,1.3125,0.0,1.0,1.0,2.0,0,1,0,0,-0.0403212559076002,0.241370587319334,0.1831108268964538,0.1873936079775924,0.5986409606933494,0.24026996087349312,0.32143836457015323,0.4701753608165332,0.24911049089757598,0.2861368479636375,0.5698320356203388,0.24512348680111978,0.23206409359790126,0.5535614173017636,0.24713117457662634,0.2759805681883023,0.4049654001162774,0.2409684248249408,0.2766595931205758,0.4704780994372427,0.2491284573871626,0.3197113608145523,0.4170637871719241,0.24312158460173608,0.29494928258694064,0.45028854827481785,0.24752877156737482,0.3715419550403536,0.2972036315112687,0.20887363292778274,0.31174471534838105,0.27321853615205494,0.1985701676549832,0.2872012028552105
1.0,0.0,1.0,0.0,4.0,0.0,4.0,0.0,,,,left,1.127631500014104,81.15589049994014,zu11,81.15589049994014,,76.22721509996336,78.24167449993547,True,1.0,['p'],True,0.4444444444444445,0.6666666666666666,0.3333333333333333,1.0,1.0,0.9656336071428248,0.1689814814814814,succ_gain,0.0,2.0,78.24167449993547,,zu11,1,2023-03-28_11h13.54.028,threat_forest,2021.2.3,60.03842457677967,True,57.0,0.4583333333333333,0.4375,-1.34375,-1.359375,1,1,1.0,0.1201194153182395,0.1689814814814814,1.0,0.4444444444444445,0.6666666666666666,0.3333333333333333,0.0,0.0,1.0,1.0,1.0,1.0,-1.0,1.0,1,1,1,1,0.625,0.597780711322595,0.24043893249324738,0.29135005866526953,0.5986409606933494,0.24026996087349312,0.32143836457015323,0.9555550095567019,0.04246963326779318,0.20678795646348969,0.49668711948004257,0.2499890248226605,0.32658931759251786,0.5735418850550255,0.24459159114255344,0.3185074528072249,0.7023147589794394,0.2090687382990913,0.26868143042484344,0.5356299415131895,0.24873050726776672,0.3108813393857002,0.6172432032770754,0.2362540312853304,0.24931918524948204,0.6289281902376961,0.2333775217620325,0.1718288389848599,0.9857025601968895,0.01409302301818684,0.06830827211637956,0.9098520213622826,0.08202132058525112,0.11828724832933864
1.0,0.0,1.0,0.0,5.0,0.0,5.0,0.0,,,,left,1.159425799967721,84.96900849998929,zu11,84.96900849998929,,76.22721509996336,78.24167449993547,True,2.0,['p'],True,0.4444444444444445,0.6666666666666666,0.3333333333333333,1.0,1.0,0.9656336071428248,0.1284722222222222,succ_gain,0.0,3.0,84.31936850002967,,zu11,1,2023-03-28_11h13.54.028,threat_forest,2021.2.3,60.03842457677967,True,57.0,0.4583333333333333,0.4375,-1.34375,-1.359375,1,1,1.0,0.1479248825374887,0.1284722222222222,0.4444444444444445,0.4444444444444445,0.6666666666666666,0.3333333333333333,0.0,0.0,2.0,2.0,1.0,1.0,1.0,2.0,0,1,1,1,0.1284722222222222,0.241370587319334,0.1831108268964538,0.1873936079775924,0.5986409606933494,0.24026996087349312,0.32143836457015323,0.4701753608165332,0.24911049089757598,0.2861368479636375,0.49668711948004257,0.2499890248226605,0.32658931759251786,0.5735418850550255,0.24459159114255344,0.3185074528072249,0.7023147589794394,0.2090687382990913,0.26868143042484344,0.5356299415131895,0.24873050726776672,0.3108813393857002,0.6172432032770754,0.2362540312853304,0.24931918524948204,0.6289281902376961,0.2333775217620325,0.1718288389848599,0.6792330239717947,0.217875523117926,0.32299526093025704,0.8422459202818696,0.13286773005041616,0.1919788232538343
1.0,0.0,1.0,0.0,7.0,0.0,7.0,0.0,,,,left,0.8054065000033006,98.87268120003864,zu11,94.26027029997203,96.27482279995456,98.87268120003864,,False,2.0,['p'],False,0.1875,0.25,0.25,2.0,1.0,0.895754137500101,-0.8125,wait_cost,1.0,1.0,96.27482279995456,,zu11,1,2023-03-28_11h13.54.028,threat_forest,2021.2.3,60.03842457677967,False,57.0,0.4583333333333333,0.4375,-1.34375,-1.359375,0,0,0.0,-0.2164081600692884,-0.8125,0.0,0.1875,0.25,0.25,-1.0,-0.6875,1.3125,1.3125,0.0,1.0,-1.0,2.0,0,0,0,0,-0.84,0.597780711322595,0.24043893249324738,0.29135005866526953,0.027772652278844446,0.02700133206424285,-0.10134498536475836,0.4701753608165332,0.24911049089757598,0.2861368479636375,0.5698320356203388,0.24512348680111978,0.23206409359790126,0.5535614173017636,0.24713117457662634,0.2759805681883023,0.4049654001162774,0.2409684248249408,0.2766595931205758,0.4704780994372427,0.2491284573871626,0.3197113608145523,0.4170637871719241,0.24312158460173608,0.29494928258694064,0.45028854827481785,0.24752877156737482,0.3715419550403536,0.11545724746841814,0.10212687147543457,0.1783328118403494,2.011157500230748e-06,2.011153455476259e-06,-0.0005831330766366945
2.0,0.0,2.0,0.0,0.0,0.0,0.0,0.0,104.69182369997723,108.1971152999904,,left,1.1584330999758097,111.09696779993828,zu11,104.69182369997723,108.1971152999904,111.09696779993828,,False,4.0,['p'],False,0.18,0.2,0.1,1.0,2.0,0.7058405977926203,-0.0041239600981238,wait_cost,1.0,3.0,,,zu11,1,2023-03-28_11h13.54.028,threat_forest,2021.2.3,60.03842457677967,False,41.0,0.4333333333333333,0.4458333333333333,-0.9677777777777778,-1.155763888888889,0,0,0.0,0.1470683161152346,-0.0041239600981238,0.18,0.18,0.2,0.1,-0.5000000000000002,-0.3800000000000001,3.62,3.62,0.0,2.0,-1.0,4.0,0,1,0,0,-0.0041239600981238,0.597780711322595,0.24043893249324738,0.29135005866526953,0.5986409606933494,0.24026996087349312,0.32143836457015323,0.4701753608165332,0.24911049089757598,0.2861368479636375,0.5698320356203388,0.24512348680111978,0.23206409359790126,0.517200253433937,0.2497041512818083,0.23289449273183926,0.36958502458428605,0.23299193418731867,0.274664660035689,0.5030670398187025,0.24999059326675055,0.33884109069853796,0.4113080241287576,0.24213373341605499,0.28838570110736583,0.45028854827481785,0.24752877156737482,0.3715419550403536,0.28747676296839286,0.20483387372160733,0.3066958318218251,0.3990699061869769,0.2398131161628943,0.3469745056714113
2.0,0.0,2.0,0.0,1.0,0.0,1.0,0.0,,,,left,0.8958352999761701,116.30683969997337,zu11,104.69182369997723,108.1971152999904,116.30683969997337,,False,3.0,['p'],False,0.18,0.2,0.1,1.0,2.0,0.7058405977926203,0.0098185922261646,wait_cost,1.0,2.0,114.29135960002895,,zu11,1,2023-03-28_11h13.54.028,threat_forest,2021.2.3,60.03842457677967,False,41.0,0.4333333333333333,0.4458333333333333,-0.9677777777777778,-1.155763888888889,0,0,0.0,-0.1099986998945018,0.0098185922261646,0.18,0.18,0.2,0.1,-0.5000000000000002,-0.3800000000000001,2.62,2.62,0.0,2.0,-1.0,3.0,0,1,0,0,0.0098185922261646,0.597780711322595,0.24043893249324738,0.29135005866526953,0.5986409606933494,0.24026996087349312,0.32143836457015323,0.4701753608165332,0.24911049089757598,0.2861368479636375,0.5698320356203388,0.24512348680111978,0.23206409359790126,0.517200253433937,0.2497041512818083,0.23289449273183926,0.36958502458428605,0.23299193418731867,0.274664660035689,0.5030670398187025,0.24999059326675055,0.33884109069853796,0.4113080241287576,0.24213373341605499,0.28838570110736583,0.45028854827481785,0.24752877156737482,0.3715419550403536,0.28747676296839286,0.20483387372160733,0.3066958318218251,0.45260056175004626,0.24775329325358883,0.3584821846038549
2.0,0.0,2.0,0.0,2.0,0.0,2.0,0.0,,,,left,0.969834199990146,122.7170819999883,zu11,122.7170819999883,,117.22231979994103,119.2367686999496,True,2.0,['p'],True,0.4444444444444445,0.6666666666666666,0.3333333333333333,1.0,2.0,0.9656336071428248,0.0883836365594675,unsucc_cost,0.0,0.0,119.2367686999496,,zu11,1,2023-03-28_11h13.54.028,threat_forest,2021.2.3,60.03842457677967,True,41.0,0.4333333333333333,0.4458333333333333,-0.9677777777777778,-1.155763888888889,1,0,1.0,-0.0306301499397478,0.0883836365594675,0.4444444444444445,0.4444444444444445,0.6666666666666666,0.3333333333333333,0.6666666666666665,0.4444444444444444,2.4444444444444446,2.4444444444444446,1.0,2.0,-1.0,2.0,0,1,0,1,0.0883836365594675,0.597780711322595,0.24043893249324738,0.29135005866526953,0.5986409606933494,0.24026996087349312,0.32143836457015323,0.4701753608165332,0.24911049089757598,0.2861368479636375,0.49668711948004257,0.2499890248226605,0.32658931759251786,0.5735418850550255,0.24459159114255344,0.3185074528072249,0.7023147589794394,0.2090687382990913,0.26868143042484344,0.5785327247493209,0.2438326111434474,0.20220307639213342,0.6172432032770754,0.2362540312853304,0.24931918524948204,0.6289281902376961,0.2333775217620325,0.1718288389848599,0.6792330239717947,0.217875523117926,0.32299526093025704,0.7397852678724076,0.19250302531135768,0.2784081085286747
3.0,0.0,3.0,0.0,0.0,0.0,0.0,0.0,129.3353245999897,132.84163519996218,,right,2.520524699939415,135.45756100001745,zu11,135.45756100001745,,129.3353245999897,132.84163519996218,False,5.0,['r'],True,0.3061224489795918,0.4285714285714285,0.2857142857142857,2.0,1.0,0.9885754083994552,-0.0051042852935925,wait_cost,0.0,4.0,,,zu11,1,2023-03-28_11h13.54.028,threat_forest,2021.2.3,60.03842457677967,False,36.0,0.4142857142857142,0.4238095238095238,-1.083673469387755,-1.0257256235827663,0,0,0.0,0.9244670941114236,-0.0051042852935925,0.3061224489795918,0.3061224489795918,0.4285714285714285,0.2857142857142857,-0.5714285714285716,-0.3673469387755101,4.63265306122449,4.63265306122449,1.0,1.0,-1.0,5.0,0,1,0,0,-0.0051042852935925,0.597780711322595,0.24043893249324738,0.29135005866526953,0.5986409606933494,0.24026996087349312,0.32143836457015323,0.4701753608165332,0.24911049089757598,0.2861368479636375,0.49668711948004257,0.2499890248226605,0.32658931759251786,0.5621495636267105,0.24613743174100944,0.2926214024070797,0.5369242017857379,0.24863660332248608,0.2785774168453876,0.498406604122318,0.249997461089577,0.33899347920094325,0.5100881422993033,0.24989822938494902,0.3399753561873746,0.45028854827481785,0.24752877156737482,0.3715419550403536,0.47079508765814326,0.24914707309510445,0.3620783858076736,0.39538008997934065,0.23905467442726916,0.34587529794810146
3.0,0.0,3.0,0.0,1.0,0.0,1.0,0.0,,,,left,1.2316472000675276,142.03269040002488,zu11,142.03269040002488,,129.3353245999897,132.84163519996218,True,4.0,['r'],True,0.3061224489795918,0.4285714285714285,0.2857142857142857,2.0,1.0,0.9885754083994552,0.0131354906297295,succ_gain,0.0,5.0,140.01738350000232,,zu11,1,2023-03-28_11h13.54.028,threat_forest,2021.2.3,60.03842457677967,True,36.0,0.4142857142857142,0.4238095238095238,-1.083673469387755,-1.0257256235827663,0,0,1.0,0.208352460519896,0.0131354906297295,0.3061224489795918,0.3061224489795918,0.4285714285714285,0.2857142857142857,-0.5714285714285716,-0.3673469387755101,3.63265306122449,3.63265306122449,1.0,1.0,-1.0,4.0,0,1,0,0,0.0131354906297295,0.597780711322595,0.24043893249324738,0.29135005866526953,0.5986409606933494,0.24026996087349312,0.32143836457015323,0.4701753608165332,0.24911049089757598,0.2861368479636375,0.49668711948004257,0.2499890248226605,0.32658931759251786,0.5621495636267105,0.24613743174100944,0.2926214024070797,0.5369242017857379,0.24863660332248608,0.2785774168453876,0.498406604122318,0.249997461089577,0.33899347920094325,0.5100881422993033,0.24989822938494902,0.3399753561873746,0.45028854827481785,0.24752877156737482,0.3715419550403536,0.47079508765814326,0.24914707309510445,0.3620783858076736,0.4655476716366627,0.24881303707034477,0.3600180686848487
3.0,0.0,3.0,0.0,2.0,0.0,2.0,0.0,,,,left,1.4957165999803692,146.12871980003547,zu11,143.28144309995696,145.2957660999382,146.12871980003547,,False,5.0,['r'],False,0.4,0.4,0.0,0.0,1.0,0.6126016192893442,0.0924299156813913,wait_cost,1.0,4.0,145.2957660999382,,zu11,1,2023-03-28_11h13.54.028,threat_forest,2021.2.3,60.03842457677967,False,36.0,0.4142857142857142,0.4238095238095238,-1.083673469387755,-1.0257256235827663,1,0,0.0,0.4026054230907474,0.0924299156813913,0.4,0.4,0.4,0.0,0.2,0.2,5.2,5.2,0.0,1.0,1.0,5.0,0,1,0,1,0.0924299156813913,0.241370587319334,0.1831108268964538,0.1873936079775924,0.5986409606933494,0.24026996087349312,0.32143836457015323,0.4701753608165332,0.24911049089757598,0.2861368479636375,0.5698320356203388,0.24512348680111978,0.23206409359790126,0.4928337510821613,0.24994864487644758,0.2288002973020733,0.515675042879907,0.24975429303071303,0.278856952831685,0.5485859830896131,0.24763940224721584,0.286671067185714,0.5835315612225312,0.2430224782797265,0.2942907902663565,0.6289281902376961,0.2333775217620325,0.1718288389848599,0.6157641218212568,0.23659866809895325,0.3463954126312597,0.7518417495462872,0.1865757331854651,0.26981769877528133
3.0,0.0,3.0,0.0,3.0,0.0,3.0,0.0,,,,right,0.8230673000216484,152.78914110001642,zu11,143.28144309995696,145.2957660999382,152.78914110001642,,True,4.0,['r'],False,0.4,0.4,0.0,0.0,1.0,0.6126016192893442,0.0843454623498712,unsucc_cost,1.0,2.0,149.65849269996397,,zu11,1,2023-03-28_11h13.54.028,threat_forest,2021.2.3,60.03842457677967,True,36.0,0.4142857142857142,0.4238095238095238,-1.083673469387755,-1.0257256235827663,1,0,1.0,-0.1947173076245063,0.0843454623498712,0.4,0.4,0.4,0.0,0.2,0.2,4.2,4.2,0.0,1.0,-1.0,4.0,0,1,0,1,0.0843454623498712,0.597780711322595,0.24043893249324738,0.29135005866526953,0.5986409606933494,0.24026996087349312,0.32143836457015323,0.4701753608165332,0.24911049089757598,0.2861368479636375,0.5698320356203388,0.24512348680111978,0.23206409359790126,0.4928337510821613,0.24994864487644758,0.2288002973020733,0.515675042879907,0.24975429303071303,0.278856952831685,0.5485859830896131,0.24763940224721584,0.286671067185714,0.5835315612225312,0.2430224782797265,0.2942907902663565,0.6289281902376961,0.2333775217620325,0.1718288389848599,0.6157641218212568,0.23659866809895325,0.3463954126312597,0.7273807151324256,0.19829801038586667,0.2868067660011769
3.0,0.0,3.0,0.0,4.0,0.0,4.0,0.0,,,,left,2.481798100052401,157.45387069997378,zu11,157.45387069997378,,153.6383495000191,155.65277569997124,True,2.0,['r'],True,0.3061224489795918,0.4285714285714285,0.2857142857142857,2.0,1.0,0.9885754083994552,0.0296227337248934,figh_cost,0.0,0.0,155.65277569997124,,zu11,1,2023-03-28_11h13.54.028,threat_forest,2021.2.3,60.03842457677967,True,36.0,0.4142857142857142,0.4238095238095238,-1.083673469387755,-1.0257256235827663,0,0,1.0,0.9089833378058292,0.0296227337248934,0.3061224489795918,0.3061224489795918,0.4285714285714285,0.2857142857142857,-0.5714285714285716,-0.3673469387755101,1.6326530612244898,1.6326530612244898,1.0,1.0,-1.0,2.0,0,1,0,0,0.0296227337248934,0.597780711322595,0.24043893249324738,0.29135005866526953,0.5986409606933494,0.24026996087349312,0.32143836457015323,0.4701753608165332,0.24911049089757598,0.2861368479636375,0.49668711948004257,0.2499890248226605,0.32658931759251786,0.5621495636267105,0.24613743174100944,0.2926214024070797,0.5369242017857379,0.24863660332248608,0.2785774168453876,0.498406604122318,0.249997461089577,0.33899347920094325,0.5100881422993033,0.24989822938494902,0.3399753561873746,0.45028854827481785,0.24752877156737482,0.3715419550403536,0.47079508765814326,0.24914707309510445,0.3620783858076736,0.5302497709003721,0.24908495136047495,0.36041215339004107
4.0,0.0,4.0,0.0,0.0,0.0,0.0,0.0,165.5893567999592,169.08745739993174,,left,2.0703488000435755,170.85662560001947,zu11,170.85662560001947,,165.5893567999592,169.08745739993174,True,5.0,['p'],True,0.2222222222222222,0.3333333333333333,0.3333333333333333,2.0,2.0,0.9656336071428248,0.0018803614496756,unsucc_cost,0.0,3.0,,,zu11,1,2023-03-28_11h13.54.028,threat_forest,2021.2.3,60.03842457677967,True,63.0,0.2666666666666666,0.3404761904761905,-1.5022222222222226,-1.2929478458049888,0,0,1.0,0.7277170955188466,0.0018803614496756,0.2222222222222222,0.2222222222222222,0.3333333333333333,0.3333333333333333,-0.666666666666667,-0.4444444444444446,4.555555555555555,4.555555555555555,1.0,2.0,-1.0,5.0,0,1,0,0,0.0018803614496756,0.597780711322595,0.24043893249324738,0.29135005866526953,0.5986409606933494,0.24026996087349312,0.32143836457015323,0.4701753608165332,0.24911049089757598,0.2861368479636375,0.49668711948004257,0.2499890248226605,0.32658931759251786,0.5735418850550255,0.24459159114255344,0.3185074528072249,0.46600618721855297,0.24884442069257995,0.2786293923025215,0.4921932604532732,0.24993905481764955,0.33769751619562616,0.4439826513656237,0.2468620566519747,0.3198021080222675,0.45028854827481785,0.24752877156737482,0.3715419550403536,0.34457759750610834,0.22584387680302676,0.33295409451444113,0.4219055791611343,0.24390126143384208,0.35289944445676774
4.0,0.0,4.0,0.0,1.0,0.0,1.0,0.0,,,,left,2.207919700071216,177.2523067999864,zu11,172.9536476000212,174.96809370000847,177.2523067999864,,False,3.0,['p'],False,0.16,0.2,0.2,2.0,2.0,0.8198746470064713,0.0173973197132958,wait_cost,1.0,2.0,174.96809370000847,,zu11,1,2023-03-28_11h13.54.028,threat_forest,2021.2.3,60.03842457677967,False,63.0,0.2666666666666666,0.3404761904761905,-1.5022222222222226,-1.2929478458049888,0,0,0.0,0.7920507600321577,0.0173973197132958,0.16,0.16,0.2,0.2,-0.8000000000000003,-0.5600000000000003,2.4399999999999995,2.4399999999999995,0.0,2.0,-1.0,3.0,0,1,0,0,0.0173973197132958,0.597780711322595,0.24043893249324738,0.29135005866526953,0.5986409606933494,0.24026996087349312,0.32143836457015323,0.4701753608165332,0.24911049089757598,0.2861368479636375,0.5698320356203388,0.24512348680111978,0.23206409359790126,0.5414852346830676,0.24827897530329077,0.25675993994924884,0.36958502458428605,0.23299193418731867,0.274664660035689,0.4834990585823409,0.24972771893233092,0.3330082340341294,0.39608140323452357,0.23920092524629427,0.2688992383028346,0.45028854827481785,0.24752877156737482,0.3715419550403536,0.26249140835264567,0.1935896688936903,0.29264284558489595,0.4822491587331828,0.24968490763432022,0.3612816685273052
4.0,0.0,4.0,0.0,2.0,0.0,2.0,0.0,,,,left,0.974855500040576,182.5949293000158,zu11,182.5949293000158,,179.4809536000248,181.495349099976,True,2.0,['p'],True,0.2222222222222222,0.3333333333333333,0.3333333333333333,2.0,2.0,0.9656336071428248,0.0143818200071127,unsucc_cost,0.0,0.0,181.495349099976,,zu11,1,2023-03-28_11h13.54.028,threat_forest,2021.2.3,60.03842457677967,True,63.0,0.2666666666666666,0.3404761904761905,-1.5022222222222226,-1.2929478458049888,0,0,1.0,-0.0254660240543376,0.0143818200071127,0.2222222222222222,0.2222222222222222,0.3333333333333333,0.3333333333333333,-0.666666666666667,-0.4444444444444446,1.5555555555555554,1.5555555555555554,1.0,2.0,-1.0,2.0,0,1,0,0,0.0143818200071127,0.597780711322595,0.24043893249324738,0.29135005866526953,0.5986409606933494,0.24026996087349312,0.32143836457015323,0.4701753608165332,0.24911049089757598,0.2861368479636375,0.49668711948004257,0.2499890248226605,0.32658931759251786,0.5735418850550255,0.24459159114255344,0.3185074528072249,0.46600618721855297,0.24884442069257995,0.2786293923025215,0.4921932604532732,0.24993905481764955,0.33769751619562616,0.4439826513656237,0.2468620566519747,0.3198021080222675,0.45028854827481785,0.24752877156737482,0.3715419550403536,0.34457759750610834,0.22584387680302676,0.33295409451444113,0.4704255446741217,0.2491253515921776,0.3604707053454849
5.0,0.0,5.0,0.0,0.0,0.0,0.0,0.0,188.3993665999733,191.9023070000112,,left,2.553289800067432,193.48468430002688,zu11,193.48468430002688,,188.3993665999733,191.9023070000112,True,4.0,['p'],True,0.32,0.4,0.2,1.0,1.0,0.9455672104350704,0.0197775730914855,unsucc_cost,0.0,2.0,,,zu11,1,2023-03-28_11h13.54.028,threat_forest,2021.2.3,60.03842457677967,True,48.0,0.3111111111111111,0.2888888888888888,-1.3792592592592592,-1.4407407407407409,1,1,1.0,0.9373826453570988,0.0197775730914855,0.32,0.32,0.4,0.2,-0.3999999999999999,-0.24,3.76,3.76,1.0,1.0,-1.0,4.0,0,1,1,1,0.0197775730914855,0.597780711322595,0.24043893249324738,0.29135005866526953,0.5986409606933494,0.24026996087349312,0.32143836457015323,0.4701753608165332,0.24911049089757598,0.2861368479636375,0.49668711948004257,0.2499890248226605,0.32658931759251786,0.5414852346830676,0.24827897530329077,0.25675993994924884,0.515675042879907,0.24975429303071303,0.278856952831685,0.5095905732339555,0.2499080209050442,0.3370089120214592,0.5210505539566394,0.24955687417811862,0.33770728914854864,0.6289281902376961,0.2333775217620325,0.1718288389848599,0.49251350083848483,0.2499439523303047,0.36307432399059963,0.49159672421809375,0.24992938495613326,0.36163598890247484
5.0,0.0,5.0,0.0,2.0,0.0,2.0,0.0,,,,left,1.02113620005548,207.60477580002043,zu11,207.60477580002043,,204.1079472999554,206.1224052000325,True,1.0,['p'],True,0.32,0.4,0.2,1.0,1.0,0.9455672104350704,0.0285015095094041,figh_cost,0.0,0.0,206.1224052000325,,zu11,1,2023-03-28_11h13.54.028,threat_forest,2021.2.3,60.03842457677967,True,48.0,0.3111111111111111,0.2888888888888888,-1.3792592592592592,-1.4407407407407409,1,1,1.0,0.0209159289688495,0.0285015095094041,1.0,0.32,0.4,0.2,-0.3999999999999999,-0.24,0.76,1.0,1.0,1.0,-1.0,1.0,1,1,1,1,0.625,0.597780711322595,0.24043893249324738,0.29135005866526953,0.5986409606933494,0.24026996087349312,0.32143836457015323,0.9555550095567019,0.04246963326779318,0.20678795646348969,0.49668711948004257,0.2499890248226605,0.32658931759251786,0.5414852346830676,0.24827897530329077,0.25675993994924884,0.515675042879907,0.24975429303071303,0.278856952831685,0.5095905732339555,0.2499080209050442,0.3370089120214592,0.5210505539566394,0.24955687417811862,0.33770728914854864,0.6289281902376961,0.2333775217620325,0.1718288389848599,0.9857025601968895,0.01409302301818684,0.06830827211637956,0.5258573342416145,0.2493313982659174,0.36076932827787195
6.0,0.0,6.0,0.0,0.0,0.0,0.0,0.0,212.8089470999548,216.31289359997027,,left,1.926938500022516,219.9604036000092,zu11,219.9604036000092,,212.8089470999548,216.31289359997027,True,5.0,['r'],True,0.3333333333333333,0.3333333333333333,0.0,0.0,2.0,0.5793801642856949,0.0388172421765338,unsucc_cost,0.0,3.0,,,zu11,1,2023-03-28_11h13.54.028,threat_forest,2021.2.3,60.03842457677967,True,10.0,0.3541666666666666,0.3326388888888889,-0.8958333333333335,-1.1375462962962963,1,1,1.0,0.6559324740410062,0.0388172421765338,0.3333333333333333,0.3333333333333333,0.3333333333333333,0.0,0.3333333333333331,0.3333333333333331,5.333333333333333,5.333333333333333,1.0,2.0,-1.0,5.0,0,1,1,1,0.0388172421765338,0.597780711322595,0.24043893249324738,0.29135005866526953,0.5986409606933494,0.24026996087349312,0.32143836457015323,0.4701753608165332,0.24911049089757598,0.2861368479636375,0.49668711948004257,0.2499890248226605,0.32658931759251786,0.4928337510821613,0.24994864487644758,0.2288002973020733,0.46600618721855297,0.24884442069257995,0.2786293923025215,0.5571879887873922,0.24672953393845312,0.26648221367813374,0.5315641344758063,0.2490037054147932,0.3340318689003676,0.6289281902376961,0.2333775217620325,0.1718288389848599,0.5134078751017676,0.24982022888525543,0.3629196946595734,0.5660326006189867,0.2456396956554934,0.3554189528555642
6.0,0.0,6.0,0.0,1.0,0.0,1.0,0.0,,,,left,0.8607023000949994,226.35388750000857,zu11,226.35388750000857,,212.8089470999548,216.31289359997027,True,3.0,['r'],True,0.3333333333333333,0.3333333333333333,0.0,0.0,2.0,0.5793801642856949,0.1051879490716752,succ_gain,0.0,5.0,223.922789299977,,zu11,1,2023-03-28_11h13.54.028,threat_forest,2021.2.3,60.03842457677967,True,10.0,0.3541666666666666,0.3326388888888889,-0.8958333333333335,-1.1375462962962963,1,1,1.0,-0.1500065949763817,0.1051879490716752,0.3333333333333333,0.3333333333333333,0.3333333333333333,0.0,0.3333333333333331,0.3333333333333331,3.333333333333333,3.333333333333333,1.0,2.0,-1.0,3.0,0,1,1,1,0.1051879490716752,0.597780711322595,0.24043893249324738,0.29135005866526953,0.5986409606933494,0.24026996087349312,0.32143836457015323,0.4701753608165332,0.24911049089757598,0.2861368479636375,0.49668711948004257,0.2499890248226605,0.32658931759251786,0.4928337510821613,0.24994864487644758,0.2288002973020733,0.46600618721855297,0.24884442069257995,0.2786293923025215,0.5571879887873922,0.24672953393845312,0.26648221367813374,0.5315641344758063,0.2490037054147932,0.3340318689003676,0.6289281902376961,0.2333775217620325,0.1718288389848599,0.5134078751017676,0.24982022888525543,0.3629196946595734,0.787347797682216,0.16743124316718033,0.2420716369507935
6.0,0.0,6.0,0.0,2.0,0.0,2.0,0.0,,,,left,2.540475100046024,232.11908129998483,zu11,227.2389479000121,229.25089769996703,232.11908129998483,,False,5.0,['r'],False,0.28125,0.375,0.25,2.0,2.0,0.9634951148421658,-0.0090943703910818,wait_cost,1.0,4.0,229.25089769996703,,zu11,1,2023-03-28_11h13.54.028,threat_forest,2021.2.3,60.03842457677967,False,10.0,0.3541666666666666,0.3326388888888889,-0.8958333333333335,-1.1375462962962963,1,0,0.0,0.9323511108015012,-0.0090943703910818,0.28125,0.28125,0.375,0.25,-0.25,-0.125,4.875,4.875,0.0,2.0,1.0,5.0,0,1,0,1,-0.0090943703910818,0.241370587319334,0.1831108268964538,0.1873936079775924,0.5986409606933494,0.24026996087349312,0.32143836457015323,0.4701753608165332,0.24911049089757598,0.2861368479636375,0.5698320356203388,0.24512348680111978,0.23206409359790126,0.5535614173017636,0.24713117457662634,0.2759805681883023,0.49703277236399945,0.24999119556015614,0.2789162025337595,0.5193690593374709,0.24962483954038156,0.33072546744800757,0.490423117258991,0.24990828331696502,0.3400421575466619,0.6289281902376961,0.2333775217620325,0.1718288389848599,0.43219793447166577,0.2454028799100914,0.3573989001434891,0.380488447691949,0.23571698886492,0.34103799855411443
6.0,0.0,6.0,0.0,3.0,0.0,3.0,0.0,,,,left,2.36681190005038,240.0077994000167,zu11,227.2389479000121,229.25089769996703,240.0077994000167,,False,4.0,['r'],False,0.28125,0.375,0.25,2.0,2.0,0.9634951148421658,-0.0133382655956126,wait_cost,1.0,3.0,236.6938446999993,,zu11,1,2023-03-28_11h13.54.028,threat_forest,2021.2.3,60.03842457677967,False,10.0,0.3541666666666666,0.3326388888888889,-0.8958333333333335,-1.1375462962962963,1,0,0.0,0.861543859714801,-0.0133382655956126,0.28125,0.28125,0.375,0.25,-0.25,-0.125,3.875,3.875,0.0,2.0,-1.0,4.0,0,1,0,1,-0.0133382655956126,0.597780711322595,0.24043893249324738,0.29135005866526953,0.5986409606933494,0.24026996087349312,0.32143836457015323,0.4701753608165332,0.24911049089757598,0.2861368479636375,0.5698320356203388,0.24512348680111978,0.23206409359790126,0.5535614173017636,0.24713117457662634,0.2759805681883023,0.49703277236399945,0.24999119556015614,0.2789162025337595,0.5193690593374709,0.24962483954038156,0.33072546744800757,0.490423117258991,0.24990828331696502,0.3400421575466619,0.6289281902376961,0.2333775217620325,0.1718288389848599,0.43219793447166577,0.2454028799100914,0.3573989001434891,0.3648932070293058,0.23174615449317398,0.3352830781635457
6.0,0.0,6.0,0.0,4.0,0.0,4.0,0.0,,,,right,1.302735900040716,246.2186923000263,zu11,227.2389479000121,229.25089769996703,246.2186923000263,,True,3.0,['r'],False,0.28125,0.375,0.25,2.0,2.0,0.9634951148421658,0.10498046875,unsucc_cost,1.0,1.0,244.42003509996,,zu11,1,2023-03-28_11h13.54.028,threat_forest,2021.2.3,60.03842457677967,True,10.0,0.3541666666666666,0.3326388888888889,-0.8958333333333335,-1.1375462962962963,1,0,1.0,0.2644665915213776,0.10498046875,0.28125,0.28125,0.375,0.25,-0.25,-0.125,2.875,2.875,0.0,2.0,-1.0,3.0,0,1,0,1,0.10498046875,0.597780711322595,0.24043893249324738,0.29135005866526953,0.5986409606933494,0.24026996087349312,0.32143836457015323,0.4701753608165332,0.24911049089757598,0.2861368479636375,0.5698320356203388,0.24512348680111978,0.23206409359790126,0.5535614173017636,0.24713117457662634,0.2759805681883023,0.49703277236399945,0.24999119556015614,0.2789162025337595,0.5193690593374709,0.24962483954038156,0.33072546744800757,0.490423117258991,0.24990828331696502,0.3400421575466619,0.6289281902376961,0.2333775217620325,0.1718288389848599,0.43219793447166577,0.2454028799100914,0.3573989001434891,0.7868012029718908,0.16774506997387634,0.24252646536212505
6.0,0.0,6.0,0.0,5.0,0.0,5.0,0.0,,,,left,1.1067744001047686,251.9965456000064,zu11,251.9965456000064,,247.55075890000444,249.56517199997324,True,1.0,['r'],True,0.3333333333333333,0.3333333333333333,0.0,0.0,2.0,0.5793801642856949,0.3333333333333332,succ_gain,0.0,3.0,249.56517199997324,,zu11,1,2023-03-28_11h13.54.028,threat_forest,2021.2.3,60.03842457677967,True,10.0,0.3541666666666666,0.3326388888888889,-0.8958333333333335,-1.1375462962962963,1,1,1.0,0.1014498390143939,0.3333333333333332,1.0,0.3333333333333333,0.3333333333333333,0.0,0.3333333333333331,0.3333333333333331,1.333333333333333,1.333333333333333,1.0,2.0,-1.0,1.0,1,1,1,1,0.625,0.597780711322595,0.24043893249324738,0.29135005866526953,0.5986409606933494,0.24026996087349312,0.32143836457015323,0.9555550095567019,0.04246963326779318,0.20678795646348969,0.49668711948004257,0.2499890248226605,0.32658931759251786,0.4928337510821613,0.24994864487644758,0.2288002973020733,0.46600618721855297,0.24884442069257995,0.2786293923025215,0.5571879887873922,0.24672953393845312,0.26648221367813374,0.5315641344758063,0.2490037054147932,0.3340318689003676,0.6289281902376961,0.2333775217620325,0.1718288389848599,0.9857025601968895,0.01409302301818684,0.06830827211637956,0.9925746086874366,0.007370254876418736,0.010095644246758908
6.0,0.0,6.0,0.0,6.0,0.0,6.0,0.0,,,,left,0.8292384999804199,255.9289565000217,zu11,253.12880409997888,255.1452579000033,255.9289565000217,,False,3.0,['r'],False,0.28125,0.375,0.25,2.0,2.0,0.9634951148421658,-0.57470703125,wait_cost,1.0,2.0,255.1452579000033,,zu11,1,2023-03-28_11h13.54.028,threat_forest,2021.2.3,60.03842457677967,False,10.0,0.3541666666666666,0.3326388888888889,-0.8958333333333335,-1.1375462962962963,1,0,0.0,-0.1872474692277179,-0.57470703125,0.0,0.28125,0.375,0.25,-0.25,-0.125,2.875,2.875,0.0,2.0,1.0,3.0,0,0,0,1,-0.84,0.241370587319334,0.1831108268964538,0.1873936079775924,0.027772652278844446,0.02700133206424285,-0.10134498536475836,0.4701753608165332,0.24911049089757598,0.2861368479636375,0.5698320356203388,0.24512348680111978,0.23206409359790126,0.5535614173017636,0.24713117457662634,0.2759805681883023,0.49703277236399945,0.24999119556015614,0.2789162025337595,0.5193690593374709,0.24962483954038156,0.33072546744800757,0.490423117258991,0.24990828331696502,0.3400421575466619,0.6289281902376961,0.2333775217620325,0.1718288389848599,0.11545724746841814,0.10212687147543457,0.1783328118403494,8.449311880891023e-05,8.448597972178422e-05,-0.00046360251581406184
6.0,0.0,6.0,0.0,7.0,0.0,7.0,0.0,,,,left,0.6939055999973789,262.0538518000394,zu11,253.12880409997888,255.1452579000033,262.0538518000394,,False,2.0,['r'],False,0.28125,0.375,0.25,2.0,2.0,0.9634951148421658,-0.71875,wait_cost,1.0,1.0,258.7898820999544,,zu11,1,2023-03-28_11h13.54.028,threat_forest,2021.2.3,60.03842457677967,False,10.0,0.3541666666666666,0.3326388888888889,-0.8958333333333335,-1.1375462962962963,1,0,0.0,-0.3654193507858396,-0.71875,0.0,0.28125,0.375,0.25,-0.25,-0.125,1.875,1.875,0.0,2.0,-1.0,2.0,0,0,0,1,-0.84,0.597780711322595,0.24043893249324738,0.29135005866526953,0.027772652278844446,0.02700133206424285,-0.10134498536475836,0.4701753608165332,0.24911049089757598,0.2861368479636375,0.5698320356203388,0.24512348680111978,0.23206409359790126,0.5535614173017636,0.24713117457662634,0.2759805681883023,0.49703277236399945,0.24999119556015614,0.2789162025337595,0.5193690593374709,0.24962483954038156,0.33072546744800757,0.490423117258991,0.24990828331696502,0.3400421575466619,0.6289281902376961,0.2333775217620325,0.1718288389848599,0.11545724746841814,0.10212687147543457,0.1783328118403494,8.779581112744115e-06,8.779504031699605e-06,-0.000573323722960606
7.0,0.0,7.0,0.0,0.0,0.0,0.0,0.0,267.1098363000201,270.612317699939,,right,1.4461562000215054,271.894984500017,zu11,267.1098363000201,270.612317699939,271.894984500017,,True,5.0,['p'],False,0.32,0.4,0.2,1.0,2.0,0.9455672104350704,0.02103847866381,unsucc_cost,1.0,3.0,,,zu11,1,2023-03-28_11h13.54.028,threat_forest,2021.2.3,60.03842457677967,True,12.0,0.3111111111111111,0.3326388888888889,-1.1204938271604938,-1.0081635802469138,1,0,1.0,0.3689091400474873,0.02103847866381,0.32,0.32,0.4,0.2,0.0,0.0799999999999999,5.08,5.08,0.0,2.0,-1.0,5.0,0,1,0,1,0.02103847866381,0.597780711322595,0.24043893249324738,0.29135005866526953,0.5986409606933494,0.24026996087349312,0.32143836457015323,0.4701753608165332,0.24911049089757598,0.2861368479636375,0.5698320356203388,0.24512348680111978,0.23206409359790126,0.5414852346830676,0.24827897530329077,0.25675993994924884,0.515675042879907,0.24975429303071303,0.278856952831685,0.5356299415131895,0.24873050726776672,0.3108813393857002,0.5210505539566394,0.24955687417811862,0.33770728914854864,0.6289281902376961,0.2333775217620325,0.1718288389848599,0.49251350083848483,0.2499439523303047,0.36307432399059963,0.49655126254879345,0.24998810620999265,0.36172109346981707
7.0,0.0,7.0,0.0,1.0,0.0,1.0,0.0,,,,right,0.8641592999920249,277.4894398000324,zu11,267.1098363000201,270.612317699939,277.4894398000324,,True,3.0,['p'],False,0.32,0.4,0.2,1.0,2.0,0.9455672104350704,0.0685767383231606,figh_cost,1.0,0.0,275.37468699994497,,zu11,1,2023-03-28_11h13.54.028,threat_forest,2021.2.3,60.03842457677967,True,12.0,0.3111111111111111,0.3326388888888889,-1.1204938271604938,-1.0081635802469138,1,0,1.0,-0.1459981521822915,0.0685767383231606,0.32,0.32,0.4,0.2,0.0,0.0799999999999999,3.08,3.08,0.0,2.0,-1.0,3.0,0,1,0,1,0.0685767383231606,0.597780711322595,0.24043893249324738,0.29135005866526953,0.5986409606933494,0.24026996087349312,0.32143836457015323,0.4701753608165332,0.24911049089757598,0.2861368479636375,0.5698320356203388,0.24512348680111978,0.23206409359790126,0.5414852346830676,0.24827897530329077,0.25675993994924884,0.515675042879907,0.24975429303071303,0.278856952831685,0.5356299415131895,0.24873050726776672,0.3108813393857002,0.5210505539566394,0.24955687417811862,0.33770728914854864,0.6289281902376961,0.2333775217620325,0.1718288389848599,0.49251350083848483,0.2499439523303047,0.36307432399059963,0.675571453875123,0.21917466458417556,0.3170632490687069
8.0,0.0,8.0,0.0,0.0,0.0,0.0,0.0,281.01305619999766,284.5160474999575,,left,1.5098921000026166,285.1324533999432,zu11,285.1324533999432,,281.01305619999766,284.5160474999575,True,4.0,['p'],True,0.4444444444444445,0.6666666666666666,0.3333333333333333,1.0,2.0,0.9656336071428248,0.064046602155505,figh_cost,0.0,1.0,,,zu11,1,2023-03-28_11h13.54.028,threat_forest,2021.2.3,60.03842457677967,True,1.0,0.4833333333333333,0.3972222222222222,-0.7877777777777778,-0.9541358024691358,1,1,1.0,0.4120381913217538,0.064046602155505,0.4444444444444445,0.4444444444444445,0.6666666666666666,0.3333333333333333,0.6666666666666665,0.4444444444444444,4.444444444444445,4.444444444444445,1.0,2.0,-1.0,4.0,0,1,1,1,0.064046602155505,0.597780711322595,0.24043893249324738,0.29135005866526953,0.5986409606933494,0.24026996087349312,0.32143836457015323,0.4701753608165332,0.24911049089757598,0.2861368479636375,0.49668711948004257,0.2499890248226605,0.32658931759251786,0.5735418850550255,0.24459159114255344,0.3185074528072249,0.7023147589794394,0.2090687382990913,0.26868143042484344,0.5785327247493209,0.2438326111434474,0.20220307639213342,0.6172432032770754,0.2362540312853304,0.24931918524948204,0.6289281902376961,0.2333775217620325,0.1718288389848599,0.6792330239717947,0.217875523117926,0.32299526093025704,0.6597726154847069,0.224472711341176,0.3247416950721451
8.0,0.0,8.0,0.0,1.0,0.0,1.0,0.0,,,,right,1.9370821999618784,292.4458486000076,zu11,286.6642131999833,288.6787418000167,292.4458486000076,,True,1.0,['p'],False,0.27,0.3,0.1,1.0,2.0,0.7963326591781347,0.0847047359907922,unsucc_cost,1.0,0.0,288.6787418000167,,zu11,1,2023-03-28_11h13.54.028,threat_forest,2021.2.3,60.03842457677967,True,1.0,0.4833333333333333,0.3972222222222222,-0.7877777777777778,-0.9541358024691358,0,0,1.0,0.6611828202626382,0.0847047359907922,1.0,0.27,0.3,0.1,-0.1,-0.02,0.98,1.0,0.0,2.0,-1.0,1.0,1,1,0,0,0.625,0.597780711322595,0.24043893249324738,0.29135005866526953,0.5986409606933494,0.24026996087349312,0.32143836457015323,0.9555550095567019,0.04246963326779318,0.20678795646348969,0.5698320356203388,0.24512348680111978,0.23206409359790126,0.517200253433937,0.2497041512818083,0.23289449273183926,0.44136148322908364,0.24656152435090695,0.2780584362708188,0.5291327292884793,0.2491512840842042,0.32021785701647065,0.481534556431835,0.2496590273938309,0.33838602595065703,0.45028854827481785,0.24752877156737482,0.3715419550403536,0.9857025601968895,0.01409302301818684,0.06830827211637956,0.7284992007208944,0.1977881152699124,0.28606777627631297
9.0,0.0,9.0,0.0,0.0,0.0,0.0,0.0,299.47551679995377,302.9844795999816,,left,1.534970000036992,303.86525080003776,zu11,299.47551679995377,302.9844795999816,303.86525080003776,,False,4.0,['p'],False,0.2448979591836734,0.2857142857142857,0.1428571428571428,1.0,2.0,0.8400769154957735,0.0036753268254111,wait_cost,1.0,3.0,,,zu11,1,2023-03-28_11h13.54.028,threat_forest,2021.2.3,60.03842457677967,False,42.0,0.3928571428571428,0.4380952380952381,-0.9566326530612244,-0.8722052154195011,0,0,0.0,0.4285108368983326,0.0036753268254111,0.2448979591836734,0.2448979591836734,0.2857142857142857,0.1428571428571428,-0.2857142857142856,-0.1632653061224489,3.836734693877551,3.836734693877551,0.0,2.0,-1.0,4.0,0,1,0,0,0.0036753268254111,0.597780711322595,0.24043893249324738,0.29135005866526953,0.5986409606933494,0.24026996087349312,0.32143836457015323,0.4701753608165332,0.24911049089757598,0.2861368479636375,0.5698320356203388,0.24512348680111978,0.23206409359790126,0.5276247901139938,0.24923687097115776,0.24071938857464303,0.4308801414522412,0.2452224451543378,0.2777235304188743,0.5170419131230141,0.24970957319710768,0.33260560259100647,0.4617519102137842,0.24853708362770555,0.33093149288818235,0.45028854827481785,0.24752877156737482,0.3715419550403536,0.3773535473980074,0.23495784766414718,0.3443447183100079,0.42880232900007426,0.24493089164418627,0.35439168496279766
9.0,0.0,9.0,0.0,1.0,0.0,1.0,0.0,,,,right,2.166176400030963,309.5928352000192,zu11,299.47551679995377,302.9844795999816,309.5928352000192,,True,3.0,['p'],False,0.2448979591836734,0.2857142857142857,0.1428571428571428,1.0,2.0,0.8400769154957735,0.0373646502000353,unsucc_cost,1.0,1.0,307.444533300004,,zu11,1,2023-03-28_11h13.54.028,threat_forest,2021.2.3,60.03842457677967,True,42.0,0.3928571428571428,0.4380952380952381,-0.9566326530612244,-0.8722052154195011,0,0,1.0,0.7729635857202132,0.0373646502000353,0.2448979591836734,0.2448979591836734,0.2857142857142857,0.1428571428571428,-0.2857142857142856,-0.1632653061224489,2.836734693877551,2.836734693877551,0.0,2.0,-1.0,3.0,0,1,0,0,0.0373646502000353,0.597780711322595,0.24043893249324738,0.29135005866526953,0.5986409606933494,0.24026996087349312,0.32143836457015323,0.4701753608165332,0.24911049089757598,0.2861368479636375,0.5698320356203388,0.24512348680111978,0.23206409359790126,0.5276247901139938,0.24923687097115776,0.24071938857464303,0.4308801414522412,0.2452224451543378,0.2777235304188743,0.5170419131230141,0.24970957319710768,0.33260560259100647,0.4617519102137842,0.24853708362770555,0.33093149288818235,0.45028854827481785,0.24752877156737482,0.3715419550403536,0.3773535473980074,0.23495784766414718,0.3443447183100079,0.5604153499088761,0.24634998549538806,0.35644837415601144
9.0,0.0,9.0,0.0,2.0,0.0,2.0,0.0,,,,right,1.785626099910587,315.1713943999493,zu11,299.47551679995377,302.9844795999816,315.1713943999493,,True,1.0,['p'],False,0.2448979591836734,0.2857142857142857,0.1428571428571428,1.0,2.0,0.8400769154957735,0.0944428399033169,unsucc_cost,1.0,0.0,313.8052638999652,,zu11,1,2023-03-28_11h13.54.028,threat_forest,2021.2.3,60.03842457677967,True,42.0,0.3928571428571428,0.4380952380952381,-0.9566326530612244,-0.8722052154195011,0,0,1.0,0.5797691099834386,0.0944428399033169,1.0,0.2448979591836734,0.2857142857142857,0.1428571428571428,-0.2857142857142856,-0.1632653061224489,0.8367346938775511,1.0,0.0,2.0,-1.0,1.0,1,1,0,0,0.625,0.597780711322595,0.24043893249324738,0.29135005866526953,0.5986409606933494,0.24026996087349312,0.32143836457015323,0.9555550095567019,0.04246963326779318,0.20678795646348969,0.5698320356203388,0.24512348680111978,0.23206409359790126,0.5276247901139938,0.24923687097115776,0.24071938857464303,0.4308801414522412,0.2452224451543378,0.2777235304188743,0.5170419131230141,0.24970957319710768,0.33260560259100647,0.4617519102137842,0.24853708362770555,0.33093149288818235,0.45028854827481785,0.24752877156737482,0.3715419550403536,0.9857025601968895,0.01409302301818684,0.06830827211637956,0.7576983375354336,0.18359156683147382,0.2654927538917499
10.0,0.0,10.0,0.0,0.0,0.0,0.0,0.0,322.3736600000411,325.87752300000284,,right,1.8989496999420223,329.5104270000011,zu11,329.5104270000011,,322.3736600000411,325.87752300000284,False,5.0,['p'],True,0.2962962962962963,0.3333333333333333,0.1111111111111111,1.0,1.0,0.8325252476189534,-0.0072014784086608,wait_cost,0.0,4.0,,,zu11,1,2023-03-28_11h13.54.028,threat_forest,2021.2.3,60.03842457677967,False,4.0,0.4666666666666667,0.4297619047619048,-0.9911111111111112,-0.9738718820861678,0,0,0.0,0.6413009438237482,-0.0072014784086608,0.2962962962962963,0.2962962962962963,0.3333333333333333,0.1111111111111111,-0.3333333333333335,-0.2222222222222223,4.777777777777778,4.777777777777778,1.0,1.0,-1.0,5.0,0,1,0,0,-0.0072014784086608,0.597780711322595,0.24043893249324738,0.29135005866526953,0.5986409606933494,0.24026996087349312,0.32143836457015323,0.4701753608165332,0.24911049089757598,0.2861368479636375,0.49668711948004257,0.2499890248226605,0.32658931759251786,0.5199047162972931,0.24960380226912426,0.23457489859162717,0.46600618721855297,0.24884442069257995,0.2786293923025215,0.5139379186971772,0.24980573442239085,0.3347393013599973,0.5023195924033814,0.24999461949108218,0.34061580114973355,0.45028854827481785,0.24752877156737482,0.3715419550403536,0.45547890137637054,0.24801787177734505,0.36066711210534863,0.3875268958726358,0.23734980084795512,0.3434044289048726
10.0,0.0,10.0,0.0,1.0,0.0,1.0,0.0,,,,right,1.2705766999861223,334.2034459999996,zu11,331.4393159999745,333.4536410999717,334.2034459999996,,True,4.0,['p'],False,0.48,0.6,0.2,1.0,1.0,0.9455672104350704,0.0855482011192285,succ_gain,1.0,5.0,333.4536410999717,,zu11,1,2023-03-28_11h13.54.028,threat_forest,2021.2.3,60.03842457677967,True,4.0,0.4666666666666667,0.4297619047619048,-0.9911111111111112,-0.9738718820861678,1,1,1.0,0.2394708918780655,0.0855482011192285,0.48,0.48,0.6,0.2,0.1999999999999998,0.2399999999999997,4.24,4.24,0.0,1.0,-1.0,4.0,0,1,1,1,0.0855482011192285,0.597780711322595,0.24043893249324738,0.29135005866526953,0.5986409606933494,0.24026996087349312,0.32143836457015323,0.4701753608165332,0.24911049089757598,0.2861368479636375,0.5698320356203388,0.24512348680111978,0.23206409359790126,0.5414852346830676,0.24827897530329077,0.25675993994924884,0.6591343388537301,0.22467626219758627,0.27258489715135253,0.5485859830896131,0.24763940224721584,0.286671067185714,0.6434394136390773,0.22942513461487768,0.20394593433698827,0.6289281902376961,0.2333775217620325,0.1718288389848599,0.7257494850992403,0.19903716997742785,0.29945112228627313,0.7311137232111872,0.1965864469434628,0.284326201355991
10.0,0.0,10.0,0.0,2.0,0.0,2.0,0.0,,,,right,1.269952300004661,340.61386429995764,zu11,331.4393159999745,333.4536410999717,340.61386429995764,,True,5.0,['p'],False,0.48,0.6,0.2,1.0,1.0,0.9455672104350704,0.0867185088675958,unsucc_cost,1.0,3.0,337.5164672000101,,zu11,1,2023-03-28_11h13.54.028,threat_forest,2021.2.3,60.03842457677967,True,4.0,0.4666666666666667,0.4297619047619048,-0.9911111111111112,-0.9738718820861678,1,1,1.0,0.2389793407136931,0.0867185088675958,0.48,0.48,0.6,0.2,0.1999999999999998,0.2399999999999997,5.24,5.24,0.0,1.0,1.0,5.0,0,1,1,1,0.0867185088675958,0.241370587319334,0.1831108268964538,0.1873936079775924,0.5986409606933494,0.24026996087349312,0.32143836457015323,0.4701753608165332,0.24911049089757598,0.2861368479636375,0.5698320356203388,0.24512348680111978,0.23206409359790126,0.5414852346830676,0.24827897530329077,0.25675993994924884,0.6591343388537301,0.22467626219758627,0.27258489715135253,0.5485859830896131,0.24763940224721584,0.286671067185714,0.6434394136390773,0.22942513461487768,0.20394593433698827,0.6289281902376961,0.2333775217620325,0.1718288389848599,0.7257494850992403,0.19903716997742785,0.29945112228627313,0.7347148965972446,0.19490891731534474,0.28189496183330226
10.0,0.0,10.0,0.0,3.0,0.0,3.0,0.0,,,,right,2.665811399929225,345.1122367000208,zu11,345.1122367000208,,341.9127049000235,343.92713560000993,False,3.0,['p'],True,0.2962962962962963,0.3333333333333333,0.1111111111111111,1.0,1.0,0.8325252476189534,0.061397140047531,wait_cost,0.0,2.0,343.92713560000993,,zu11,1,2023-03-28_11h13.54.028,threat_forest,2021.2.3,60.03842457677967,False,4.0,0.4666666666666667,0.4297619047619048,-0.9911111111111112,-0.9738718820861678,0,0,0.0,0.9805084765419144,0.061397140047531,0.2962962962962963,0.2962962962962963,0.3333333333333333,0.1111111111111111,-0.3333333333333335,-0.2222222222222223,2.7777777777777777,2.7777777777777777,1.0,1.0,-1.0,3.0,0,1,0,0,0.061397140047531,0.597780711322595,0.24043893249324738,0.29135005866526953,0.5986409606933494,0.24026996087349312,0.32143836457015323,0.4701753608165332,0.24911049089757598,0.2861368479636375,0.49668711948004257,0.2499890248226605,0.32658931759251786,0.5199047162972931,0.24960380226912426,0.23457489859162717,0.46600618721855297,0.24884442069257995,0.2786293923025215,0.5139379186971772,0.24980573442239085,0.3347393013599973,0.5023195924033814,0.24999461949108218,0.34061580114973355,0.45028854827481785,0.24752877156737482,0.3715419550403536,0.45547890137637054,0.24801787177734505,0.36066711210534863,0.6503623286440858,0.22739117012472795,0.3289714101370705
10.0,0.0,10.0,0.0,4.0,0.0,4.0,0.0,,,,right,0.9825774000491948,353.5185689999489,zu11,347.8072468000464,349.8216506999452,353.5185689999489,,True,2.0,['p'],False,0.48,0.6,0.2,1.0,1.0,0.9455672104350704,0.1028391330589849,succ_gain,1.0,3.0,349.8216506999452,,zu11,1,2023-03-28_11h13.54.028,threat_forest,2021.2.3,60.03842457677967,True,4.0,0.4666666666666667,0.4297619047619048,-0.9911111111111112,-0.9738718820861678,1,1,1.0,-0.0175761596655724,0.1028391330589849,0.48,0.48,0.6,0.2,0.1999999999999998,0.2399999999999997,2.24,2.24,0.0,1.0,-1.0,2.0,0,1,1,1,0.1028391330589849,0.597780711322595,0.24043893249324738,0.29135005866526953,0.5986409606933494,0.24026996087349312,0.32143836457015323,0.4701753608165332,0.24911049089757598,0.2861368479636375,0.5698320356203388,0.24512348680111978,0.23206409359790126,0.5414852346830676,0.24827897530329077,0.25675993994924884,0.6591343388537301,0.22467626219758627,0.27258489715135253,0.5485859830896131,0.24763940224721584,0.286671067185714,0.6434394136390773,0.22942513461487768,0.20394593433698827,0.6289281902376961,0.2333775217620325,0.1718288389848599,0.7257494850992403,0.19903716997742785,0.29945112228627313,0.7811001984473362,0.1709826784328682,0.24721872325882935
10.0,0.0,10.0,0.0,5.0,0.0,5.0,0.0,,,,right,1.2597814000910148,360.11373420001473,zu11,360.11373420001473,,354.51765539997723,356.53204730001744,False,3.0,['p'],True,0.2962962962962963,0.3333333333333333,0.1111111111111111,1.0,1.0,0.8325252476189534,0.0922359396433469,wait_cost,0.0,2.0,356.53204730001744,,zu11,1,2023-03-28_11h13.54.028,threat_forest,2021.2.3,60.03842457677967,False,4.0,0.4666666666666667,0.4297619047619048,-0.9911111111111112,-0.9738718820861678,0,0,0.0,0.2309382139206521,0.0922359396433469,0.2962962962962963,0.2962962962962963,0.3333333333333333,0.1111111111111111,-0.3333333333333335,-0.2222222222222223,2.7777777777777777,2.7777777777777777,1.0,1.0,1.0,3.0,0,1,0,0,0.0922359396433469,0.241370587319334,0.1831108268964538,0.1873936079775924,0.5986409606933494,0.24026996087349312,0.32143836457015323,0.4701753608165332,0.24911049089757598,0.2861368479636375,0.49668711948004257,0.2499890248226605,0.32658931759251786,0.5199047162972931,0.24960380226912426,0.23457489859162717,0.46600618721855297,0.24884442069257995,0.2786293923025215,0.5139379186971772,0.24980573442239085,0.3347393013599973,0.5023195924033814,0.24999461949108218,0.34061580114973355,0.45028854827481785,0.24752877156737482,0.3715419550403536,0.45547890137637054,0.24801787177734505,0.36066711210534863,0.751272396398523,0.18686218280814357,0.270232849501827
10.0,0.0,10.0,0.0,7.0,0.0,7.0,0.0,,,,right,1.5517642999766394,373.55199139995966,zu11,373.55199139995966,,368.8542122000363,370.8686703999993,False,1.0,['p'],True,0.2962962962962963,0.3333333333333333,0.1111111111111111,1.0,1.0,0.8325252476189534,0.2962962962962963,wait_cost,0.0,0.0,370.8686703999993,,zu11,1,2023-03-28_11h13.54.028,threat_forest,2021.2.3,60.03842457677967,False,4.0,0.4666666666666667,0.4297619047619048,-0.9911111111111112,-0.9738718820861678,0,0,0.0,0.4393925416560748,0.2962962962962963,1.0,0.2962962962962963,0.3333333333333333,0.1111111111111111,-0.3333333333333335,-0.2222222222222223,0.7777777777777777,1.0,1.0,1.0,-1.0,1.0,1,1,0,0,0.625,0.597780711322595,0.24043893249324738,0.29135005866526953,0.5986409606933494,0.24026996087349312,0.32143836457015323,0.9555550095567019,0.04246963326779318,0.20678795646348969,0.49668711948004257,0.2499890248226605,0.32658931759251786,0.5199047162972931,0.24960380226912426,0.23457489859162717,0.46600618721855297,0.24884442069257995,0.2786293923025215,0.5139379186971772,0.24980573442239085,0.3347393013599973,0.5023195924033814,0.24999461949108218,0.34061580114973355,0.45028854827481785,0.24752877156737482,0.3715419550403536,0.9857025601968895,0.01409302301818684,0.06830827211637956,0.9867861057786684,0.013039287220839154,0.018311758740437258
11.0,0.0,11.0,0.0,0.0,0.0,0.0,0.0,379.8632967999438,383.37378689995967,,left,1.9483938000630587,384.8565800000215,zu11,384.8565800000215,,379.8632967999438,383.37378689995967,True,4.0,['r'],True,0.5,0.5,0.0,0.0,1.0,0.6309297535714574,0.0805026556124999,unsucc_cost,0.0,2.0,,,zu11,1,2023-03-28_11h13.54.028,threat_forest,2021.2.3,60.03842457677967,True,0.0,0.55,0.5083333333333333,-0.91,-0.9505555555555556,1,0,1.0,0.6670053408794203,0.0805026556124999,0.5,0.5,0.5,0.0,0.5,0.5,4.5,4.5,1.0,1.0,-1.0,4.0,0,1,0,1,0.0805026556124999,0.597780711322595,0.24043893249324738,0.29135005866526953,0.5986409606933494,0.24026996087349312,0.32143836457015323,0.4701753608165332,0.24911049089757598,0.2861368479636375,0.49668711948004257,0.2499890248226605,0.32658931759251786,0.4928337510821613,0.24994864487644758,0.2288002973020733,0.5893018037266082,0.2420251878511743,0.27692389124611677,0.567891868877409,0.2453906941403327,0.23677501287329772,0.6578173517494061,0.22509368348680422,0.17516646551010773,0.6289281902376961,0.2333775217620325,0.1718288389848599,0.7499886602172429,0.18750566976278793,0.2850390748104802,0.7152388655419496,0.20367223076021454,0.2945956102390051
11.0,0.0,11.0,0.0,1.0,0.0,1.0,0.0,,,,left,0.7123386999592185,391.5329406999517,zu11,391.5329406999517,,379.8632967999438,383.37378689995967,True,2.0,['r'],True,0.5,0.5,0.0,0.0,1.0,0.6309297535714574,0.0445789599999999,succ_gain,0.0,3.0,388.85188109998126,,zu11,1,2023-03-28_11h13.54.028,threat_forest,2021.2.3,60.03842457677967,True,0.0,0.55,0.5083333333333333,-0.91,-0.9505555555555556,1,0,1.0,-0.3392017784906646,0.0445789599999999,0.5,0.5,0.5,0.0,0.5,0.5,2.5,2.5,1.0,1.0,-1.0,2.0,0,1,0,1,0.0445789599999999,0.597780711322595,0.24043893249324738,0.29135005866526953,0.5986409606933494,0.24026996087349312,0.32143836457015323,0.4701753608165332,0.24911049089757598,0.2861368479636375,0.49668711948004257,0.2499890248226605,0.32658931759251786,0.4928337510821613,0.24994864487644758,0.2288002973020733,0.5893018037266082,0.2420251878511743,0.27692389124611677,0.567891868877409,0.2453906941403327,0.23677501287329772,0.6578173517494061,0.22509368348680422,0.17516646551010773,0.6289281902376961,0.2333775217620325,0.1718288389848599,0.7499886602172429,0.18750566976278793,0.2850390748104802,0.5881335569334302,0.24223247614226182,0.35048087807930045
11.0,0.0,11.0,0.0,2.0,0.0,2.0,0.0,,,,left,0.9494804000714794,398.043576200027,zu11,398.043576200027,,379.8632967999438,383.37378689995967,True,3.0,['r'],True,0.5,0.5,0.0,0.0,1.0,0.6309297535714574,0.111283,unsucc_cost,0.0,1.0,394.2801693000365,,zu11,1,2023-03-28_11h13.54.028,threat_forest,2021.2.3,60.03842457677967,True,0.0,0.55,0.5083333333333333,-0.91,-0.9505555555555556,1,0,1.0,-0.0518403913109632,0.111283,0.5,0.5,0.5,0.0,0.5,0.5,3.5,3.5,1.0,1.0,1.0,3.0,0,1,0,1,0.111283,0.241370587319334,0.1831108268964538,0.1873936079775924,0.5986409606933494,0.24026996087349312,0.32143836457015323,0.4701753608165332,0.24911049089757598,0.2861368479636375,0.49668711948004257,0.2499890248226605,0.32658931759251786,0.4928337510821613,0.24994864487644758,0.2288002973020733,0.5893018037266082,0.2420251878511743,0.27692389124611677,0.567891868877409,0.2453906941403327,0.23677501287329772,0.6578173517494061,0.22509368348680422,0.17516646551010773,0.6289281902376961,0.2333775217620325,0.1718288389848599,0.7499886602172429,0.18750566976278793,0.2850390748104802,0.8029483761607977,0.15822228138153585,0.22872511151189182
11.0,0.0,11.0,0.0,3.0,0.0,3.0,0.0,,,,left,0.5978346000192687,403.8214846999617,zu11,403.8214846999617,,379.8632967999438,383.37378689995967,True,1.0,['r'],True,0.5,0.5,0.0,0.0,1.0,0.6309297535714574,0.1268499999999999,unsucc_cost,0.0,0.0,401.02387070003897,,zu11,1,2023-03-28_11h13.54.028,threat_forest,2021.2.3,60.03842457677967,True,0.0,0.55,0.5083333333333333,-0.91,-0.9505555555555556,1,0,1.0,-0.5144411518857264,0.1268499999999999,1.0,0.5,0.5,0.0,0.5,0.5,1.5,1.5,1.0,1.0,-1.0,1.0,1,1,0,1,0.625,0.597780711322595,0.24043893249324738,0.29135005866526953,0.5986409606933494,0.24026996087349312,0.32143836457015323,0.9555550095567019,0.04246963326779318,0.20678795646348969,0.49668711948004257,0.2499890248226605,0.32658931759251786,0.4928337510821613,0.24994864487644758,0.2288002973020733,0.5893018037266082,0.2420251878511743,0.27692389124611677,0.567891868877409,0.2453906941403327,0.23677501287329772,0.6578173517494061,0.22509368348680422,0.17516646551010773,0.6289281902376961,0.2333775217620325,0.1718288389848599,0.9857025601968895,0.01409302301818684,0.06830827211637956,0.838828028695028,0.13519556697064122,0.19535255151947117
12.0,0.0,12.0,0.0,0.0,0.0,0.0,0.0,408.4368610000238,411.9297679000301,,right,2.550704300054349,413.3144114000024,zu11,408.4368610000238,411.9297679000301,413.3144114000024,,True,5.0,['p'],False,0.2777777777777778,0.3333333333333333,0.1666666666666666,1.0,2.0,0.8929352898779304,0.0176126680216173,unsucc_cost,1.0,3.0,,,zu11,1,2023-03-28_11h13.54.028,threat_forest,2021.2.3,60.03842457677967,True,37.0,0.2666666666666666,0.4083333333333333,-1.1277777777777778,-1.018888888888889,0,0,1.0,0.9363695171349584,0.0176126680216173,0.2777777777777778,0.2777777777777778,0.3333333333333333,0.1666666666666666,-0.1666666666666665,-0.0555555555555555,4.944444444444445,4.944444444444445,0.0,2.0,-1.0,5.0,0,1,0,0,0.0176126680216173,0.597780711322595,0.24043893249324738,0.29135005866526953,0.5986409606933494,0.24026996087349312,0.32143836457015323,0.4701753608165332,0.24911049089757598,0.2861368479636375,0.5698320356203388,0.24512348680111978,0.23206409359790126,0.5334063900183571,0.24888401310594144,0.24662821028122828,0.46600618721855297,0.24884442069257995,0.2786293923025215,0.5247956262854927,0.24938517691711018,0.32540764997280824,0.4876788261730056,0.249848188675525,0.3396428706082093,0.45028854827481785,0.24752877156737482,0.3715419550403536,0.42686386604706905,0.2446511059104189,0.3564593343998583,0.48309444658066153,0.24971420226358582,0.3613241251607257
12.0,0.0,12.0,0.0,1.0,0.0,1.0,0.0,,,,right,0.91810849995818,420.3731921999715,zu11,408.4368610000238,411.9297679000301,420.3731921999715,,True,3.0,['p'],False,0.2777777777777778,0.3333333333333333,0.1666666666666666,1.0,2.0,0.8929352898779304,0.0598929245085531,succ_gain,1.0,5.0,417.908128399984,,zu11,1,2023-03-28_11h13.54.028,threat_forest,2021.2.3,60.03842457677967,True,37.0,0.2666666666666666,0.4083333333333333,-1.1277777777777778,-1.018888888888889,0,0,1.0,-0.085439703670155,0.0598929245085531,0.2777777777777778,0.2777777777777778,0.3333333333333333,0.1666666666666666,-0.1666666666666665,-0.0555555555555555,2.9444444444444446,2.9444444444444446,0.0,2.0,-1.0,3.0,0,1,0,0,0.0598929245085531,0.597780711322595,0.24043893249324738,0.29135005866526953,0.5986409606933494,0.24026996087349312,0.32143836457015323,0.4701753608165332,0.24911049089757598,0.2861368479636375,0.5698320356203388,0.24512348680111978,0.23206409359790126,0.5334063900183571,0.24888401310594144,0.24662821028122828,0.46600618721855297,0.24884442069257995,0.2786293923025215,0.5247956262854927,0.24938517691711018,0.32540764997280824,0.4876788261730056,0.249848188675525,0.3396428706082093,0.45028854827481785,0.24752877156737482,0.3715419550403536,0.42686386604706905,0.2446511059104189,0.3564593343998583,0.644966534046787,0.22898470400646173,0.3312809148331879
12.0,0.0,12.0,0.0,2.0,0.0,2.0,0.0,,,,left,1.5107511999085546,426.33399690000806,zu11,408.4368610000238,411.9297679000301,426.33399690000806,,False,5.0,['p'],False,0.2777777777777778,0.3333333333333333,0.1666666666666666,1.0,2.0,0.8929352898779304,0.0426090492641704,wait_cost,1.0,4.0,423.336393399979,,zu11,1,2023-03-28_11h13.54.028,threat_forest,2021.2.3,60.03842457677967,False,37.0,0.2666666666666666,0.4083333333333333,-1.1277777777777778,-1.018888888888889,0,0,0.0,0.4126070105061488,0.0426090492641704,0.2777777777777778,0.2777777777777778,0.3333333333333333,0.1666666666666666,-0.1666666666666665,-0.0555555555555555,4.944444444444445,4.944444444444445,0.0,2.0,1.0,5.0,0,1,0,0,0.0426090492641704,0.241370587319334,0.1831108268964538,0.1873936079775924,0.5986409606933494,0.24026996087349312,0.32143836457015323,0.4701753608165332,0.24911049089757598,0.2861368479636375,0.5698320356203388,0.24512348680111978,0.23206409359790126,0.5334063900183571,0.24888401310594144,0.24662821028122828,0.46600618721855297,0.24884442069257995,0.2786293923025215,0.5247956262854927,0.24938517691711018,0.32540764997280824,0.4876788261730056,0.249848188675525,0.3396428706082093,0.45028854827481785,0.24752877156737482,0.3715419550403536,0.42686386604706905,0.2446511059104189,0.3564593343998583,0.5806125464424347,0.24350161735606626,0.3523202412876487
12.0,0.0,12.0,0.0,3.0,0.0,3.0,0.0,,,,right,2.1373091000132263,432.25099960004445,zu11,432.25099960004445,,427.86595140001737,429.8802899000002,False,4.0,['p'],True,0.2,0.2,0.0,0.0,2.0,0.4554859150035951,0.0058641975308642,wait_cost,0.0,3.0,429.8802899000002,,zu11,1,2023-03-28_11h13.54.028,threat_forest,2021.2.3,60.03842457677967,False,37.0,0.2666666666666666,0.4083333333333333,-1.1277777777777778,-1.018888888888889,0,0,0.0,0.7595476079050757,0.0058641975308642,0.2,0.2,0.2,0.0,-0.2000000000000001,-0.2000000000000001,3.8,3.8,1.0,2.0,-1.0,4.0,0,1,0,0,0.0058641975308642,0.597780711322595,0.24043893249324738,0.29135005866526953,0.5986409606933494,0.24026996087349312,0.32143836457015323,0.4701753608165332,0.24911049089757598,0.2861368479636375,0.49668711948004257,0.2499890248226605,0.32658931759251786,0.4928337510821613,0.24994864487644758,0.2288002973020733,0.36958502458428605,0.23299193418731867,0.274664660035689,0.5226256301096672,0.24948808086214055,0.32769096136145937,0.42670641125803793,0.24462804984932413,0.30495869244746987,0.45028854827481785,0.24752877156737482,0.3715419550403536,0.313828357789804,0.21534011963675875,0.3198265183849911,0.43724988634956397,0.24606242323685737,0.35603161088908913
12.0,0.0,12.0,0.0,4.0,0.0,4.0,0.0,,,,right,2.374520800076425,437.09095800004434,zu11,434.4099097000435,436.4242959000403,437.09095800004434,,True,3.0,['p'],False,0.2777777777777778,0.3333333333333333,0.1666666666666666,1.0,2.0,0.8929352898779304,0.1521604938271604,unsucc_cost,1.0,1.0,436.4242959000403,,zu11,1,2023-03-28_11h13.54.028,threat_forest,2021.2.3,60.03842457677967,True,37.0,0.2666666666666666,0.4083333333333333,-1.1277777777777778,-1.018888888888889,0,0,1.0,0.864795648739751,0.1521604938271604,0.2777777777777778,0.2777777777777778,0.3333333333333333,0.1666666666666666,-0.1666666666666665,-0.0555555555555555,2.9444444444444446,2.9444444444444446,0.0,2.0,-1.0,3.0,0,1,0,0,0.1521604938271604,0.597780711322595,0.24043893249324738,0.29135005866526953,0.5986409606933494,0.24026996087349312,0.32143836457015323,0.4701753608165332,0.24911049089757598,0.2861368479636375,0.5698320356203388,0.24512348680111978,0.23206409359790126,0.5334063900183571,0.24888401310594144,0.24662821028122828,0.46600618721855297,0.24884442069257995,0.2786293923025215,0.5247956262854927,0.24938517691711018,0.32540764997280824,0.4876788261730056,0.249848188675525,0.3396428706082093,0.45028854827481785,0.24752877156737482,0.3715419550403536,0.42686386604706905,0.2446511059104189,0.3564593343998583,0.8856854492146342,0.10124673426410588,0.14615059261405886
12.0,0.0,12.0,0.0,5.0,0.0,5.0,0.0,,,,left,1.7701210000086576,444.16910519998055,zu11,444.16910519998055,,439.48831369995605,441.5028610000154,True,1.0,['p'],True,0.2,0.2,0.0,0.0,2.0,0.4554859150035951,0.1999999999999999,unsucc_cost,0.0,0.0,441.5028610000154,,zu11,1,2023-03-28_11h13.54.028,threat_forest,2021.2.3,60.03842457677967,True,37.0,0.2666666666666666,0.4083333333333333,-1.1277777777777778,-1.018888888888889,0,0,1.0,0.5710479058360032,0.1999999999999999,1.0,0.2,0.2,0.0,-0.2000000000000001,-0.2000000000000001,0.7999999999999998,1.0,1.0,2.0,-1.0,1.0,1,1,0,0,0.625,0.597780711322595,0.24043893249324738,0.29135005866526953,0.5986409606933494,0.24026996087349312,0.32143836457015323,0.9555550095567019,0.04246963326779318,0.20678795646348969,0.49668711948004257,0.2499890248226605,0.32658931759251786,0.4928337510821613,0.24994864487644758,0.2288002973020733,0.36958502458428605,0.23299193418731867,0.274664660035689,0.5226256301096672,0.24948808086214055,0.32769096136145937,0.42670641125803793,0.24462804984932413,0.30495869244746987,0.45028854827481785,0.24752877156737482,0.3715419550403536,0.9857025601968895,0.01409302301818684,0.06830827211637956,0.9426451388176982,0.05406528108106077,0.07777062972470347
13.0,0.0,13.0,0.0,0.0,0.0,0.0,0.0,449.28255210001953,452.7922574999975,,right,1.6155140000628307,454.30847249994986,zu11,449.28255210001953,452.7922574999975,454.30847249994986,,True,5.0,['r'],False,0.2222222222222222,0.6666666666666666,0.6666666666666666,2.0,1.0,0.77250688571426,-0.0048205313257853,figh_cost,1.0,2.0,,,zu11,1,2023-03-28_11h13.54.028,threat_forest,2021.2.3,60.03842457677967,True,20.0,0.4583333333333333,0.3625,-1.625,-1.3763888888888889,0,0,1.0,0.4796531723314213,-0.0048205313257853,0.2222222222222222,0.2222222222222222,0.6666666666666666,0.6666666666666666,-1.0,-1.0,4.0,4.0,0.0,1.0,-1.0,5.0,0,1,0,0,-0.0048205313257853,0.597780711322595,0.24043893249324738,0.29135005866526953,0.5986409606933494,0.24026996087349312,0.32143836457015323,0.4701753608165332,0.24911049089757598,0.2861368479636375,0.5698320356203388,0.24512348680111978,0.23206409359790126,0.6505142881438156,0.22734544906456047,0.6073046958637787,0.7023147589794394,0.2090687382990913,0.26868143042484344,0.4704780994372427,0.2491284573871626,0.3197113608145523,0.4439826513656237,0.2468620566519747,0.3198021080222675,0.45028854827481785,0.24752877156737482,0.3715419550403536,0.34457759750610834,0.22584387680302676,0.33295409451444113,0.396446898226325,0.23927675511305088,0.3461971589343089
13.0,0.0,13.0,0.0,1.0,0.0,1.0,0.0,,,,left,1.24668159999419,458.7370360000059,zu11,458.7370360000059,,455.9562213999452,457.9707917999476,True,2.0,['r'],True,0.25,0.25,0.0,0.0,1.0,0.5118595071429148,0.0041767131925127,unsucc_cost,0.0,0.0,457.9707917999476,,zu11,1,2023-03-28_11h13.54.028,threat_forest,2021.2.3,60.03842457677967,True,20.0,0.4583333333333333,0.3625,-1.625,-1.3763888888888889,1,0,1.0,0.2204853012915532,0.0041767131925127,0.25,0.25,0.25,0.0,-0.25,-0.25,1.75,1.75,1.0,1.0,-1.0,2.0,0,1,0,1,0.0041767131925127,0.597780711322595,0.24043893249324738,0.29135005866526953,0.5986409606933494,0.24026996087349312,0.32143836457015323,0.4701753608165332,0.24911049089757598,0.2861368479636375,0.49668711948004257,0.2499890248226605,0.32658931759251786,0.4928337510821613,0.24994864487644758,0.2288002973020733,0.4049654001162774,0.2409684248249408,0.2766595931205758,0.5193690593374709,0.24962483954038156,0.33072546744800757,0.4657650648038984,0.24882796921211867,0.33286422452044007,0.6289281902376961,0.2333775217620325,0.1718288389848599,0.3848980899524736,0.23675155030341113,0.34658648452544866,0.43073386495282795,0.24520220253562694,0.35478489516376827
14.0,0.0,14.0,0.0,1.0,0.0,1.0,0.0,,,,right,1.404460299992934,475.5214294999605,zu11,472.5741933999816,474.5719496000093,475.5214294999605,,True,3.0,['p'],False,0.4166666666666667,0.5,0.1666666666666666,1.0,1.0,0.9358932809493992,0.0542269098658266,unsucc_cost,1.0,1.0,474.5719496000093,,zu11,1,2023-03-28_11h13.54.028,threat_forest,2021.2.3,60.03842457677967,True,16.0,0.4,0.4291666666666667,-1.1033333333333333,-1.3641666666666667,1,0,1.0,0.3396531008706964,0.0542269098658266,0.4166666666666667,0.4166666666666667,0.5,0.1666666666666666,2.220446049250313e-16,0.0833333333333334,3.083333333333333,3.083333333333333,0.0,1.0,-1.0,3.0,0,1,0,1,0.0542269098658266,0.597780711322595,0.24043893249324738,0.29135005866526953,0.5986409606933494,0.24026996087349312,0.32143836457015323,0.4701753608165332,0.24911049089757598,0.2861368479636375,0.5698320356203388,0.24512348680111978,0.23206409359790126,0.5334063900183571,0.24888401310594144,0.24662821028122828,0.5893018037266082,0.2420251878511743,0.27692389124611677,0.5356299415131895,0.24873050726776672,0.3108813393857002,0.5962835799460188,0.2407294722327786,0.2790553659023889,0.6289281902376961,0.2333775217620325,0.1718288389848599,0.6401690826348502,0.23035262827330452,0.3385891236985622,0.6243183096621827,0.23454495788273766,0.3393393769632134
14.0,0.0,14.0,0.0,2.0,0.0,2.0,0.0,,,,left,2.448276699986309,482.51732240000274,zu11,482.51732240000274,,476.95333389996085,478.9678807000164,True,1.0,['p'],True,0.27,0.3,0.1,1.0,1.0,0.7963326591781347,0.0415481562499999,unsucc_cost,0.0,0.0,478.9678807000164,,zu11,1,2023-03-28_11h13.54.028,threat_forest,2021.2.3,60.03842457677967,True,16.0,0.4,0.4291666666666667,-1.1033333333333333,-1.3641666666666667,1,0,1.0,0.8953843893027118,0.0415481562499999,1.0,0.27,0.3,0.1,-0.3999999999999999,-0.29,0.71,1.0,1.0,1.0,-1.0,1.0,1,1,0,1,0.625,0.597780711322595,0.24043893249324738,0.29135005866526953,0.5986409606933494,0.24026996087349312,0.32143836457015323,0.9555550095567019,0.04246963326779318,0.20678795646348969,0.49668711948004257,0.2499890248226605,0.32658931759251786,0.517200253433937,0.2497041512818083,0.23289449273183926,0.44136148322908364,0.24656152435090695,0.2780584362708188,0.5095905732339555,0.2499080209050442,0.3370089120214592,0.481534556431835,0.2496590273938309,0.33838602595065703,0.6289281902376961,0.2333775217620325,0.1718288389848599,0.9857025601968895,0.01409302301818684,0.06830827211637956,0.5765463084589715,0.24414066266130396,0.3532464080610043
15.0,0.0,15.0,0.0,0.0,0.0,0.0,0.0,489.650199900032,493.1545868000248,,right,1.935320100048557,495.2197004000191,zu11,489.650199900032,493.1545868000248,495.2197004000191,,True,4.0,['r'],False,0.3333333333333333,0.5,0.3333333333333333,2.0,2.0,1.0,0.0039043511659807,succ_gain,1.0,6.0,,,zu11,1,2023-03-28_11h13.54.028,threat_forest,2021.2.3,60.03842457677967,True,2.0,0.45,0.425,-0.7,-0.9016666666666666,0,0,1.0,0.6602727391819933,0.0039043511659807,0.3333333333333333,0.3333333333333333,0.5,0.3333333333333333,0.0,0.0,4.0,4.0,0.0,2.0,-1.0,4.0,0,1,0,0,0.0039043511659807,0.597780711322595,0.24043893249324738,0.29135005866526953,0.5986409606933494,0.24026996087349312,0.32143836457015323,0.4701753608165332,0.24911049089757598,0.2861368479636375,0.5698320356203388,0.24512348680111978,0.23206409359790126,0.5735418850550255,0.24459159114255344,0.3185074528072249,0.5893018037266082,0.2420251878511743,0.27692389124611677,0.5356299415131895,0.24873050726776672,0.3108813393857002,0.5315641344758063,0.2490037054147932,0.3340318689003676,0.45028854827481785,0.24752877156737482,0.3715419550403536,0.5134078751017676,0.24982022888525543,0.3629196946595734,0.4296843547349356,0.2450557100309576,0.35457258394066976
15.0,0.0,15.0,0.0,1.0,0.0,1.0,0.0,,,,left,0.9577359999530016,501.3495833999477,zu11,489.650199900032,493.1545868000248,501.3495833999477,,False,6.0,['r'],False,0.3333333333333333,0.5,0.3333333333333333,2.0,2.0,1.0,-0.1091590123456789,wait_cost,1.0,5.0,499.1990730999969,,zu11,1,2023-03-28_11h13.54.028,threat_forest,2021.2.3,60.03842457677967,False,2.0,0.45,0.425,-0.7,-0.9016666666666666,0,0,0.0,-0.0431831131506067,-0.1091590123456789,0.3333333333333333,0.3333333333333333,0.5,0.3333333333333333,0.0,0.0,6.0,6.0,0.0,2.0,1.0,6.0,0,1,0,0,-0.1091590123456789,0.241370587319334,0.1831108268964538,0.1873936079775924,0.5986409606933494,0.24026996087349312,0.32143836457015323,0.4701753608165332,0.24911049089757598,0.2861368479636375,0.5698320356203388,0.24512348680111978,0.23206409359790126,0.5735418850550255,0.24459159114255344,0.3185074528072249,0.5893018037266082,0.2420251878511743,0.27692389124611677,0.5356299415131895,0.24873050726776672,0.3108813393857002,0.5315641344758063,0.2490037054147932,0.3340318689003676,0.45028854827481785,0.24752877156737482,0.3715419550403536,0.5134078751017676,0.24982022888525543,0.3629196946595734,0.11299920838114225,0.10023038728637745,0.14467760346406053
15.0,0.0,15.0,0.0,2.0,0.0,2.0,0.0,,,,right,2.787316699977964,506.128617499955,zu11,506.128617499955,,502.3297995999456,504.3441719999537,False,5.0,['r'],True,0.4,0.4,0.0,0.0,2.0,0.6126016192893442,0.0913229629629629,wait_cost,0.0,4.0,504.3441719999537,,zu11,1,2023-03-28_11h13.54.028,threat_forest,2021.2.3,60.03842457677967,False,2.0,0.45,0.425,-0.7,-0.9016666666666666,1,0,0.0,1.0250793767686557,0.0913229629629629,0.4,0.4,0.4,0.0,0.6000000000000001,0.6000000000000001,5.6,5.6,1.0,2.0,-1.0,5.0,0,1,0,1,0.0913229629629629,0.597780711322595,0.24043893249324738,0.29135005866526953,0.5986409606933494,0.24026996087349312,0.32143836457015323,0.4701753608165332,0.24911049089757598,0.2861368479636375,0.49668711948004257,0.2499890248226605,0.32658931759251786,0.4928337510821613,0.24994864487644758,0.2288002973020733,0.515675042879907,0.24975429303071303,0.278856952831685,0.5742845534553498,0.2444818051179393,0.21660788852021362,0.5835315612225312,0.2430224782797265,0.2942907902663565,0.6289281902376961,0.2333775217620325,0.1718288389848599,0.6157641218212568,0.23659866809895325,0.3463954126312597,0.7485809372651652,0.18820751762837204,0.2721826399146844
15.0,0.0,15.0,0.0,3.0,0.0,3.0,0.0,,,,right,2.966350300004706,512.6876178999664,zu11,508.94018929998856,510.95473390002735,512.6876178999664,,True,4.0,['r'],False,0.3333333333333333,0.5,0.3333333333333333,2.0,2.0,1.0,-0.0109382716049383,figh_cost,1.0,1.0,510.95473390002735,,zu11,1,2023-03-28_11h13.54.028,threat_forest,2021.2.3,60.03842457677967,True,2.0,0.45,0.425,-0.7,-0.9016666666666666,0,0,1.0,1.0873323419356355,-0.0109382716049383,0.3333333333333333,0.3333333333333333,0.5,0.3333333333333333,0.0,0.0,4.0,4.0,0.0,2.0,-1.0,4.0,0,1,0,0,-0.0109382716049383,0.597780711322595,0.24043893249324738,0.29135005866526953,0.5986409606933494,0.24026996087349312,0.32143836457015323,0.4701753608165332,0.24911049089757598,0.2861368479636375,0.5698320356203388,0.24512348680111978,0.23206409359790126,0.5735418850550255,0.24459159114255344,0.3185074528072249,0.5893018037266082,0.2420251878511743,0.27692389124611677,0.5356299415131895,0.24873050726776672,0.3108813393857002,0.5315641344758063,0.2490037054147932,0.3340318689003676,0.45028854827481785,0.24752877156737482,0.3715419550403536,0.5134078751017676,0.24982022888525543,0.3629196946595734,0.3736801024082172,0.2340432834724015,0.3386123014865799
15.0,0.0,15.0,0.0,4.0,0.0,4.0,0.0,,,,left,0.9086455999640748,521.2790918999817,zu11,521.2790918999817,,515.6839785999618,517.698365899967,True,1.0,['r'],True,0.4,0.4,0.0,0.0,2.0,0.6126016192893442,0.2151111111111111,succ_gain,0.0,3.0,517.698365899967,,zu11,1,2023-03-28_11h13.54.028,threat_forest,2021.2.3,60.03842457677967,True,2.0,0.45,0.425,-0.7,-0.9016666666666666,1,0,1.0,-0.095800139854667,0.2151111111111111,1.0,0.4,0.4,0.0,0.6000000000000001,0.6000000000000001,1.6,1.6,1.0,2.0,-1.0,1.0,1,1,0,1,0.625,0.597780711322595,0.24043893249324738,0.29135005866526953,0.5986409606933494,0.24026996087349312,0.32143836457015323,0.9555550095567019,0.04246963326779318,0.20678795646348969,0.49668711948004257,0.2499890248226605,0.32658931759251786,0.4928337510821613,0.24994864487644758,0.2288002973020733,0.515675042879907,0.24975429303071303,0.278856952831685,0.5742845534553498,0.2444818051179393,0.21660788852021362,0.5835315612225312,0.2430224782797265,0.2942907902663565,0.6289281902376961,0.2333775217620325,0.1718288389848599,0.9857025601968895,0.01409302301818684,0.06830827211637956,0.954216854742828,0.0436870488675326,0.06272948355938802
15.0,0.0,15.0,0.0,5.0,0.0,5.0,0.0,,,,left,1.1861511000897735,525.8744509000098,zu11,522.2111304999562,524.2257632999681,525.8744509000098,,False,3.0,['r'],False,0.3333333333333333,0.5,0.3333333333333333,2.0,2.0,1.0,0.0722222222222223,wait_cost,1.0,2.0,524.2257632999681,,zu11,1,2023-03-28_11h13.54.028,threat_forest,2021.2.3,60.03842457677967,False,2.0,0.45,0.425,-0.7,-0.9016666666666666,0,0,0.0,0.1707136955715541,0.0722222222222223,0.3333333333333333,0.3333333333333333,0.5,0.3333333333333333,0.0,0.0,3.0,3.0,0.0,2.0,1.0,3.0,0,1,0,0,0.0722222222222223,0.241370587319334,0.1831108268964538,0.1873936079775924,0.5986409606933494,0.24026996087349312,0.32143836457015323,0.4701753608165332,0.24911049089757598,0.2861368479636375,0.5698320356203388,0.24512348680111978,0.23206409359790126,0.5735418850550255,0.24459159114255344,0.3185074528072249,0.5893018037266082,0.2420251878511743,0.27692389124611677,0.5356299415131895,0.24873050726776672,0.3108813393857002,0.5315641344758063,0.2490037054147932,0.3340318689003676,0.45028854827481785,0.24752877156737482,0.3715419550403536,0.5134078751017676,0.24982022888525543,0.3629196946595734,0.688003005633471,0.21465486987278112,0.31051272182162076
15.0,0.0,15.0,0.0,7.0,0.0,7.0,0.0,,,,left,1.6187559000682086,537.4969440000132,zu11,537.4969440000132,,527.0899776000297,529.1043932000175,True,1.0,['r'],True,0.4,0.4,0.0,0.0,2.0,0.6126016192893442,0.4,unsucc_cost,0.0,0.0,534.9488675999455,,zu11,1,2023-03-28_11h13.54.028,threat_forest,2021.2.3,60.03842457677967,True,2.0,0.45,0.425,-0.7,-0.9016666666666666,1,0,1.0,0.4816578912888498,0.4,1.0,0.4,0.4,0.0,0.6000000000000001,0.6000000000000001,1.6,1.6,1.0,2.0,-1.0,1.0,1,1,0,1,0.625,0.597780711322595,0.24043893249324738,0.29135005866526953,0.5986409606933494,0.24026996087349312,0.32143836457015323,0.9555550095567019,0.04246963326779318,0.20678795646348969,0.49668711948004257,0.2499890248226605,0.32658931759251786,0.4928337510821613,0.24994864487644758,0.2288002973020733,0.515675042879907,0.24975429303071303,0.278856952831685,0.5742845534553498,0.2444818051179393,0.21660788852021362,0.5835315612225312,0.2430224782797265,0.2942907902663565,0.6289281902376961,0.2333775217620325,0.1718288389848599,0.9857025601968895,0.01409302301818684,0.06830827211637956,0.9973837120087178,0.002609443028428758,0.0031958114623430183
16.0,0.0,16.0,0.0,0.0,0.0,0.0,0.0,544.7752834999701,548.2864844000433,,right,2.6466200000140816,550.0352428000188,zu11,544.7752834999701,548.2864844000433,550.0352428000188,,True,4.0,['r'],False,0.2222222222222222,0.6666666666666666,0.6666666666666666,2.0,2.0,0.77250688571426,-0.0834227138822206,succ_gain,1.0,6.0,,,zu11,1,2023-03-28_11h13.54.028,threat_forest,2021.2.3,60.03842457677967,True,49.0,0.5833333333333333,0.5166666666666666,-0.888888888888889,-0.7944444444444445,0,0,1.0,0.9732833541989918,-0.0834227138822206,0.2222222222222222,0.2222222222222222,0.6666666666666666,0.6666666666666666,-0.3333333333333335,-0.7777777777777779,3.2222222222222223,3.2222222222222223,0.0,2.0,-1.0,4.0,0,1,0,0,-0.0834227138822206,0.597780711322595,0.24043893249324738,0.29135005866526953,0.5986409606933494,0.24026996087349312,0.32143836457015323,0.4701753608165332,0.24911049089757598,0.2861368479636375,0.5698320356203388,0.24512348680111978,0.23206409359790126,0.6505142881438156,0.22734544906456047,0.6073046958637787,0.7023147589794394,0.2090687382990913,0.26868143042484344,0.5139379186971772,0.24980573442239085,0.3347393013599973,0.4439826513656237,0.2468620566519747,0.3198021080222675,0.45028854827481785,0.24752877156737482,0.3715419550403536,0.34457759750610834,0.22584387680302676,0.33295409451444113,0.160313504388334,0.13461308469906563,0.19450836141028735
16.0,0.0,16.0,0.0,1.0,0.0,1.0,0.0,,,,left,1.0606572999386117,555.3969052999746,zu11,544.7752834999701,548.2864844000433,555.3969052999746,,False,6.0,['r'],False,0.2222222222222222,0.6666666666666666,0.6666666666666666,2.0,2.0,0.77250688571426,-0.2259971922153635,wait_cost,1.0,5.0,554.7138848999748,,zu11,1,2023-03-28_11h13.54.028,threat_forest,2021.2.3,60.03842457677967,False,49.0,0.5833333333333333,0.5166666666666666,-0.888888888888889,-0.7944444444444445,0,0,0.0,0.0588888102266677,-0.2259971922153635,0.2222222222222222,0.2222222222222222,0.6666666666666666,0.6666666666666666,-0.3333333333333335,-0.7777777777777779,5.222222222222222,5.222222222222222,0.0,2.0,1.0,6.0,0,1,0,0,-0.2259971922153635,0.241370587319334,0.1831108268964538,0.1873936079775924,0.5986409606933494,0.24026996087349312,0.32143836457015323,0.4701753608165332,0.24911049089757598,0.2861368479636375,0.5698320356203388,0.24512348680111978,0.23206409359790126,0.6505142881438156,0.22734544906456047,0.6073046958637787,0.7023147589794394,0.2090687382990913,0.26868143042484344,0.5139379186971772,0.24980573442239085,0.3347393013599973,0.4439826513656237,0.2468620566519747,0.3198021080222675,0.45028854827481785,0.24752877156737482,0.3715419550403536,0.34457759750610834,0.22584387680302676,0.33295409451444113,0.019896191912930846,0.01950033346029468,0.027675737004657894
16.0,0.0,16.0,0.0,2.0,0.0,2.0,0.0,,,,left,0.9723977000685408,559.8592972999904,zu11,544.7752834999701,548.2864844000433,559.8592972999904,,False,5.0,['r'],False,0.2222222222222222,0.6666666666666666,0.6666666666666666,2.0,2.0,0.77250688571426,-0.1831490054869685,wait_cost,1.0,4.0,558.4936257000081,,zu11,1,2023-03-28_11h13.54.028,threat_forest,2021.2.3,60.03842457677967,False,49.0,0.5833333333333333,0.5166666666666666,-0.888888888888889,-0.7944444444444445,0,0,0.0,-0.0279904017542567,-0.1831490054869685,0.2222222222222222,0.2222222222222222,0.6666666666666666,0.6666666666666666,-0.3333333333333335,-0.7777777777777779,4.222222222222222,4.222222222222222,0.0,2.0,-1.0,5.0,0,1,0,0,-0.1831490054869685,0.597780711322595,0.24043893249324738,0.29135005866526953,0.5986409606933494,0.24026996087349312,0.32143836457015323,0.4701753608165332,0.24911049089757598,0.2861368479636375,0.5698320356203388,0.24512348680111978,0.23206409359790126,0.6505142881438156,0.22734544906456047,0.6073046958637787,0.7023147589794394,0.2090687382990913,0.26868143042484344,0.5139379186971772,0.24980573442239085,0.3347393013599973,0.4439826513656237,0.2468620566519747,0.3198021080222675,0.45028854827481785,0.24752877156737482,0.3715419550403536,0.34457759750610834,0.22584387680302676,0.33295409451444113,0.03828838460084633,0.03682238420550401,0.05278054211800684
16.0,0.0,16.0,0.0,3.0,0.0,3.0,0.0,,,,right,1.172919200034812,563.6390451999614,zu11,563.6390451999614,,560.8582919000182,562.8731630999828,False,4.0,['r'],True,0.5,0.5,0.0,0.0,2.0,0.6309297535714574,0.1597222222222222,wait_cost,0.0,3.0,562.8731630999828,,zu11,1,2023-03-28_11h13.54.028,threat_forest,2021.2.3,60.03842457677967,False,49.0,0.5833333333333333,0.5166666666666666,-0.888888888888889,-0.7944444444444445,1,0,0.0,0.1594956841230052,0.1597222222222222,0.5,0.5,0.5,0.0,1.0,1.0,5.0,5.0,1.0,2.0,-1.0,4.0,0,1,0,1,0.1597222222222222,0.597780711322595,0.24043893249324738,0.29135005866526953,0.5986409606933494,0.24026996087349312,0.32143836457015323,0.4701753608165332,0.24911049089757598,0.2861368479636375,0.49668711948004257,0.2499890248226605,0.32658931759251786,0.4928337510821613,0.24994864487644758,0.2288002973020733,0.5893018037266082,0.2420251878511743,0.27692389124611677,0.5995879664952326,0.24008223692934444,0.11898690666962519,0.6578173517494061,0.22509368348680422,0.17516646551010773,0.6289281902376961,0.2333775217620325,0.1718288389848599,0.7499886602172429,0.18750566976278793,0.2850390748104802,0.8971799751650851,0.09224806732786245,0.13310884697797665
16.0,0.0,16.0,0.0,4.0,0.0,4.0,0.0,,,,left,1.0467880999203771,569.8999316999689,zu11,569.8999316999689,,560.8582919000182,562.8731630999828,True,3.0,['r'],True,0.5,0.5,0.0,0.0,2.0,0.6309297535714574,0.25,succ_gain,0.0,5.0,566.8525173999369,,zu11,1,2023-03-28_11h13.54.028,threat_forest,2021.2.3,60.03842457677967,True,49.0,0.5833333333333333,0.5166666666666666,-0.888888888888889,-0.7944444444444445,1,0,1.0,0.0457265235545723,0.25,0.5,0.5,0.5,0.0,1.0,1.0,4.0,4.0,1.0,2.0,-1.0,3.0,0,1,0,1,0.25,0.597780711322595,0.24043893249324738,0.29135005866526953,0.5986409606933494,0.24026996087349312,0.32143836457015323,0.4701753608165332,0.24911049089757598,0.2861368479636375,0.49668711948004257,0.2499890248226605,0.32658931759251786,0.4928337510821613,0.24994864487644758,0.2288002973020733,0.5893018037266082,0.2420251878511743,0.27692389124611677,0.5995879664952326,0.24008223692934444,0.11898690666962519,0.6578173517494061,0.22509368348680422,0.17516646551010773,0.6289281902376961,0.2333775217620325,0.1718288389848599,0.7499886602172429,0.18750566976278793,0.2850390748104802,0.9730228927914011,0.026249342895254737,0.03745705961276101
16.0,0.0,16.0,0.0,5.0,0.0,5.0,0.0,,,,right,1.130671299993992,573.6964815999381,zu11,573.6964815999381,,560.8582919000182,562.8731630999828,False,5.0,['r'],True,0.5,0.5,0.0,0.0,2.0,0.6309297535714574,0.0,wait_cost,0.0,4.0,572.9801446000347,,zu11,1,2023-03-28_11h13.54.028,threat_forest,2021.2.3,60.03842457677967,False,49.0,0.5833333333333333,0.5166666666666666,-0.888888888888889,-0.7944444444444445,1,0,0.0,0.1228115271251955,0.0,0.0,0.5,0.5,0.0,1.0,1.0,6.0,6.0,1.0,2.0,1.0,5.0,0,0,0,1,-0.84,0.241370587319334,0.1831108268964538,0.1873936079775924,0.027772652278844446,0.02700133206424285,-0.10134498536475836,0.4701753608165332,0.24911049089757598,0.2861368479636375,0.49668711948004257,0.2499890248226605,0.32658931759251786,0.4928337510821613,0.24994864487644758,0.2288002973020733,0.5893018037266082,0.2420251878511743,0.27692389124611677,0.5995879664952326,0.24008223692934444,0.11898690666962519,0.6578173517494061,0.22509368348680422,0.17516646551010773,0.6289281902376961,0.2333775217620325,0.1718288389848599,0.11545724746841814,0.10212687147543457,0.1783328118403494,0.41471328129894697,0.24272617561320747,0.3511963954960868
16.0,0.0,16.0,0.0,6.0,0.0,6.0,0.0,,,,right,0.4863881999626755,579.6075630999403,zu11,579.6075630999403,,560.8582919000182,562.8731630999828,False,4.0,['r'],True,0.5,0.5,0.0,0.0,2.0,0.6309297535714574,0.0,wait_cost,0.0,3.0,576.8598728999496,,zu11,1,2023-03-28_11h13.54.028,threat_forest,2021.2.3,60.03842457677967,False,49.0,0.5833333333333333,0.5166666666666666,-0.888888888888889,-0.7944444444444445,1,0,0.0,-0.7207482085696143,0.0,0.0,0.5,0.5,0.0,1.0,1.0,5.0,5.0,1.0,2.0,-1.0,4.0,0,0,0,1,-0.84,0.597780711322595,0.24043893249324738,0.29135005866526953,0.027772652278844446,0.02700133206424285,-0.10134498536475836,0.4701753608165332,0.24911049089757598,0.2861368479636375,0.49668711948004257,0.2499890248226605,0.32658931759251786,0.4928337510821613,0.24994864487644758,0.2288002973020733,0.5893018037266082,0.2420251878511743,0.27692389124611677,0.5995879664952326,0.24008223692934444,0.11898690666962519,0.6578173517494061,0.22509368348680422,0.17516646551010773,0.6289281902376961,0.2333775217620325,0.1718288389848599,0.11545724746841814,0.10212687147543457,0.1783328118403494,0.41471328129894697,0.24272617561320747,0.3511963954960868
16.0,0.0,16.0,0.0,7.0,0.0,7.0,0.0,,,,left,0.9853263000259176,582.7047215999337,zu11,580.1237664000364,582.138277299935,582.7047215999337,,False,3.0,['r'],False,0.2222222222222222,0.6666666666666666,0.6666666666666666,2.0,2.0,0.77250688571426,-0.6666666666666666,wait_cost,1.0,2.0,582.138277299935,,zu11,1,2023-03-28_11h13.54.028,threat_forest,2021.2.3,60.03842457677967,False,49.0,0.5833333333333333,0.5166666666666666,-0.888888888888889,-0.7944444444444445,0,0,0.0,-0.0147824236056838,-0.6666666666666666,0.0,0.2222222222222222,0.6666666666666666,0.6666666666666666,-0.3333333333333335,-0.7777777777777779,2.2222222222222223,2.2222222222222223,0.0,2.0,-1.0,3.0,0,0,0,0,-0.84,0.597780711322595,0.24043893249324738,0.29135005866526953,0.027772652278844446,0.02700133206424285,-0.10134498536475836,0.4701753608165332,0.24911049089757598,0.2861368479636375,0.5698320356203388,0.24512348680111978,0.23206409359790126,0.6505142881438156,0.22734544906456047,0.6073046958637787,0.7023147589794394,0.2090687382990913,0.26868143042484344,0.5139379186971772,0.24980573442239085,0.3347393013599973,0.4439826513656237,0.2468620566519747,0.3198021080222675,0.45028854827481785,0.24752877156737482,0.3715419550403536,0.11545724746841814,0.10212687147543457,0.1783328118403494,1.9908637854868845e-05,1.9908241501007617e-05,-0.0005571948713925046
17.0,0.0,17.0,0.0,0.0,0.0,0.0,0.0,589.345624199952,592.8497375999577,,left,1.54863940004725,595.5630515000084,zu11,589.345624199952,592.8497375999577,595.5630515000084,,False,5.0,['r'],False,0.345679012345679,0.4444444444444444,0.2222222222222222,2.0,2.0,0.9685033186841367,-0.0052446797245716,wait_cost,1.0,4.0,,,zu11,1,2023-03-28_11h13.54.028,threat_forest,2021.2.3,60.03842457677967,False,52.0,0.4365079365079364,0.5099206349206349,-0.5626102292768962,-0.7257495590828926,0,0,0.0,0.4373767390123584,-0.0052446797245716,0.345679012345679,0.345679012345679,0.4444444444444444,0.2222222222222222,0.111111111111111,0.1604938271604937,5.160493827160494,5.160493827160494,0.0,2.0,-1.0,5.0,0,1,0,0,-0.0052446797245716,0.597780711322595,0.24043893249324738,0.29135005866526953,0.5986409606933494,0.24026996087349312,0.32143836457015323,0.4701753608165332,0.24911049089757598,0.2861368479636375,0.5698320356203388,0.24512348680111978,0.23206409359790126,0.5468593034250022,0.24780420568252357,0.26471024889048955,0.5486765325138536,0.2476305951824278,0.2783258125981762,0.5428348138728429,0.2481651787204789,0.2983373974603394,0.5412742137506023,0.24829643927926962,0.3293325791940418,0.45028854827481785,0.24752877156737482,0.3715419550403536,0.5327144251971824,0.24892976638401793,0.3618067962851749,0.39485262714132235,0.23894402998091818,0.34571494122686947
17.0,0.0,17.0,0.0,1.0,0.0,1.0,0.0,,,,left,1.349816600093618,601.6723184000002,zu11,601.6723184000002,,597.1413685999578,599.1557756999973,True,4.0,['r'],True,0.4285714285714285,0.4285714285714285,0.0,0.0,2.0,0.6216097450797565,0.0705105637126513,succ_gain,0.0,6.0,599.1557756999973,,zu11,1,2023-03-28_11h13.54.028,threat_forest,2021.2.3,60.03842457677967,True,52.0,0.4365079365079364,0.5099206349206349,-0.5626102292768962,-0.7257495590828926,1,0,1.0,0.2999687314391437,0.0705105637126513,0.4285714285714285,0.4285714285714285,0.4285714285714285,0.0,0.714285714285714,0.714285714285714,4.7142857142857135,4.7142857142857135,1.0,2.0,-1.0,4.0,0,1,0,1,0.0705105637126513,0.597780711322595,0.24043893249324738,0.29135005866526953,0.5986409606933494,0.24026996087349312,0.32143836457015323,0.4701753608165332,0.24911049089757598,0.2861368479636375,0.49668711948004257,0.2499890248226605,0.32658931759251786,0.4928337510821613,0.24994864487644758,0.2288002973020733,0.5369242017857379,0.24863660332248608,0.2785774168453876,0.5815600694944185,0.2433479550640656,0.19144915684799368,0.6053142344889457,0.23890891201400735,0.26695901423770096,0.6289281902376961,0.2333775217620325,0.1718288389848599,0.6571759237043705,0.22529572900767797,0.3322690204214546,0.682198313342562,0.21680377461512565,0.31362712412636123
17.0,0.0,17.0,0.0,2.0,0.0,2.0,0.0,,,,right,0.717800399987027,606.2994200999383,zu11,606.2994200999383,,597.1413685999578,599.1557756999973,False,6.0,['r'],True,0.4285714285714285,0.4285714285714285,0.0,0.0,2.0,0.6216097450797565,0.0595614313946563,wait_cost,0.0,5.0,605.0669161999831,,zu11,1,2023-03-28_11h13.54.028,threat_forest,2021.2.3,60.03842457677967,False,52.0,0.4365079365079364,0.5099206349206349,-0.5626102292768962,-0.7257495590828926,1,0,0.0,-0.3315637430285694,0.0595614313946563,0.4285714285714285,0.4285714285714285,0.4285714285714285,0.0,0.714285714285714,0.714285714285714,6.7142857142857135,6.7142857142857135,1.0,2.0,1.0,6.0,0,1,0,1,0.0595614313946563,0.241370587319334,0.1831108268964538,0.1873936079775924,0.5986409606933494,0.24026996087349312,0.32143836457015323,0.4701753608165332,0.24911049089757598,0.2861368479636375,0.49668711948004257,0.2499890248226605,0.32658931759251786,0.4928337510821613,0.24994864487644758,0.2288002973020733,0.5369242017857379,0.24863660332248608,0.2785774168453876,0.5815600694944185,0.2433479550640656,0.19144915684799368,0.6053142344889457,0.23890891201400735,0.26695901423770096,0.6289281902376961,0.2333775217620325,0.1718288389848599,0.6571759237043705,0.22529572900767797,0.3322690204214546,0.6437723991659215,0.22932949723807497,0.33178062280722476
17.0,0.0,17.0,0.0,3.0,0.0,3.0,0.0,,,,left,0.7281417000340298,611.381351799937,zu11,607.0488803000189,609.0631256999914,611.381351799937,,False,5.0,['r'],False,0.345679012345679,0.4444444444444444,0.2222222222222222,2.0,2.0,0.9685033186841367,0.0527388827580799,wait_cost,1.0,4.0,609.0631256999914,,zu11,1,2023-03-28_11h13.54.028,threat_forest,2021.2.3,60.03842457677967,False,52.0,0.4365079365079364,0.5099206349206349,-0.5626102292768962,-0.7257495590828926,0,0,0.0,-0.3172596068220363,0.0527388827580799,0.345679012345679,0.345679012345679,0.4444444444444444,0.2222222222222222,0.111111111111111,0.1604938271604937,5.160493827160494,5.160493827160494,0.0,2.0,-1.0,5.0,0,1,0,0,0.0527388827580799,0.597780711322595,0.24043893249324738,0.29135005866526953,0.5986409606933494,0.24026996087349312,0.32143836457015323,0.4701753608165332,0.24911049089757598,0.2861368479636375,0.5698320356203388,0.24512348680111978,0.23206409359790126,0.5468593034250022,0.24780420568252357,0.26471024889048955,0.5486765325138536,0.2476305951824278,0.2783258125981762,0.5428348138728429,0.2481651787204789,0.2983373974603394,0.5412742137506023,0.24829643927926962,0.3293325791940418,0.45028854827481785,0.24752877156737482,0.3715419550403536,0.5327144251971824,0.24892976638401793,0.3618067962851749,0.6188162280342796,0.2358827039557061,0.34127816902351893
17.0,0.0,17.0,0.0,4.0,0.0,4.0,0.0,,,,left,1.3116923000197858,616.6732272999361,zu11,616.6732272999361,,612.1273912999313,614.1417219999712,True,4.0,['r'],True,0.4285714285714285,0.4285714285714285,0.0,0.0,2.0,0.6216097450797565,0.0802570227908263,succ_gain,0.0,6.0,614.1417219999712,,zu11,1,2023-03-28_11h13.54.028,threat_forest,2021.2.3,60.03842457677967,True,52.0,0.4365079365079364,0.5099206349206349,-0.5626102292768962,-0.7257495590828926,1,0,1.0,0.2713181355920965,0.0802570227908263,0.4285714285714285,0.4285714285714285,0.4285714285714285,0.0,0.714285714285714,0.714285714285714,4.7142857142857135,4.7142857142857135,1.0,2.0,-1.0,4.0,0,1,0,1,0.0802570227908263,0.597780711322595,0.24043893249324738,0.29135005866526953,0.5986409606933494,0.24026996087349312,0.32143836457015323,0.4701753608165332,0.24911049089757598,0.2861368479636375,0.49668711948004257,0.2499890248226605,0.32658931759251786,0.4928337510821613,0.24994864487644758,0.2288002973020733,0.5369242017857379,0.24863660332248608,0.2785774168453876,0.5815600694944185,0.2433479550640656,0.19144915684799368,0.6053142344889457,0.23890891201400735,0.26695901423770096,0.6289281902376961,0.2333775217620325,0.1718288389848599,0.6571759237043705,0.22529572900767797,0.3322690204214546,0.7144517763398092,0.20401043562470048,0.2950857697089313
