miniblock.thisRepN,miniblock.thisTrialN,miniblock.thisN,miniblock.thisIndex,day.thisRepN,day.thisTrialN,day.thisN,day.thisIndex,forest.started,fixation_forest.started,fixation_forest.stopped,key_resp.keys,key_resp.rt,key_resp.started,Subject_ID,weather_left.started,weather_left.stopped,weather_right.started,weather_right.stopped,foraging T/F,in_LP,p/r heuristic,good_weather.T/F,p_succ_correct,p_succ_uncorrected,r_threat,n_oponents,gain_if_succ,weather_entropy,OP_value_difference,action_outcome,forest_side_L=0_R=1,out_LP,fixation_day.started,fixation_day.stopped,participant,session,date,expName,psychopyVersion,frameRate,foraging T/F NaNs,fora_NR,forest_mean_p,mvt_cutoff_p,forest_mean_ev,mvt_cutoff_ev,mvt_policy_eg,mvt_policy_p,fora_response,logRT,optimal policy,$\mathit{p}$ success cor + cap,$\mathit{p}$ success cor,$\mathit{p}$ success,risk threat encounter,expected gain naive,expected gain correct,expected state no bounds,expected state with bounds,weather type,gain magnitude,win stay lose shift,continuous energy state,binary energy state,$\mathit{p}$ success based MVT,expected gain based MVT,weather type fit,weather type_uncertain,weather type_uncertain_fit,risk threat encounter fit,risk threat encounter_uncertain,risk threat encounter_uncertain_fit,win stay lose shift fit,win stay lose shift_uncertain,win stay lose shift_uncertain_fit,$\mathit{p}$ success fit,$\mathit{p}$ success_uncertain,$\mathit{p}$ success_uncertain_fit,expected gain naive fit,expected gain naive_uncertain,expected gain naive_uncertain_fit,expected gain based MVT fit,expected gain based MVT_uncertain,expected gain based MVT_uncertain_fit,$\mathit{p}$ success cor fit,$\mathit{p}$ success cor_uncertain,$\mathit{p}$ success cor_uncertain_fit,binary energy state fit,binary energy state_uncertain,binary energy state_uncertain_fit,$\mathit{p}$ success cor + cap fit,$\mathit{p}$ success cor + cap_uncertain,$\mathit{p}$ success cor + cap_uncertain_fit,optimal policy fit,optimal policy_uncertain,optimal policy_uncertain_fit
0.0,0.0,0.0,0.0,0.0,0.0,0.0,0.0,24.66317379998509,28.161902699968778,None,left,0.7166102000046521,29.97690599999624,ri12,24.66317379998509,28.161902699968778,29.97690599999624,None,False,4.0,['p'],False,0.25,0.5,0.5,1.0,1.0,0.9463946303571862,0.0069096320109571,wait_cost,1.0,3.0,,,ri12,1,2023-03-20_13h53.23.493,threat_forest,2021.2.3,60.09893487130529,False,71.0,0.35,0.35,-1.7350000000000003,-1.7350000000000003,0,0,0,-0.3332232403238709,0.0069096320109571,0.25,0.25,0.5,0.5,-2.0,-1.75,2.25,2.25,0.0,1.0,,4.0,0,0,0,0.5174754943950644,0.24969460709564806,0.13284443714161398,0.382290568474892,0.2361444897300359,0.21067869113285953,,,,0.5327665056634213,0.24892635610660896,0.11315130434194276,0.2675057217261066,0.19594641056990142,0.09045783788784575,0.31072648241707773,0.21417553554178723,0.14872600035960915,0.356952230248434,0.22953733556910297,0.11767588565023486,0.41987358133120467,0.24357975703131296,0.14893286317396143,0.2669536240585213,0.19568938666054295,0.19655322772904005,0.3695809819247816,0.23299087972429589,0.20427099100726692
0.0,0.0,0.0,0.0,1.0,0.0,1.0,0.0,,,,right,1.2549220999935642,35.527994700009,ri12,35.527994700009,None,30.72646579996217,32.74106369999936,False,3.0,['p'],True,0.16,0.2,0.2,2.0,1.0,0.8198746470064713,0.0047856218393748,wait_cost,0.0,2.0,32.74106369999936,None,ri12,1,2023-03-20_13h53.23.493,threat_forest,2021.2.3,60.09893487130529,False,71.0,0.35,0.35,-1.7350000000000003,-1.7350000000000003,1,0,0,0.2270734989389428,0.0047856218393748,0.16,0.16,0.2,0.8,-2.0,-1.7200000000000004,1.2799999999999996,1.2799999999999996,1.0,1.0,-1.0,3.0,0,0,1,0.48166258024929437,0.2496637390368864,0.09997207753553994,0.4975396101743048,0.24999394648190557,0.07689888944197953,0.546389444007602,0.24784801948466556,0.11089714597935268,0.3226074326381922,0.2185318770447865,0.11968993507527759,0.2675057217261066,0.19594641056990142,0.09045783788784575,0.6774091331639155,0.2185259994700281,0.08397531147394943,0.24742427444503579,0.18620550286038337,0.09908170056599604,0.41987358133120467,0.24357975703131296,0.14893286317396143,0.12327577440826558,0.10807885785230799,0.07682507067596969,0.3558608706257026,0.22922391138321954,0.20057762549011807
0.0,0.0,0.0,0.0,2.0,0.0,2.0,0.0,,,,right,0.7497033999534324,39.76844089996303,ri12,36.80429199995706,38.818580299965106,39.76844089996303,None,True,2.0,['p'],False,0.25,0.5,0.5,1.0,1.0,0.9463946303571862,0.0092707982812499,unsucc_cost,1.0,0.0,38.81858029996511,None,ri12,1,2023-03-20_13h53.23.493,threat_forest,2021.2.3,60.09893487130529,True,71.0,0.35,0.35,-1.7350000000000003,-1.7350000000000003,0,0,1,-0.2880776173981269,0.0092707982812499,0.25,0.25,0.5,0.5,-2.0,-1.75,0.25,0.25,0.0,1.0,-1.0,2.0,0,0,0,0.5174754943950644,0.24969460709564806,0.13284443714161398,0.382290568474892,0.2361444897300359,0.21067869113285953,0.546389444007602,0.24784801948466556,0.11089714597935268,0.5327665056634213,0.24892635610660896,0.11315130434194276,0.2675057217261066,0.19594641056990142,0.09045783788784575,0.31072648241707773,0.21417553554178723,0.14872600035960915,0.356952230248434,0.22953733556910297,0.11767588565023486,0.41987358133120467,0.24357975703131296,0.14893286317396143,0.2669536240585213,0.19568938666054295,0.19655322772904005,0.385083354989011,0.23679416469941836,0.20799996356746475
1.0,0.0,1.0,0.0,0.0,0.0,0.0,0.0,46.159576200007,49.65847699996084,None,right,1.3176400000229478,51.5437143999734,ri12,46.159576200007,49.65847699996084,51.5437143999734,None,True,5.0,['r'],False,0.3061224489795918,0.4285714285714285,0.2857142857142857,2.0,2.0,0.9885754083994552,-0.0154423019709537,succ_gain,1.0,6.0,,,ri12,1,2023-03-20_13h53.23.493,threat_forest,2021.2.3,60.09893487130529,True,33.0,0.4142857142857142,0.3821428571428571,-0.7306122448979593,-1.23280612244898,1,0,1,0.2758422576649872,-0.0154423019709537,0.3061224489795918,0.3061224489795918,0.4285714285714285,0.7142857142857143,-1.1428571428571432,-1.0612244897959189,3.938775510204081,3.938775510204081,0.0,2.0,-1.0,5.0,0,0,1,0.5174754943950644,0.24969460709564806,0.13284443714161398,0.46403072095431286,0.24870621096493348,0.0893378612498501,0.546389444007602,0.24784801948466556,0.11089714597935268,0.48085451166011484,0.24963345027622727,0.1129991902800625,0.45749057195443066,0.2481929485272385,0.12961828499396227,0.6774091331639155,0.2185259994700281,0.08397531147394943,0.4348728974152675,0.24575846050891767,0.12463655591389491,0.41987358133120467,0.24357975703131296,0.14893286317396143,0.3973040205775108,0.2394535358104557,0.25636111833296293,0.23890573520838443,0.1818297848929257,0.15410953320861326
1.0,0.0,1.0,0.0,1.0,0.0,1.0,0.0,,,,left,0.6178146000020206,55.5200751000084,ri12,46.159576200007,49.65847699996084,55.5200751000084,None,False,6.0,['r'],False,0.3061224489795918,0.4285714285714285,0.2857142857142857,2.0,2.0,0.9885754083994552,-0.1118857253410899,wait_cost,1.0,5.0,54.90366269997321,None,ri12,1,2023-03-20_13h53.23.493,threat_forest,2021.2.3,60.09893487130529,False,33.0,0.4142857142857142,0.3821428571428571,-0.7306122448979593,-1.23280612244898,1,0,0,-0.4815668665301778,-0.1118857253410899,0.3061224489795918,0.3061224489795918,0.4285714285714285,0.7142857142857143,-1.1428571428571432,-1.0612244897959189,4.938775510204081,4.938775510204081,0.0,2.0,1.0,6.0,0,0,1,0.5174754943950644,0.24969460709564806,0.13284443714161398,0.46403072095431286,0.24870621096493348,0.0893378612498501,0.309857685651128,0.2138459002940547,0.14093047546671678,0.48085451166011484,0.24963345027622727,0.1129991902800625,0.45749057195443066,0.2481929485272385,0.12961828499396227,0.6774091331639155,0.2185259994700281,0.08397531147394943,0.4348728974152675,0.24575846050891767,0.12463655591389491,0.41987358133120467,0.24357975703131296,0.14893286317396143,0.3973040205775108,0.2394535358104557,0.25636111833296293,0.020754707745704076,0.020323949852094493,-0.004240638056085686
1.0,0.0,1.0,0.0,2.0,0.0,2.0,0.0,,,,left,1.001222399994731,59.94924220000394,ri12,59.94924220000394,None,56.16958439996233,58.18388510000659,True,5.0,['r'],True,0.4,0.4,0.0,0.0,2.0,0.6126016192893442,0.0900663897782421,unsucc_cost,0.0,3.0,58.18388510000659,None,ri12,1,2023-03-20_13h53.23.493,threat_forest,2021.2.3,60.09893487130529,True,33.0,0.4142857142857142,0.3821428571428571,-0.7306122448979593,-1.23280612244898,1,1,1,0.0012216534721615,0.0900663897782421,0.4,0.4,0.4,1.0,-0.3999999999999999,-0.3999999999999999,4.6,4.6,1.0,2.0,-1.0,5.0,0,1,1,0.48166258024929437,0.2496637390368864,0.09997207753553994,0.5752951451210374,0.24433064112120192,0.131603985940985,0.546389444007602,0.24784801948466556,0.11089714597935268,0.46014253943181377,0.2484113828370555,0.11326208827873271,0.6352564212309597,0.23170570051579312,0.11726056658963763,0.6774091331639155,0.2185259994700281,0.08397531147394943,0.5706122666707575,0.24501390779561782,0.1243170598277466,0.41987358133120467,0.24357975703131296,0.14893286317396143,0.6401288838275563,0.23036389591724318,0.2439392570852985,0.856924990936624,0.1226045508448909,0.0960415014726255
1.0,0.0,1.0,0.0,3.0,0.0,3.0,0.0,,,,right,1.196856199996546,66.61607579997508,ri12,60.98167899996042,62.99608149996493,66.61607579997508,None,True,3.0,['r'],False,0.3061224489795918,0.4285714285714285,0.2857142857142857,2.0,2.0,0.9885754083994552,0.0061171946785325,unsucc_cost,1.0,1.0,62.99608149996493,None,ri12,1,2023-03-20_13h53.23.493,threat_forest,2021.2.3,60.09893487130529,True,33.0,0.4142857142857142,0.3821428571428571,-0.7306122448979593,-1.23280612244898,1,0,1,0.179698285688821,0.0061171946785325,0.3061224489795918,0.3061224489795918,0.4285714285714285,0.7142857142857143,-1.1428571428571432,-1.0612244897959189,1.9387755102040811,1.9387755102040811,0.0,2.0,-1.0,3.0,0,0,1,0.5174754943950644,0.24969460709564806,0.13284443714161398,0.46403072095431286,0.24870621096493348,0.0893378612498501,0.546389444007602,0.24784801948466556,0.11089714597935268,0.48085451166011484,0.24963345027622727,0.1129991902800625,0.45749057195443066,0.2481929485272385,0.12961828499396227,0.6774091331639155,0.2185259994700281,0.08397531147394943,0.4348728974152675,0.24575846050891767,0.12463655591389491,0.41987358133120467,0.24357975703131296,0.14893286317396143,0.3973040205775108,0.2394535358104557,0.25636111833296293,0.3644361470202477,0.23162244176528415,0.20292929096825693
1.0,0.0,1.0,0.0,4.0,0.0,4.0,0.0,,,,left,1.080644099973142,71.45513809996191,ri12,71.45513809996191,None,67.84193789999699,69.85635029996047,True,1.0,['r'],True,0.4,0.4,0.0,0.0,2.0,0.6126016192893442,0.2124131611828403,succ_gain,0.0,3.0,69.85635029996047,None,ri12,1,2023-03-20_13h53.23.493,threat_forest,2021.2.3,60.09893487130529,True,33.0,0.4142857142857142,0.3821428571428571,-0.7306122448979593,-1.23280612244898,1,1,1,0.0775572522309862,0.2124131611828403,1.0,0.4,0.4,1.0,-0.3999999999999999,-0.3999999999999999,0.6000000000000001,0.6000000000000001,1.0,2.0,-1.0,1.0,1,1,1,0.48166258024929437,0.2496637390368864,0.09997207753553994,0.5752951451210374,0.24433064112120192,0.131603985940985,0.546389444007602,0.24784801948466556,0.11089714597935268,0.46014253943181377,0.2484113828370555,0.11326208827873271,0.6352564212309597,0.23170570051579312,0.11726056658963763,0.6774091331639155,0.2185259994700281,0.08397531147394943,0.5706122666707575,0.24501390779561782,0.1243170598277466,0.9803923672855456,0.019223173453789422,-0.08868908455826238,0.9990132966922722,0.0009857297243101716,-0.06952791952089234,0.9945638195469273,0.005406628395154423,-0.018866489852213283
1.0,0.0,1.0,0.0,5.0,0.0,5.0,0.0,,,,right,1.0187097000307404,76.05534909997368,ri12,72.55415019998327,74.56871959997807,76.05534909997368,None,True,3.0,['r'],False,0.3061224489795918,0.4285714285714285,0.2857142857142857,2.0,2.0,0.9885754083994552,0.0736984589754268,unsucc_cost,1.0,1.0,74.56871959997807,None,ri12,1,2023-03-20_13h53.23.493,threat_forest,2021.2.3,60.09893487130529,True,33.0,0.4142857142857142,0.3821428571428571,-0.7306122448979593,-1.23280612244898,1,0,1,0.0185368265384531,0.0736984589754268,0.3061224489795918,0.3061224489795918,0.4285714285714285,0.7142857142857143,-1.1428571428571432,-1.0612244897959189,1.9387755102040811,1.9387755102040811,0.0,2.0,1.0,3.0,0,0,1,0.5174754943950644,0.24969460709564806,0.13284443714161398,0.46403072095431286,0.24870621096493348,0.0893378612498501,0.309857685651128,0.2138459002940547,0.14093047546671678,0.48085451166011484,0.24963345027622727,0.1129991902800625,0.45749057195443066,0.2481929485272385,0.12961828499396227,0.6774091331639155,0.2185259994700281,0.08397531147394943,0.4348728974152675,0.24575846050891767,0.12463655591389491,0.41987358133120467,0.24357975703131296,0.14893286317396143,0.3973040205775108,0.2394535358104557,0.25636111833296293,0.7912611286433362,0.16516695494140998,0.1377722784220602
1.0,0.0,1.0,0.0,6.0,0.0,6.0,0.0,,,,left,0.8995884000323713,79.96479050000198,ri12,79.96479050000198,None,77.09981859999243,79.11436989996582,True,1.0,['r'],True,0.4,0.4,0.0,0.0,2.0,0.6126016192893442,0.4,unsucc_cost,0.0,0.0,79.11436989996582,None,ri12,1,2023-03-20_13h53.23.493,threat_forest,2021.2.3,60.09893487130529,True,33.0,0.4142857142857142,0.3821428571428571,-0.7306122448979593,-1.23280612244898,1,1,1,-0.1058179535639592,0.4,1.0,0.4,0.4,1.0,-0.3999999999999999,-0.3999999999999999,0.6000000000000001,0.6000000000000001,1.0,2.0,-1.0,1.0,1,1,1,0.48166258024929437,0.2496637390368864,0.09997207753553994,0.5752951451210374,0.24433064112120192,0.131603985940985,0.546389444007602,0.24784801948466556,0.11089714597935268,0.46014253943181377,0.2484113828370555,0.11326208827873271,0.6352564212309597,0.23170570051579312,0.11726056658963763,0.6774091331639155,0.2185259994700281,0.08397531147394943,0.5706122666707575,0.24501390779561782,0.1243170598277466,0.9803923672855456,0.019223173453789422,-0.08868908455826238,0.9990132966922722,0.0009857297243101716,-0.06952791952089234,0.9999711031525828,2.88960123893479e-05,-0.024139146679821265
2.0,0.0,2.0,0.0,0.0,0.0,0.0,0.0,84.16903879999882,87.67310829996131,None,right,1.6930942999897525,90.12319399998523,ri12,90.12319399998523,None,84.16903879999882,87.67310829996131,False,4.0,['p'],True,0.18,0.2,0.1,1.0,1.0,0.7058405977926203,-0.0012447101888581,wait_cost,0.0,3.0,,,ri12,1,2023-03-20_13h53.23.493,threat_forest,2021.2.3,60.09893487130529,False,11.0,0.35,0.3821428571428571,-1.3425000000000002,-1.03655612244898,0,0,0,0.5265578015346949,-0.0012447101888581,0.18,0.18,0.2,0.9,-1.7000000000000002,-1.5600000000000005,2.4399999999999995,2.4399999999999995,1.0,1.0,-1.0,4.0,0,0,0,0.48166258024929437,0.2496637390368864,0.09997207753553994,0.5366400895051803,0.24865750384105237,0.0898083511391281,0.546389444007602,0.24784801948466556,0.11089714597935268,0.3226074326381922,0.2185318770447865,0.11968993507527759,0.3286247521340339,0.22063052441887868,0.10895936875547113,0.31072648241707773,0.21417553554178723,0.14872600035960915,0.26972830121532515,0.19697494473882,0.10370299126670779,0.41987358133120467,0.24357975703131296,0.14893286317396143,0.14801009081781308,0.12610310383391582,0.1014569246666315,0.3182326775110356,0.21696064047519284,0.18855396672843625
2.0,0.0,2.0,0.0,1.0,0.0,1.0,0.0,,,,right,0.8627309000003152,97.09800790000008,ri12,91.83616649999747,93.85064959997544,97.09800790000008,None,True,3.0,['p'],False,0.375,0.5,0.25,1.0,1.0,0.9850568223215076,0.0399199646186828,succ_gain,1.0,4.0,93.85064959997544,None,ri12,1,2023-03-20_13h53.23.493,threat_forest,2021.2.3,60.09893487130529,True,11.0,0.35,0.3821428571428571,-1.3425000000000002,-1.03655612244898,0,0,1,-0.147652455759296,0.0399199646186828,0.375,0.375,0.5,0.75,-1.25,-1.125,1.875,1.875,0.0,1.0,-1.0,3.0,0,0,0,0.5174754943950644,0.24969460709564806,0.13284443714161398,0.4779707126030849,0.24951471049678411,0.08152810315059877,0.546389444007602,0.24784801948466556,0.11089714597935268,0.5327665056634213,0.24892635610660896,0.11315130434194276,0.43166594413785225,0.2453304568094289,0.12747275612469033,0.31072648241707773,0.21417553554178723,0.14872600035960915,0.5346581250693851,0.24879881436667492,0.1259412065325922,0.41987358133120467,0.24357975703131296,0.14893286317396143,0.5772710322455877,0.24402918757570133,0.26261418358233046,0.5959289229269902,0.24079764174606763,0.21192521664473551
2.0,0.0,2.0,0.0,2.0,0.0,2.0,0.0,,,,right,1.1004705999512223,101.9270321999793,ri12,91.83616649999747,93.85064959997544,101.9270321999793,None,True,4.0,['p'],False,0.375,0.5,0.25,1.0,1.0,0.9850568223215076,0.0613130855712892,succ_gain,1.0,5.0,99.99482399999395,None,ri12,1,2023-03-20_13h53.23.493,threat_forest,2021.2.3,60.09893487130529,True,11.0,0.35,0.3821428571428571,-1.3425000000000002,-1.03655612244898,0,0,1,0.0957379064537129,0.0613130855712892,0.375,0.375,0.5,0.75,-1.25,-1.125,2.875,2.875,0.0,1.0,1.0,4.0,0,0,0,0.5174754943950644,0.24969460709564806,0.13284443714161398,0.4779707126030849,0.24951471049678411,0.08152810315059877,0.309857685651128,0.2138459002940547,0.14093047546671678,0.5327665056634213,0.24892635610660896,0.11315130434194276,0.43166594413785225,0.2453304568094289,0.12747275612469033,0.31072648241707773,0.21417553554178723,0.14872600035960915,0.5346581250693851,0.24879881436667492,0.1259412065325922,0.41987358133120467,0.24357975703131296,0.14893286317396143,0.5772710322455877,0.24402918757570133,0.26261418358233046,0.7283778179762893,0.19784357225638885,0.16981042705532645
2.0,0.0,2.0,0.0,3.0,0.0,3.0,0.0,,,,right,0.8958033999660984,108.21115799999096,ri12,108.21115799999096,None,103.05907739995746,105.07348640001146,False,5.0,['p'],True,0.18,0.2,0.1,1.0,1.0,0.7058405977926203,-0.0174536015625,wait_cost,0.0,4.0,105.07348640001146,None,ri12,1,2023-03-20_13h53.23.493,threat_forest,2021.2.3,60.09893487130529,False,11.0,0.35,0.3821428571428571,-1.3425000000000002,-1.03655612244898,0,0,0,-0.1100343097639204,-0.0174536015625,0.18,0.18,0.2,0.9,-1.7000000000000002,-1.5600000000000005,3.4399999999999995,3.4399999999999995,1.0,1.0,1.0,5.0,0,0,0,0.48166258024929437,0.2496637390368864,0.09997207753553994,0.5366400895051803,0.24865750384105237,0.0898083511391281,0.309857685651128,0.2138459002940547,0.14093047546671678,0.3226074326381922,0.2185318770447865,0.11968993507527759,0.3286247521340339,0.22063052441887868,0.10895936875547113,0.31072648241707773,0.21417553554178723,0.14872600035960915,0.26972830121532515,0.19697494473882,0.10370299126670779,0.41987358133120467,0.24357975703131296,0.14893286317396143,0.14801009081781308,0.12610310383391582,0.1014569246666315,0.22883550199923106,0.176469815023991,0.14885429183293877
2.0,0.0,2.0,0.0,4.0,0.0,4.0,0.0,,,,right,1.0176001999643631,112.13394219998736,ri12,112.13394219998736,None,103.05907739995746,105.07348640001146,False,4.0,['p'],True,0.18,0.2,0.1,1.0,1.0,0.7058405977926203,-0.0054778125,wait_cost,0.0,3.0,111.1511160999653,None,ri12,1,2023-03-20_13h53.23.493,threat_forest,2021.2.3,60.09893487130529,False,11.0,0.35,0.3821428571428571,-1.3425000000000002,-1.03655612244898,0,0,0,0.0174471101095613,-0.0054778125,0.18,0.18,0.2,0.9,-1.7000000000000002,-1.5600000000000005,2.4399999999999995,2.4399999999999995,1.0,1.0,-1.0,4.0,0,0,0,0.48166258024929437,0.2496637390368864,0.09997207753553994,0.5366400895051803,0.24865750384105237,0.0898083511391281,0.546389444007602,0.24784801948466556,0.11089714597935268,0.3226074326381922,0.2185318770447865,0.11968993507527759,0.3286247521340339,0.22063052441887868,0.10895936875547113,0.31072648241707773,0.21417553554178723,0.14872600035960915,0.26972830121532515,0.19697494473882,0.10370299126670779,0.41987358133120467,0.24357975703131296,0.14893286317396143,0.14801009081781308,0.12610310383391582,0.1014569246666315,0.29313449952614146,0.20720666471370003,0.17899057397576185
2.0,0.0,2.0,0.0,5.0,0.0,5.0,0.0,,,,right,1.360416700015776,118.095120199956,ri12,118.095120199956,None,103.05907739995746,105.07348640001146,False,3.0,['p'],True,0.18,0.2,0.1,1.0,1.0,0.7058405977926203,0.0535499999999999,wait_cost,0.0,2.0,115.1973447999917,None,ri12,1,2023-03-20_13h53.23.493,threat_forest,2021.2.3,60.09893487130529,False,11.0,0.35,0.3821428571428571,-1.3425000000000002,-1.03655612244898,0,0,0,0.3077910498883877,0.0535499999999999,0.18,0.18,0.2,0.9,-1.7000000000000002,-1.5600000000000005,1.4399999999999995,1.4399999999999995,1.0,1.0,-1.0,3.0,0,0,0,0.48166258024929437,0.2496637390368864,0.09997207753553994,0.5366400895051803,0.24865750384105237,0.0898083511391281,0.546389444007602,0.24784801948466556,0.11089714597935268,0.3226074326381922,0.2185318770447865,0.11968993507527759,0.3286247521340339,0.22063052441887868,0.10895936875547113,0.31072648241707773,0.21417553554178723,0.14872600035960915,0.26972830121532515,0.19697494473882,0.10370299126670779,0.41987358133120467,0.24357975703131296,0.14893286317396143,0.14801009081781308,0.12610310383391582,0.1014569246666315,0.6834022400612565,0.21636361834051326,0.18796860981392335
2.0,0.0,2.0,0.0,6.0,0.0,6.0,0.0,,,,right,1.2519813000108115,122.45759969996288,ri12,119.47735249996184,121.49154059996363,122.45759969996288,None,True,2.0,['p'],False,0.375,0.5,0.25,1.0,1.0,0.9850568223215076,0.0975,succ_gain,1.0,3.0,121.49154059996364,None,ri12,1,2023-03-20_13h53.23.493,threat_forest,2021.2.3,60.09893487130529,True,11.0,0.35,0.3821428571428571,-1.3425000000000002,-1.03655612244898,0,0,1,0.2247273364727612,0.0975,0.375,0.375,0.5,0.75,-1.25,-1.125,0.875,0.875,0.0,1.0,-1.0,2.0,0,0,0,0.5174754943950644,0.24969460709564806,0.13284443714161398,0.4779707126030849,0.24951471049678411,0.08152810315059877,0.546389444007602,0.24784801948466556,0.11089714597935268,0.5327665056634213,0.24892635610660896,0.11315130434194276,0.43166594413785225,0.2453304568094289,0.12747275612469033,0.31072648241707773,0.21417553554178723,0.14872600035960915,0.5346581250693851,0.24879881436667492,0.1259412065325922,0.41987358133120467,0.24357975703131296,0.14893286317396143,0.5772710322455877,0.24402918757570133,0.26261418358233046,0.8805585089593696,0.10517522125862144,0.07895272369368705
2.0,0.0,2.0,0.0,7.0,0.0,7.0,0.0,,,,right,0.8877021999796852,128.23808839998674,ri12,128.23808839998674,None,123.7396741999546,125.75420719996328,False,3.0,['p'],True,0.18,0.2,0.1,1.0,1.0,0.7058405977926203,-0.1,wait_cost,0.0,2.0,125.75420719996328,None,ri12,1,2023-03-20_13h53.23.493,threat_forest,2021.2.3,60.09893487130529,False,11.0,0.35,0.3821428571428571,-1.3425000000000002,-1.03655612244898,0,0,0,-0.119118952619073,-0.1,0.0,0.18,0.2,0.9,-1.7000000000000002,-1.5600000000000005,1.4399999999999995,1.4399999999999995,1.0,1.0,1.0,3.0,0,0,0,0.48166258024929437,0.2496637390368864,0.09997207753553994,0.5366400895051803,0.24865750384105237,0.0898083511391281,0.309857685651128,0.2138459002940547,0.14093047546671678,0.3226074326381922,0.2185318770447865,0.11968993507527759,0.3286247521340339,0.22063052441887868,0.10895936875547113,0.31072648241707773,0.21417553554178723,0.14872600035960915,0.26972830121532515,0.19697494473882,0.10370299126670779,0.41987358133120467,0.24357975703131296,0.14893286317396143,0.025244869400303065,0.02460756596926471,-0.037246423697390466,0.028697257068918236,0.027873724505638662,0.0031616214913564172
3.0,0.0,3.0,0.0,0.0,0.0,0.0,0.0,132.20350000000326,135.71155439998256,None,left,1.044636200007517,138.29494950000662,ri12,138.29494950000662,None,132.20350000000326,135.71155439998256,True,4.0,['r'],True,0.4081632653061224,0.5714285714285714,0.2857142857142857,2.0,1.0,0.9885754083994552,0.0257810571799274,figh_cost,0.0,1.0,,,ri12,1,2023-03-20_13h53.23.493,threat_forest,2021.2.3,60.09893487130529,True,27.0,0.5357142857142857,0.4428571428571428,-0.7806122448979592,-1.0615561224489798,1,0,1,0.0436686908399792,0.0257810571799274,0.4081632653061224,0.4081632653061224,0.5714285714285714,0.7142857142857143,-1.1428571428571428,-1.0612244897959184,2.9387755102040813,2.9387755102040813,1.0,1.0,-1.0,4.0,0,0,1,0.48166258024929437,0.2496637390368864,0.09997207753553994,0.46403072095431286,0.24870621096493348,0.0893378612498501,0.546389444007602,0.24784801948466556,0.11089714597935268,0.5839786100094156,0.24294759306088642,0.1144374893664853,0.4574905719544309,0.24819294852723855,0.12961828499396233,0.6774091331639155,0.2185259994700281,0.08397531147394943,0.5822113901228004,0.24324128733407674,0.1235564081108537,0.41987358133120467,0.24357975703131296,0.14893286317396143,0.6597633129394417,0.22447568383861408,0.23589245277876375,0.49834703962189203,0.2499972677219884,0.22094509105664104
3.0,0.0,3.0,0.0,1.0,0.0,1.0,0.0,,,,left,1.6700368999736384,144.58686729997862,ri12,144.58686729997862,None,132.20350000000326,135.71155439998256,True,1.0,['r'],True,0.4081632653061224,0.5714285714285714,0.2857142857142857,2.0,1.0,0.9885754083994552,0.0740676203180814,succ_gain,0.0,2.0,141.37300510000205,None,ri12,1,2023-03-20_13h53.23.493,threat_forest,2021.2.3,60.09893487130529,True,27.0,0.5357142857142857,0.4428571428571428,-0.7806122448979592,-1.0615561224489798,1,0,1,0.5128457219771532,0.0740676203180814,1.0,0.4081632653061224,0.5714285714285714,0.7142857142857143,-1.1428571428571428,-1.0612244897959184,-0.0612244897959184,0.0,1.0,1.0,-1.0,1.0,1,0,1,0.48166258024929437,0.2496637390368864,0.09997207753553994,0.46403072095431286,0.24870621096493348,0.0893378612498501,0.546389444007602,0.24784801948466556,0.11089714597935268,0.5839786100094156,0.24294759306088642,0.1144374893664853,0.4574905719544309,0.24819294852723855,0.12961828499396233,0.6774091331639155,0.2185259994700281,0.08397531147394943,0.5822113901228004,0.24324128733407674,0.1235564081108537,0.9803923672855456,0.019223173453789422,-0.08868908455826238,0.9990132966922722,0.0009857297243101716,-0.06952791952089234,0.7929600384606478,0.16417441586513581,0.1367991325745731
3.0,0.0,3.0,0.0,2.0,0.0,2.0,0.0,,,,right,1.3236993000027724,149.0828288999619,ri12,146.28565589996288,148.29968050000025,149.0828288999619,None,True,2.0,['r'],False,0.5,0.5,0.0,0.0,1.0,0.6309297535714574,0.0684515063919812,unsucc_cost,1.0,0.0,148.29968050000025,None,ri12,1,2023-03-20_13h53.23.493,threat_forest,2021.2.3,60.09893487130529,True,27.0,0.5357142857142857,0.4428571428571428,-0.7806122448979592,-1.0615561224489798,1,1,1,0.2804303169188128,0.0684515063919812,0.5,0.5,0.5,1.0,-0.5,-0.5,1.5,1.5,0.0,1.0,1.0,2.0,0,1,1,0.5174754943950644,0.24969460709564806,0.13284443714161398,0.5752951451210374,0.24433064112120192,0.131603985940985,0.309857685651128,0.2138459002940547,0.14093047546671678,0.5327665056634213,0.24892635610660896,0.11315130434194276,0.6123496934682962,0.23737754637757985,0.1215117960212588,0.6774091331639155,0.2185259994700281,0.08397531147394943,0.7039809314829181,0.20839177959136113,0.10860208569807764,0.41987358133120467,0.24357975703131296,0.14893286317396143,0.8366205636168463,0.13668659615027667,0.11592027795829787,0.7660081461421635,0.17923966618600934,0.15157002285140286
4.0,0.0,4.0,0.0,0.0,0.0,0.0,0.0,154.98669069999596,158.490202499961,None,left,0.8092499999911524,159.75664089998463,ri12,159.75664089998463,None,154.98669069999596,158.49020249996101,True,4.0,['p'],True,0.375,0.5,0.25,1.0,2.0,0.9850568223215076,0.0640175729863931,succ_gain,0.0,6.0,,,ri12,1,2023-03-20_13h53.23.493,threat_forest,2021.2.3,60.09893487130529,True,59.0,0.3611111111111111,0.4484126984126984,-1.1404320987654322,-0.9605221718316956,1,0,1,-0.2116473861867163,0.0640175729863931,0.375,0.375,0.5,0.75,-0.75,-0.75,3.25,3.25,1.0,2.0,-1.0,4.0,0,0,1,0.48166258024929437,0.2496637390368864,0.09997207753553994,0.4779707126030849,0.24951471049678411,0.08152810315059877,0.546389444007602,0.24784801948466556,0.11089714597935268,0.5327665056634213,0.24892635610660896,0.11315130434194276,0.5530777916473912,0.24718274803383605,0.128861107494072,0.6774091331639155,0.2185259994700281,0.08397531147394943,0.5346581250693851,0.24879881436667492,0.1259412065325922,0.41987358133120467,0.24357975703131296,0.14893286317396143,0.5772710322455877,0.24402918757570133,0.26261418358233046,0.7430707685520356,0.19091660147552272,0.16301880241081496
4.0,0.0,4.0,0.0,1.0,0.0,1.0,0.0,,,,left,1.038632999989204,164.24022719997447,ri12,160.58858509996207,162.60318119998556,164.24022719997447,None,False,6.0,['p'],False,0.1728395061728395,0.2222222222222222,0.2222222222222222,2.0,2.0,0.8571721972794328,-0.10870870610332,wait_cost,1.0,5.0,162.60318119998556,None,ri12,1,2023-03-20_13h53.23.493,threat_forest,2021.2.3,60.09893487130529,False,59.0,0.3611111111111111,0.4484126984126984,-1.1404320987654322,-0.9605221718316956,0,0,0,0.0379054254542245,-0.10870870610332,0.1728395061728395,0.1728395061728395,0.2222222222222222,0.7777777777777778,-1.7777777777777777,-1.5308641975308643,4.469135802469136,4.469135802469136,0.0,2.0,1.0,6.0,0,0,0,0.5174754943950644,0.24969460709564806,0.13284443714161398,0.48883782366131157,0.24987540581938403,0.07804394130997405,0.309857685651128,0.2138459002940547,0.14093047546671678,0.3368992549986148,0.2233981469799931,0.1186430758055291,0.3120936355653196,0.21469119820494106,0.10450765426604797,0.31072648241707773,0.21417553554178723,0.14872600035960915,0.26159905083165613,0.19316498743563276,0.10206809500615209,0.41987358133120467,0.24357975703131296,0.14893286317396143,0.13871460854767131,0.11947286592313765,0.0923960711747136,0.022638151169815653,0.022125665281428234,-0.0024741263586407006
4.0,0.0,4.0,0.0,2.0,0.0,2.0,0.0,,,,left,0.9126618999871424,168.0319981999928,ri12,160.58858509996207,162.60318119998556,168.0319981999928,None,False,5.0,['p'],False,0.1728395061728395,0.2222222222222222,0.2222222222222222,2.0,2.0,0.8571721972794328,-0.0361377939425744,wait_cost,1.0,4.0,167.315388899995,None,ri12,1,2023-03-20_13h53.23.493,threat_forest,2021.2.3,60.09893487130529,False,59.0,0.3611111111111111,0.4484126984126984,-1.1404320987654322,-0.9605221718316956,0,0,0,-0.0913897846199372,-0.0361377939425744,0.1728395061728395,0.1728395061728395,0.2222222222222222,0.7777777777777778,-1.7777777777777777,-1.5308641975308643,3.469135802469136,3.469135802469136,0.0,2.0,-1.0,5.0,0,0,0,0.5174754943950644,0.24969460709564806,0.13284443714161398,0.48883782366131157,0.24987540581938403,0.07804394130997405,0.546389444007602,0.24784801948466556,0.11089714597935268,0.3368992549986148,0.2233981469799931,0.1186430758055291,0.3120936355653196,0.21469119820494106,0.10450765426604797,0.31072648241707773,0.21417553554178723,0.14872600035960915,0.26159905083165613,0.19316498743563276,0.10206809500615209,0.41987358133120467,0.24357975703131296,0.14893286317396143,0.13871460854767131,0.11947286592313765,0.0923960711747136,0.14968565649184568,0.12727986073245084,0.10062546044366508
4.0,0.0,4.0,0.0,3.0,0.0,3.0,0.0,,,,left,1.2264910000376403,173.79309920000378,ri12,160.58858509996207,162.60318119998556,173.79309920000378,None,False,4.0,['p'],False,0.1728395061728395,0.2222222222222222,0.2222222222222222,2.0,2.0,0.8571721972794328,-0.0141708501176583,wait_cost,1.0,3.0,170.9785629999824,None,ri12,1,2023-03-20_13h53.23.493,threat_forest,2021.2.3,60.09893487130529,False,59.0,0.3611111111111111,0.4484126984126984,-1.1404320987654322,-0.9605221718316956,0,0,0,0.2041572467666471,-0.0141708501176583,0.1728395061728395,0.1728395061728395,0.2222222222222222,0.7777777777777778,-1.7777777777777777,-1.5308641975308643,2.469135802469136,2.469135802469136,0.0,2.0,-1.0,4.0,0,0,0,0.5174754943950644,0.24969460709564806,0.13284443714161398,0.48883782366131157,0.24987540581938403,0.07804394130997405,0.546389444007602,0.24784801948466556,0.11089714597935268,0.3368992549986148,0.2233981469799931,0.1186430758055291,0.3120936355653196,0.21469119820494106,0.10450765426604797,0.31072648241707773,0.21417553554178723,0.14872600035960915,0.26159905083165613,0.19316498743563276,0.10206809500615209,0.41987358133120467,0.24357975703131296,0.14893286317396143,0.13871460854767131,0.11947286592313765,0.0923960711747136,0.24542659253714022,0.18519238021274875,0.15740642675213903
4.0,0.0,4.0,0.0,4.0,0.0,4.0,0.0,,,,right,0.8928937999880873,178.50538369995775,ri12,160.58858509996207,162.60318119998556,178.50538369995775,None,True,3.0,['p'],False,0.1728395061728395,0.2222222222222222,0.2222222222222222,2.0,2.0,0.8571721972794328,0.0140841716201798,unsucc_cost,1.0,1.0,177.0561668999726,None,ri12,1,2023-03-20_13h53.23.493,threat_forest,2021.2.3,60.09893487130529,True,59.0,0.3611111111111111,0.4484126984126984,-1.1404320987654322,-0.9605221718316956,0,0,1,-0.1132876301631194,0.0140841716201798,0.1728395061728395,0.1728395061728395,0.2222222222222222,0.7777777777777778,-1.7777777777777777,-1.5308641975308643,1.4691358024691357,1.4691358024691357,0.0,2.0,-1.0,3.0,0,0,0,0.5174754943950644,0.24969460709564806,0.13284443714161398,0.48883782366131157,0.24987540581938403,0.07804394130997405,0.546389444007602,0.24784801948466556,0.11089714597935268,0.3368992549986148,0.2233981469799931,0.1186430758055291,0.3120936355653196,0.21469119820494106,0.10450765426604797,0.31072648241707773,0.21417553554178723,0.14872600035960915,0.26159905083165613,0.19316498743563276,0.10206809500615209,0.41987358133120467,0.24357975703131296,0.14893286317396143,0.13871460854767131,0.11947286592313765,0.0923960711747136,0.4173876262167209,0.24317519569789178,0.21425631555126873
4.0,0.0,4.0,0.0,5.0,0.0,5.0,0.0,,,,left,1.076337899954524,182.25197079998907,ri12,182.25197079998907,None,179.4210485999938,181.4354034999851,True,1.0,['p'],True,0.375,0.5,0.25,1.0,2.0,0.9850568223215076,0.375,succ_gain,0.0,3.0,181.4354034999851,None,ri12,1,2023-03-20_13h53.23.493,threat_forest,2021.2.3,60.09893487130529,True,59.0,0.3611111111111111,0.4484126984126984,-1.1404320987654322,-0.9605221718316956,1,0,1,0.0735644458564054,0.375,1.0,0.375,0.5,0.75,-0.75,-0.75,0.25,0.25,1.0,2.0,-1.0,1.0,1,0,1,0.48166258024929437,0.2496637390368864,0.09997207753553994,0.4779707126030849,0.24951471049678411,0.08152810315059877,0.546389444007602,0.24784801948466556,0.11089714597935268,0.5327665056634213,0.24892635610660896,0.11315130434194276,0.5530777916473912,0.24718274803383605,0.128861107494072,0.6774091331639155,0.2185259994700281,0.08397531147394943,0.5346581250693851,0.24879881436667492,0.1259412065325922,0.9803923672855456,0.019223173453789422,-0.08868908455826238,0.9990132966922722,0.0009857297243101716,-0.06952791952089234,0.9999418873959774,5.81092269477999e-05,-0.024110504262490933
4.0,0.0,4.0,0.0,6.0,0.0,6.0,0.0,,,,left,1.208083199977409,186.99774059996707,ri12,186.99774059996707,None,179.4210485999938,181.4354034999851,True,3.0,['p'],True,0.375,0.5,0.25,1.0,2.0,0.9850568223215076,-0.5222800925925926,succ_gain,0.0,5.0,185.36537529999623,None,ri12,1,2023-03-20_13h53.23.493,threat_forest,2021.2.3,60.09893487130529,True,59.0,0.3611111111111111,0.4484126984126984,-1.1404320987654322,-0.9605221718316956,1,0,1,0.1890349712943919,-0.5222800925925926,0.0,0.375,0.5,0.75,-0.75,-0.75,2.25,2.25,1.0,2.0,1.0,3.0,0,0,1,0.48166258024929437,0.2496637390368864,0.09997207753553994,0.4779707126030849,0.24951471049678411,0.08152810315059877,0.309857685651128,0.2138459002940547,0.14093047546671678,0.5327665056634213,0.24892635610660896,0.11315130434194276,0.5530777916473912,0.24718274803383605,0.128861107494072,0.6774091331639155,0.2185259994700281,0.08397531147394943,0.5346581250693851,0.24879881436667492,0.1259412065325922,0.41987358133120467,0.24357975703131296,0.14893286317396143,0.025244869400303065,0.02460756596926471,-0.037246423697390466,2.21383110483539e-07,2.2138306147305758e-07,-0.02416726103534206
4.0,0.0,4.0,0.0,7.0,0.0,7.0,0.0,,,,right,0.617149600002449,192.7253273999668,ri12,192.7253273999668,None,179.4210485999938,181.4354034999851,False,5.0,['p'],True,0.375,0.5,0.25,1.0,2.0,0.9850568223215076,0.0,wait_cost,0.0,4.0,190.2439268999733,None,ri12,1,2023-03-20_13h53.23.493,threat_forest,2021.2.3,60.09893487130529,False,59.0,0.3611111111111111,0.4484126984126984,-1.1404320987654322,-0.9605221718316956,1,0,0,-0.4826438209290877,0.0,0.0,0.375,0.5,0.75,-0.75,-0.75,4.25,4.25,1.0,2.0,1.0,5.0,0,0,1,0.48166258024929437,0.2496637390368864,0.09997207753553994,0.4779707126030849,0.24951471049678411,0.08152810315059877,0.309857685651128,0.2138459002940547,0.14093047546671678,0.5327665056634213,0.24892635610660896,0.11315130434194276,0.5530777916473912,0.24718274803383605,0.128861107494072,0.6774091331639155,0.2185259994700281,0.08397531147394943,0.5346581250693851,0.24879881436667492,0.1259412065325922,0.41987358133120467,0.24357975703131296,0.14893286317396143,0.025244869400303065,0.02460756596926471,-0.037246423697390466,0.32582715231557247,0.2196638191294972,0.1912043279538369
5.0,0.0,5.0,0.0,0.0,0.0,0.0,0.0,197.1239373999997,200.63430309999967,None,left,0.6842975000035949,202.68294420000169,ri12,202.68294420000169,None,197.1239373999997,200.63430309999967,True,5.0,['r'],True,0.5,0.5,0.0,0.0,1.0,0.6309297535714574,0.0772781267414693,succ_gain,0.0,6.0,,,ri12,1,2023-03-20_13h53.23.493,threat_forest,2021.2.3,60.09893487130529,True,30.0,0.5833333333333333,0.4722222222222222,-1.25,-1.195216049382716,1,1,1,-0.3793625143935108,0.0772781267414693,0.5,0.5,0.5,1.0,-0.5,-0.5,4.5,4.5,1.0,1.0,-1.0,5.0,0,1,1,0.48166258024929437,0.2496637390368864,0.09997207753553994,0.5752951451210374,0.24433064112120192,0.131603985940985,0.546389444007602,0.24784801948466556,0.11089714597935268,0.5327665056634213,0.24892635610660896,0.11315130434194276,0.6123496934682962,0.23737754637757985,0.1215117960212588,0.6774091331639155,0.2185259994700281,0.08397531147394943,0.7039809314829181,0.20839177959136113,0.10860208569807764,0.41987358133120467,0.24357975703131296,0.14893286317396143,0.8366205636168463,0.13668659615027667,0.11592027795829787,0.8073038588052359,0.15556433836341169,0.12835728744460825
5.0,0.0,5.0,0.0,1.0,0.0,1.0,0.0,,,,right,1.607360499969218,207.84453639999265,ri12,207.84453639999265,None,197.1239373999997,200.63430309999967,False,6.0,['r'],True,0.5,0.5,0.0,0.0,1.0,0.6309297535714574,-0.0479600694444443,wait_cost,0.0,5.0,205.413158099982,None,ri12,1,2023-03-20_13h53.23.493,threat_forest,2021.2.3,60.09893487130529,False,30.0,0.5833333333333333,0.4722222222222222,-1.25,-1.195216049382716,1,1,0,0.4745933926294259,-0.0479600694444443,0.5,0.5,0.5,1.0,-0.5,-0.5,5.5,5.5,1.0,1.0,1.0,6.0,0,1,1,0.48166258024929437,0.2496637390368864,0.09997207753553994,0.5752951451210374,0.24433064112120192,0.131603985940985,0.309857685651128,0.2138459002940547,0.14093047546671678,0.5327665056634213,0.24892635610660896,0.11315130434194276,0.6123496934682962,0.23737754637757985,0.1215117960212588,0.6774091331639155,0.2185259994700281,0.08397531147394943,0.7039809314829181,0.20839177959136113,0.10860208569807764,0.41987358133120467,0.24357975703131296,0.14893286317396143,0.8366205636168463,0.13668659615027667,0.11592027795829787,0.11229922229095424,0.09968810696380107,0.07357282216806034
5.0,0.0,5.0,0.0,2.0,0.0,2.0,0.0,,,,left,0.5348767999676056,214.10529189999207,ri12,214.10529189999207,None,197.1239373999997,200.63430309999967,True,5.0,['r'],True,0.5,0.5,0.0,0.0,1.0,0.6309297535714574,0.0967881944444444,unsucc_cost,0.0,3.0,211.490802299988,None,ri12,1,2023-03-20_13h53.23.493,threat_forest,2021.2.3,60.09893487130529,True,30.0,0.5833333333333333,0.4722222222222222,-1.25,-1.195216049382716,1,1,1,-0.625718839039123,0.0967881944444444,0.5,0.5,0.5,1.0,-0.5,-0.5,4.5,4.5,1.0,1.0,-1.0,5.0,0,1,1,0.48166258024929437,0.2496637390368864,0.09997207753553994,0.5752951451210374,0.24433064112120192,0.131603985940985,0.546389444007602,0.24784801948466556,0.11089714597935268,0.5327665056634213,0.24892635610660896,0.11315130434194276,0.6123496934682962,0.23737754637757985,0.1215117960212588,0.6774091331639155,0.2185259994700281,0.08397531147394943,0.7039809314829181,0.20839177959136113,0.10860208569807764,0.41987358133120467,0.24357975703131296,0.14893286317396143,0.8366205636168463,0.13668659615027667,0.11592027795829787,0.878450373351024,0.10677531491047058,0.08052155310313726
5.0,0.0,5.0,0.0,3.0,0.0,3.0,0.0,,,,left,0.987036900012754,220.34978619997847,ri12,220.34978619997847,None,197.1239373999997,200.63430309999967,True,3.0,['r'],True,0.5,0.5,0.0,0.0,1.0,0.6309297535714574,0.1788194444444444,unsucc_cost,0.0,1.0,216.6859196999576,None,ri12,1,2023-03-20_13h53.23.493,threat_forest,2021.2.3,60.09893487130529,True,30.0,0.5833333333333333,0.4722222222222222,-1.25,-1.195216049382716,1,1,1,-0.0130478542163366,0.1788194444444444,0.5,0.5,0.5,1.0,-0.5,-0.5,2.5,2.5,1.0,1.0,-1.0,3.0,0,1,1,0.48166258024929437,0.2496637390368864,0.09997207753553994,0.5752951451210374,0.24433064112120192,0.131603985940985,0.546389444007602,0.24784801948466556,0.11089714597935268,0.5327665056634213,0.24892635610660896,0.11315130434194276,0.6123496934682962,0.23737754637757985,0.1215117960212588,0.6774091331639155,0.2185259994700281,0.08397531147394943,0.7039809314829181,0.20839177959136113,0.10860208569807764,0.41987358133120467,0.24357975703131296,0.14893286317396143,0.8366205636168463,0.13668659615027667,0.11592027795829787,0.9862161537648001,0.01359385181816418,-0.010839236651806083
5.0,0.0,5.0,0.0,4.0,0.0,4.0,0.0,,,,left,1.3450861999881454,226.51030540000647,ri12,226.51030540000647,None,197.1239373999997,200.63430309999967,True,1.0,['r'],True,0.5,0.5,0.0,0.0,1.0,0.6309297535714574,0.2152777777777778,succ_gain,0.0,2.0,223.37977499997945,None,ri12,1,2023-03-20_13h53.23.493,threat_forest,2021.2.3,60.09893487130529,True,30.0,0.5833333333333333,0.4722222222222222,-1.25,-1.195216049382716,1,1,1,0.2964581002106937,0.2152777777777778,1.0,0.5,0.5,1.0,-0.5,-0.5,0.5,0.5,1.0,1.0,-1.0,1.0,1,1,1,0.48166258024929437,0.2496637390368864,0.09997207753553994,0.5752951451210374,0.24433064112120192,0.131603985940985,0.546389444007602,0.24784801948466556,0.11089714597935268,0.5327665056634213,0.24892635610660896,0.11315130434194276,0.6123496934682962,0.23737754637757985,0.1215117960212588,0.6774091331639155,0.2185259994700281,0.08397531147394943,0.7039809314829181,0.20839177959136113,0.10860208569807764,0.9803923672855456,0.019223173453789422,-0.08868908455826238,0.9990132966922722,0.0009857297243101716,-0.06952791952089234,0.9949799640670454,0.004994835172186589,-0.019270237044171478
5.0,0.0,5.0,0.0,5.0,0.0,5.0,0.0,,,,left,2.537077000015416,233.6370974999736,ri12,227.87578929995647,229.89023399999132,233.6370974999736,None,False,2.0,['r'],False,0.2222222222222222,0.6666666666666666,0.6666666666666666,2.0,1.0,0.77250688571426,-0.1388888888888889,wait_cost,1.0,1.0,229.89023399999127,None,ri12,1,2023-03-20_13h53.23.493,threat_forest,2021.2.3,60.09893487130529,False,30.0,0.5833333333333333,0.4722222222222222,-1.25,-1.195216049382716,0,0,0,0.9310126309706857,-0.1388888888888889,0.2222222222222222,0.2222222222222222,0.6666666666666666,0.3333333333333333,-2.0,-2.0,0.0,0.0,0.0,1.0,1.0,2.0,0,0,0,0.5174754943950644,0.24969460709564806,0.13284443714161398,0.3227973476130185,0.21859921998701862,0.38015845838199613,0.309857685651128,0.2138459002940547,0.14093047546671678,0.6493748454412378,0.2276871555494063,0.11772040023703328,0.2675057217261066,0.19594641056990142,0.09045783788784575,0.31072648241707773,0.21417553554178723,0.14872600035960915,0.3207608284896539,0.21787331939628474,0.11267072288684926,0.41987358133120467,0.24357975703131296,0.14893286317396143,0.21351805202763277,0.16792809348595789,0.1586147685687453,0.009866729488150127,0.009769377137357798,-0.014588984891862479
5.0,0.0,5.0,0.0,6.0,0.0,6.0,0.0,,,,right,1.411004599998705,241.24663519999007,ri12,227.87578929995647,229.89023399999132,241.24663519999007,None,True,1.0,['r'],False,0.2222222222222222,0.6666666666666666,0.6666666666666666,2.0,1.0,0.77250688571426,0.2222222222222222,figh_cost,1.0,0.0,238.2185054000001,None,ri12,1,2023-03-20_13h53.23.493,threat_forest,2021.2.3,60.09893487130529,True,30.0,0.5833333333333333,0.4722222222222222,-1.25,-1.195216049382716,0,0,1,0.3443019329636655,0.2222222222222222,1.0,0.2222222222222222,0.6666666666666666,0.3333333333333333,-2.0,-2.0,-1.0,0.0,0.0,1.0,-1.0,1.0,1,0,0,0.5174754943950644,0.24969460709564806,0.13284443714161398,0.3227973476130185,0.21859921998701862,0.38015845838199613,0.546389444007602,0.24784801948466556,0.11089714597935268,0.6493748454412378,0.2276871555494063,0.11772040023703328,0.2675057217261066,0.19594641056990142,0.09045783788784575,0.31072648241707773,0.21417553554178723,0.14872600035960915,0.3207608284896539,0.21787331939628474,0.11267072288684926,0.9803923672855456,0.019223173453789422,-0.08868908455826238,0.9990132966922722,0.0009857297243101716,-0.06952791952089234,0.9958618639059645,0.004121011923702616,-0.020126986653357614
6.0,0.0,6.0,0.0,0.0,0.0,0.0,0.0,247.7327388999984,251.2370436000056,None,left,0.6874224999919534,252.4031577999704,ri12,252.4031577999704,None,247.7327388999984,251.23704360000556,True,5.0,['p'],True,0.375,0.5,0.25,1.0,2.0,0.9850568223215076,0.0256486737394332,figh_cost,0.0,2.0,,,ri12,1,2023-03-20_13h53.23.493,threat_forest,2021.2.3,60.09893487130529,True,45.0,0.35,0.4666666666666666,-0.975,-1.1125,1,0,1,-0.37480618308004,0.0256486737394332,0.375,0.375,0.5,0.75,-0.75,-0.75,4.25,4.25,1.0,2.0,-1.0,5.0,0,0,1,0.48166258024929437,0.2496637390368864,0.09997207753553994,0.4779707126030849,0.24951471049678411,0.08152810315059877,0.546389444007602,0.24784801948466556,0.11089714597935268,0.5327665056634213,0.24892635610660896,0.11315130434194276,0.5530777916473912,0.24718274803383605,0.128861107494072,0.6774091331639155,0.2185259994700281,0.08397531147394943,0.5346581250693851,0.24879881436667492,0.1259412065325922,0.41987358133120467,0.24357975703131296,0.14893286317396143,0.5772710322455877,0.24402918757570133,0.26261418358233046,0.49742212075882564,0.24999335453861798,0.22094125433299114
6.0,0.0,6.0,0.0,1.0,0.0,1.0,0.0,,,,right,1.3059808000107296,256.8515596999787,ri12,253.1188792999601,255.13376190001145,256.8515596999787,None,True,2.0,['p'],False,0.2,0.2,0.0,0.0,2.0,0.4554859150035951,-0.0239407760620117,unsucc_cost,1.0,0.0,255.13376190001145,None,ri12,1,2023-03-20_13h53.23.493,threat_forest,2021.2.3,60.09893487130529,True,45.0,0.35,0.4666666666666666,-0.975,-1.1125,0,0,1,0.2669543293761345,-0.0239407760620117,0.2,0.2,0.2,1.0,-1.2000000000000002,-1.2000000000000002,0.7999999999999998,0.7999999999999998,0.0,2.0,-1.0,2.0,0,0,0,0.5174754943950644,0.24969460709564806,0.13284443714161398,0.5752951451210374,0.24433064112120192,0.131603985940985,0.546389444007602,0.24784801948466556,0.11089714597935268,0.3226074326381922,0.2185318770447865,0.11968993507527759,0.4436799687094932,0.24682805407543632,0.1285952530558676,0.31072648241707773,0.21417553554178723,0.14872600035960915,0.2932594447338025,0.20725834280822436,0.1081157150091525,0.41987358133120467,0.24357975703131296,0.14893286317396143,0.17670689440816614,0.1454815678767874,0.12793944700650492,0.19842036750224987,0.15904972526252198,0.1317745733417916
7.0,0.0,7.0,0.0,0.0,0.0,0.0,0.0,263.4013295999612,266.9057495999732,None,left,0.7044784000026993,268.67458920000354,ri12,263.4013295999612,266.9057495999732,268.67458920000354,None,False,5.0,['p'],False,0.24,0.3,0.2,2.0,2.0,0.9003120349047065,-0.0305436800767033,wait_cost,1.0,4.0,,,ri12,1,2023-03-20_13h53.23.493,threat_forest,2021.2.3,60.09893487130529,False,15.0,0.4833333333333333,0.4166666666666666,-0.8977777777777778,-0.9363888888888888,0,0,0,-0.3502976081521826,-0.0305436800767033,0.24,0.24,0.3,0.8,-1.4,-1.24,3.76,3.76,0.0,2.0,-1.0,5.0,0,0,0,0.5174754943950644,0.24969460709564806,0.13284443714161398,0.4975396101743048,0.24999394648190557,0.07689888944197953,0.546389444007602,0.24784801948466556,0.11089714597935268,0.38917252550746617,0.23771727089760677,0.11556266559248679,0.39615576317810114,0.23921637447887736,0.12289005635033368,0.31072648241707773,0.21417553554178723,0.14872600035960915,0.3437076672422742,0.22557270672114832,0.11597461806054561,0.41987358133120467,0.24357975703131296,0.14893286317396143,0.24677793808029486,0.18587858735713306,0.18314583325495942,0.1706922675968137,0.14155641737947144,0.11462306733851411
7.0,0.0,7.0,0.0,1.0,0.0,1.0,0.0,,,,left,1.6692286999896169,274.2824990999652,ri12,274.2824990999652,None,269.40381889999844,271.41812669998035,True,4.0,['p'],True,0.4444444444444445,0.6666666666666666,0.3333333333333333,1.0,2.0,0.9656336071428248,0.112530937087955,figh_cost,0.0,1.0,271.41812669998035,None,ri12,1,2023-03-20_13h53.23.493,threat_forest,2021.2.3,60.09893487130529,True,15.0,0.4833333333333333,0.4166666666666666,-0.8977777777777778,-0.9363888888888888,1,1,1,0.5123616634465521,0.112530937087955,0.4444444444444445,0.4444444444444445,0.6666666666666666,0.6666666666666667,-0.3333333333333335,-0.5555555555555556,3.4444444444444446,3.4444444444444446,1.0,2.0,-1.0,4.0,0,1,1,0.48166258024929437,0.2496637390368864,0.09997207753553994,0.4455348325446163,0.24703354553405701,0.1054950906377563,0.546389444007602,0.24784801948466556,0.11089714597935268,0.6493748454412378,0.2276871555494063,0.11772040023703328,0.650201190043037,0.2274396025096555,0.1140629900257076,0.6774091331639155,0.2185259994700281,0.08397531147394943,0.6325115074892732,0.23244070038292033,0.1189217527031722,0.41987358133120467,0.24357975703131296,0.14893286317396143,0.7399803780360645,0.19240941815766757,0.19207083743436493,0.9181747545807873,0.07512987463129821,0.049494433329496434
7.0,0.0,7.0,0.0,2.0,0.0,2.0,0.0,,,,left,0.6697826000163332,281.7754098000005,ri12,281.7754098000005,None,269.40381889999844,271.41812669998035,True,1.0,['p'],True,0.4444444444444445,0.6666666666666666,0.3333333333333333,1.0,2.0,0.9656336071428248,0.1942183425968263,succ_gain,0.0,3.0,277.9952427999815,None,ri12,1,2023-03-20_13h53.23.493,threat_forest,2021.2.3,60.09893487130529,True,15.0,0.4833333333333333,0.4166666666666666,-0.8977777777777778,-0.9363888888888888,1,1,1,-0.4008020968389305,0.1942183425968263,1.0,0.4444444444444445,0.6666666666666666,0.6666666666666667,-0.3333333333333335,-0.5555555555555556,0.4444444444444444,0.4444444444444444,1.0,2.0,-1.0,1.0,1,1,1,0.48166258024929437,0.2496637390368864,0.09997207753553994,0.4455348325446163,0.24703354553405701,0.1054950906377563,0.546389444007602,0.24784801948466556,0.11089714597935268,0.6493748454412378,0.2276871555494063,0.11772040023703328,0.650201190043037,0.2274396025096555,0.1140629900257076,0.6774091331639155,0.2185259994700281,0.08397531147394943,0.6325115074892732,0.23244070038292033,0.1189217527031722,0.9803923672855456,0.019223173453789422,-0.08868908455826238,0.9990132966922722,0.0009857297243101716,-0.06952791952089234,0.9909932538598285,0.008925624664137941,-0.015416251278897964
7.0,0.0,7.0,0.0,3.0,0.0,3.0,0.0,,,,left,1.4473370999912731,287.1870049999561,ri12,287.1870049999561,None,269.40381889999844,271.41812669998035,True,3.0,['p'],True,0.4444444444444445,0.6666666666666666,0.3333333333333333,1.0,2.0,0.9656336071428248,0.0873158750190519,unsucc_cost,0.0,1.0,284.48965090001,None,ri12,1,2023-03-20_13h53.23.493,threat_forest,2021.2.3,60.09893487130529,True,15.0,0.4833333333333333,0.4166666666666666,-0.8977777777777778,-0.9363888888888888,1,1,1,0.3697253852659073,0.0873158750190519,0.4444444444444445,0.4444444444444445,0.6666666666666666,0.6666666666666667,-0.3333333333333335,-0.5555555555555556,2.4444444444444446,2.4444444444444446,1.0,2.0,1.0,3.0,0,1,1,0.48166258024929437,0.2496637390368864,0.09997207753553994,0.4455348325446163,0.24703354553405701,0.1054950906377563,0.309857685651128,0.2138459002940547,0.14093047546671678,0.6493748454412378,0.2276871555494063,0.11772040023703328,0.650201190043037,0.2274396025096555,0.1140629900257076,0.6774091331639155,0.2185259994700281,0.08397531147394943,0.6325115074892732,0.23244070038292033,0.1189217527031722,0.41987358133120467,0.24357975703131296,0.14893286317396143,0.7399803780360645,0.19240941815766757,0.19207083743436493,0.8472395217430158,0.1294247145396817,0.10272840593555325
7.0,0.0,7.0,0.0,4.0,0.0,4.0,0.0,,,,right,1.2628930999781005,293.4010532000102,ri12,288.65241189999506,290.6668750999961,293.4010532000102,None,True,1.0,['p'],False,0.24,0.3,0.2,2.0,2.0,0.9003120349047065,0.1142565925925925,succ_gain,1.0,3.0,290.6668750999961,None,ri12,1,2023-03-20_13h53.23.493,threat_forest,2021.2.3,60.09893487130529,True,15.0,0.4833333333333333,0.4166666666666666,-0.8977777777777778,-0.9363888888888888,0,0,1,0.2334052000222328,0.1142565925925925,1.0,0.24,0.3,0.8,-1.4,-1.24,-0.24,0.0,0.0,2.0,-1.0,1.0,1,0,0,0.5174754943950644,0.24969460709564806,0.13284443714161398,0.4975396101743048,0.24999394648190557,0.07689888944197953,0.546389444007602,0.24784801948466556,0.11089714597935268,0.38917252550746617,0.23771727089760677,0.11556266559248679,0.39615576317810114,0.23921637447887736,0.12289005635033368,0.31072648241707773,0.21417553554178723,0.14872600035960915,0.3437076672422742,0.22557270672114832,0.11597461806054561,0.9803923672855456,0.019223173453789422,-0.08868908455826238,0.9990132966922722,0.0009857297243101716,-0.06952791952089234,0.9217257547099973,0.07214738781428319,0.04657022134576448
7.0,0.0,7.0,0.0,5.0,0.0,5.0,0.0,,,,left,2.0931168000097387,297.8272453999962,ri12,288.65241189999506,290.6668750999961,297.8272453999962,None,False,3.0,['p'],False,0.24,0.3,0.2,2.0,2.0,0.9003120349047065,0.0383111111111111,wait_cost,1.0,2.0,296.7111954999855,None,ri12,1,2023-03-20_13h53.23.493,threat_forest,2021.2.3,60.09893487130529,False,15.0,0.4833333333333333,0.4166666666666666,-0.8977777777777778,-0.9363888888888888,0,0,0,0.7386542469759714,0.0383111111111111,0.24,0.24,0.3,0.8,-1.4,-1.24,1.76,1.76,0.0,2.0,1.0,3.0,0,0,0,0.5174754943950644,0.24969460709564806,0.13284443714161398,0.4975396101743048,0.24999394648190557,0.07689888944197953,0.309857685651128,0.2138459002940547,0.14093047546671678,0.38917252550746617,0.23771727089760677,0.11556266559248679,0.39615576317810114,0.23921637447887736,0.12289005635033368,0.31072648241707773,0.21417553554178723,0.14872600035960915,0.3437076672422742,0.22557270672114832,0.11597461806054561,0.41987358133120467,0.24357975703131296,0.14893286317396143,0.24677793808029486,0.18587858735713306,0.18314583325495942,0.5850568992994518,0.2427653238815629,0.2138544522235701
7.0,0.0,7.0,0.0,6.0,0.0,6.0,0.0,,,,left,1.070642400009092,303.871519599983,ri12,288.65241189999506,290.6668750999961,303.871519599983,None,False,2.0,['p'],False,0.24,0.3,0.2,2.0,2.0,0.9003120349047065,-0.1022222222222222,wait_cost,1.0,1.0,301.95632629998727,None,ri12,1,2023-03-20_13h53.23.493,threat_forest,2021.2.3,60.09893487130529,False,15.0,0.4833333333333333,0.4166666666666666,-0.8977777777777778,-0.9363888888888888,0,0,0,0.0682588421618158,-0.1022222222222222,0.24,0.24,0.3,0.8,-1.4,-1.24,0.76,0.76,0.0,2.0,-1.0,2.0,0,0,0,0.5174754943950644,0.24969460709564806,0.13284443714161398,0.4975396101743048,0.24999394648190557,0.07689888944197953,0.546389444007602,0.24784801948466556,0.11089714597935268,0.38917252550746617,0.23771727089760677,0.11556266559248679,0.39615576317810114,0.23921637447887736,0.12289005635033368,0.31072648241707773,0.21417553554178723,0.14872600035960915,0.3437076672422742,0.22557270672114832,0.11597461806054561,0.41987358133120467,0.24357975703131296,0.14893286317396143,0.24677793808029486,0.18587858735713306,0.18314583325495942,0.027015917735910434,0.02628605792479696,0.0016049763402758814
7.0,0.0,7.0,0.0,7.0,0.0,7.0,0.0,,,,right,0.5397492999909446,308.4172603999614,ri12,288.65241189999506,290.6668750999961,308.4172603999614,None,True,1.0,['p'],False,0.24,0.3,0.2,2.0,2.0,0.9003120349047065,0.24,unsucc_cost,1.0,0.0,306.985049699957,None,ri12,1,2023-03-20_13h53.23.493,threat_forest,2021.2.3,60.09893487130529,True,15.0,0.4833333333333333,0.4166666666666666,-0.8977777777777778,-0.9363888888888888,0,0,1,-0.6166505065015498,0.24,1.0,0.24,0.3,0.8,-1.4,-1.24,-0.24,0.0,0.0,2.0,-1.0,1.0,1,0,0,0.5174754943950644,0.24969460709564806,0.13284443714161398,0.4975396101743048,0.24999394648190557,0.07689888944197953,0.546389444007602,0.24784801948466556,0.11089714597935268,0.38917252550746617,0.23771727089760677,0.11556266559248679,0.39615576317810114,0.23921637447887736,0.12289005635033368,0.31072648241707773,0.21417553554178723,0.14872600035960915,0.3437076672422742,0.22557270672114832,0.11597461806054561,0.9803923672855456,0.019223173453789422,-0.08868908455826238,0.9990132966922722,0.0009857297243101716,-0.06952791952089234,0.9974780599732374,0.002515579845264089,-0.02170105018183825
8.0,0.0,8.0,0.0,0.0,0.0,0.0,0.0,312.5379504999728,316.0431677000015,None,right,0.6465271000051871,317.2926448999788,ri12,312.5379504999728,316.0431677000015,317.2926448999788,None,True,4.0,['r'],False,0.6,0.6,0.0,0.0,2.0,0.6126016192893442,0.1103326303155006,succ_gain,1.0,6.0,,,ri12,1,2023-03-20_13h53.23.493,threat_forest,2021.2.3,60.09893487130529,True,47.0,0.6333333333333333,0.5583333333333333,-0.0777777777777778,-0.4877777777777778,1,1,1,-0.4361401636206292,0.1103326303155006,0.6,0.6,0.6,1.0,0.3999999999999999,0.3999999999999999,4.4,4.4,0.0,2.0,-1.0,4.0,0,1,1,0.5174754943950644,0.24969460709564806,0.13284443714161398,0.5752951451210374,0.24433064112120192,0.131603985940985,0.546389444007602,0.24784801948466556,0.11089714597935268,0.6040280105303174,0.23917817302510416,0.11524838813670875,0.7918162918966145,0.16484325178370984,0.0671450280424472,0.6774091331639155,0.2185259994700281,0.08397531147394943,0.80973746179339,0.15406270476178827,0.08528885822331966,0.41987358133120467,0.24357975703131296,0.14893286317396143,0.9364736761957639,0.05949072998815533,0.010424752324197234,0.9134388601170665,0.07906830894510065,0.053355914544387
8.0,0.0,8.0,0.0,1.0,0.0,1.0,0.0,,,,left,0.7243598999921232,322.49094909999985,ri12,322.49094909999985,None,317.95838919997914,319.9728373999824,True,6.0,['r'],True,0.4444444444444445,0.6666666666666666,0.3333333333333333,2.0,2.0,0.9656336071428248,-0.0843219852156683,figh_cost,0.0,3.0,319.9728373999824,None,ri12,1,2023-03-20_13h53.23.493,threat_forest,2021.2.3,60.09893487130529,True,47.0,0.6333333333333333,0.5583333333333333,-0.0777777777777778,-0.4877777777777778,0,0,1,-0.3224669106727809,-0.0843219852156683,0.4444444444444445,0.4444444444444445,0.6666666666666666,0.6666666666666667,-0.3333333333333335,-0.5555555555555556,5.444444444444445,5.444444444444445,1.0,2.0,1.0,6.0,0,0,0,0.48166258024929437,0.2496637390368864,0.09997207753553994,0.4455348325446163,0.24703354553405701,0.1054950906377563,0.309857685651128,0.2138459002940547,0.14093047546671678,0.6493748454412378,0.2276871555494063,0.11772040023703328,0.650201190043037,0.2274396025096555,0.1140629900257076,0.31072648241707773,0.21417553554178723,0.14872600035960915,0.6325115074892732,0.23244070038292033,0.1189217527031722,0.41987358133120467,0.24357975703131296,0.14893286317396143,0.7399803780360645,0.19240941815766757,0.19207083743436493,0.04378546061272009,0.04186829405165203,0.016882751033373933
8.0,0.0,8.0,0.0,2.0,0.0,2.0,0.0,,,,left,1.5911246999748982,328.3819048999576,ri12,328.3819048999576,None,317.95838919997914,319.9728373999824,True,3.0,['r'],True,0.4444444444444445,0.6666666666666666,0.3333333333333333,2.0,2.0,0.9656336071428248,0.0338906035665295,figh_cost,0.0,0.0,325.2511800999637,None,ri12,1,2023-03-20_13h53.23.493,threat_forest,2021.2.3,60.09893487130529,True,47.0,0.6333333333333333,0.5583333333333333,-0.0777777777777778,-0.4877777777777778,0,0,1,0.4644411246468274,0.0338906035665295,0.4444444444444445,0.4444444444444445,0.6666666666666666,0.6666666666666667,-0.3333333333333335,-0.5555555555555556,2.4444444444444446,2.4444444444444446,1.0,2.0,-1.0,3.0,0,0,0,0.48166258024929437,0.2496637390368864,0.09997207753553994,0.4455348325446163,0.24703354553405701,0.1054950906377563,0.546389444007602,0.24784801948466556,0.11089714597935268,0.6493748454412378,0.2276871555494063,0.11772040023703328,0.650201190043037,0.2274396025096555,0.1140629900257076,0.31072648241707773,0.21417553554178723,0.14872600035960915,0.6325115074892732,0.23244070038292033,0.1189217527031722,0.41987358133120467,0.24357975703131296,0.14893286317396143,0.7399803780360645,0.19240941815766757,0.19207083743436493,0.554785908800932,0.24699850419685596,0.21800492039551905
9.0,0.0,9.0,0.0,0.0,0.0,0.0,0.0,334.3691780999652,337.8727846000111,None,left,1.2139738000114448,339.25696969998535,ri12,334.3691780999652,337.8727846000111,339.25696969998535,None,False,5.0,['p'],False,0.21875,0.25,0.125,1.0,1.0,0.7908280489481783,-0.003347083026002,wait_cost,1.0,4.0,,,ri12,1,2023-03-20_13h53.23.493,threat_forest,2021.2.3,60.09893487130529,False,61.0,0.325,0.4791666666666666,-1.354375,-0.716076388888889,0,0,0,0.1938991108652494,-0.003347083026002,0.21875,0.21875,0.25,0.875,-1.625,-1.46875,3.53125,3.53125,0.0,1.0,-1.0,5.0,0,0,0,0.5174754943950644,0.24969460709564806,0.13284443714161398,0.5268883481489426,0.24927701673382122,0.08382412277375417,0.546389444007602,0.24784801948466556,0.11089714597935268,0.35518989964868614,0.22903003483624237,0.11743151251639805,0.3449784990903835,0.22596833425572976,0.11296022752910323,0.31072648241707773,0.21417553554178723,0.14872600035960915,0.31637417759541453,0.21628155734623963,0.11198767958315235,0.41987358133120467,0.24357975703131296,0.14893286317396143,0.2074175405747734,0.16439550443668566,0.15378714816457,0.30562336611223134,0.21221772419846036,0.1839037223299918
9.0,0.0,9.0,0.0,1.0,0.0,1.0,0.0,,,,left,0.9883938999846578,345.63263070001267,ri12,345.63263070001267,None,340.4874442999717,342.5018124000053,True,4.0,['p'],True,0.32,0.4,0.2,1.0,1.0,0.9455672104350704,0.0367450763052585,figh_cost,0.0,1.0,342.5018124000053,None,ri12,1,2023-03-20_13h53.23.493,threat_forest,2021.2.3,60.09893487130529,True,61.0,0.325,0.4791666666666666,-1.354375,-0.716076388888889,0,0,1,-0.0116739764926979,0.0367450763052585,0.32,0.32,0.4,0.8,-1.4,-1.24,2.76,2.76,1.0,1.0,-1.0,4.0,0,0,0,0.48166258024929437,0.2496637390368864,0.09997207753553994,0.4975396101743048,0.24999394648190557,0.07689888944197953,0.546389444007602,0.24784801948466556,0.11089714597935268,0.46014253943181377,0.2484113828370555,0.11326208827873271,0.39615576317810114,0.23921637447887736,0.12289005635033368,0.31072648241707773,0.21417553554178723,0.14872600035960915,0.4548154560592162,0.24795835698886332,0.12558055665785706,0.41987358133120467,0.24357975703131296,0.14893286317396143,0.4329135257833056,0.2454994049771728,0.26462337611135656,0.5743939810174656,0.24446553558837297,0.21552144348052102
9.0,0.0,9.0,0.0,2.0,0.0,2.0,0.0,,,,left,0.8394419000251219,351.9599046999938,ri12,351.9599046999938,None,340.4874442999717,342.5018124000053,True,1.0,['p'],True,0.32,0.4,0.2,1.0,1.0,0.9455672104350704,0.02941247045,succ_gain,0.0,2.0,348.6626658999594,None,ri12,1,2023-03-20_13h53.23.493,threat_forest,2021.2.3,60.09893487130529,True,61.0,0.325,0.4791666666666666,-1.354375,-0.716076388888889,0,0,1,-0.1750180126914117,0.02941247045,1.0,0.32,0.4,0.8,-1.4,-1.24,-0.24,0.0,1.0,1.0,-1.0,1.0,1,0,0,0.48166258024929437,0.2496637390368864,0.09997207753553994,0.4975396101743048,0.24999394648190557,0.07689888944197953,0.546389444007602,0.24784801948466556,0.11089714597935268,0.46014253943181377,0.2484113828370555,0.11326208827873271,0.39615576317810114,0.23921637447887736,0.12289005635033368,0.31072648241707773,0.21417553554178723,0.14872600035960915,0.4548154560592162,0.24795835698886332,0.12558055665785706,0.9803923672855456,0.019223173453789422,-0.08868908455826238,0.9990132966922722,0.0009857297243101716,-0.06952791952089234,0.5237011900321422,0.24943825359106025,0.22039699950719652
9.0,0.0,9.0,0.0,3.0,0.0,3.0,0.0,,,,left,1.330966100038495,356.8898754999973,ri12,352.8258186999592,354.8403035000083,356.8898754999973,None,False,2.0,['p'],False,0.21875,0.25,0.125,1.0,1.0,0.7908280489481783,-0.0079824741210937,wait_cost,1.0,1.0,354.8403035000083,None,ri12,1,2023-03-20_13h53.23.493,threat_forest,2021.2.3,60.09893487130529,False,61.0,0.325,0.4791666666666666,-1.354375,-0.716076388888889,0,0,0,0.2859050695457915,-0.0079824741210937,0.21875,0.21875,0.25,0.875,-1.625,-1.46875,0.53125,0.53125,0.0,1.0,1.0,2.0,0,0,0,0.5174754943950644,0.24969460709564806,0.13284443714161398,0.5268883481489426,0.24927701673382122,0.08382412277375417,0.309857685651128,0.2138459002940547,0.14093047546671678,0.35518989964868614,0.22903003483624237,0.11743151251639805,0.3449784990903835,0.22596833425572976,0.11296022752910323,0.31072648241707773,0.21417553554178723,0.14872600035960915,0.31637417759541453,0.21628155734623963,0.11198767958315235,0.41987358133120467,0.24357975703131296,0.14893286317396143,0.2074175405747734,0.16439550443668566,0.15378714816457,0.27884318047815726,0.20108966117898308,0.1729930906210316
9.0,0.0,9.0,0.0,4.0,0.0,4.0,0.0,,,,right,0.4028452000347897,363.149464099959,ri12,352.8258186999592,354.8403035000083,363.149464099959,None,True,1.0,['p'],False,0.21875,0.25,0.125,1.0,1.0,0.7908280489481783,0.0644628906249999,figh_cost,1.0,0.0,360.2524663999793,None,ri12,1,2023-03-20_13h53.23.493,threat_forest,2021.2.3,60.09893487130529,True,61.0,0.325,0.4791666666666666,-1.354375,-0.716076388888889,0,0,1,-0.9092029098484352,0.0644628906249999,1.0,0.21875,0.25,0.875,-1.625,-1.46875,-0.46875,0.0,0.0,1.0,-1.0,1.0,1,0,0,0.5174754943950644,0.24969460709564806,0.13284443714161398,0.5268883481489426,0.24927701673382122,0.08382412277375417,0.546389444007602,0.24784801948466556,0.11089714597935268,0.35518989964868614,0.22903003483624237,0.11743151251639805,0.3449784990903835,0.22596833425572976,0.11296022752910323,0.31072648241707773,0.21417553554178723,0.14872600035960915,0.31637417759541453,0.21628155734623963,0.11198767958315235,0.9803923672855456,0.019223173453789422,-0.08868908455826238,0.9990132966922722,0.0009857297243101716,-0.06952791952089234,0.7454395994678152,0.1897594030130785,0.16188421445819418
10.0,0.0,10.0,0.0,0.0,0.0,0.0,0.0,366.88435199996457,370.39243780000834,None,left,1.325282600009814,371.2252825999749,ri12,366.88435199996457,370.39243780000834,371.2252825999749,None,False,5.0,['r'],False,0.2222222222222222,0.6666666666666666,0.6666666666666666,2.0,1.0,0.77250688571426,-0.0048205313257853,wait_cost,1.0,4.0,,,ri12,1,2023-03-20_13h53.23.493,threat_forest,2021.2.3,60.09893487130529,False,20.0,0.4583333333333333,0.3916666666666666,-1.625,-1.4896875,0,0,0,0.2816257197228691,-0.0048205313257853,0.2222222222222222,0.2222222222222222,0.6666666666666666,0.3333333333333333,-2.0,-2.0,3.0,3.0,0.0,1.0,-1.0,5.0,0,0,0,0.5174754943950644,0.24969460709564806,0.13284443714161398,0.3227973476130185,0.21859921998701862,0.38015845838199613,0.546389444007602,0.24784801948466556,0.11089714597935268,0.6493748454412378,0.2276871555494063,0.11772040023703328,0.2675057217261066,0.19594641056990142,0.09045783788784575,0.31072648241707773,0.21417553554178723,0.14872600035960915,0.3207608284896539,0.21787331939628474,0.11267072288684926,0.41987358133120467,0.24357975703131296,0.14893286317396143,0.21351805202763277,0.16792809348595789,0.1586147685687453,0.29695512049963796,0.20877277690868348,0.1805260858922983
10.0,0.0,10.0,0.0,1.0,0.0,1.0,0.0,,,,left,1.5732514999690466,376.7867342999671,ri12,366.88435199996457,370.39243780000834,376.7867342999671,None,False,4.0,['r'],False,0.2222222222222222,0.6666666666666666,0.6666666666666666,2.0,1.0,0.77250688571426,0.0061034189800591,wait_cost,1.0,3.0,374.58858209999744,None,ri12,1,2023-03-20_13h53.23.493,threat_forest,2021.2.3,60.09893487130529,False,20.0,0.4583333333333333,0.3916666666666666,-1.625,-1.4896875,0,0,0,0.4531444968451071,0.0061034189800591,0.2222222222222222,0.2222222222222222,0.6666666666666666,0.3333333333333333,-2.0,-2.0,2.0,2.0,0.0,1.0,-1.0,4.0,0,0,0,0.5174754943950644,0.24969460709564806,0.13284443714161398,0.3227973476130185,0.21859921998701862,0.38015845838199613,0.546389444007602,0.24784801948466556,0.11089714597935268,0.6493748454412378,0.2276871555494063,0.11772040023703328,0.2675057217261066,0.19594641056990142,0.09045783788784575,0.31072648241707773,0.21417553554178723,0.14872600035960915,0.3207608284896539,0.21787331939628474,0.11267072288684926,0.41987358133120467,0.24357975703131296,0.14893286317396143,0.21351805202763277,0.16792809348595789,0.1586147685687453,0.36434697893212126,0.2315982578751576,0.202905579607349
10.0,0.0,10.0,0.0,2.0,0.0,2.0,0.0,,,,left,1.2919254999724217,383.4171896000044,ri12,383.4171896000044,None,378.3852216000087,380.39971259998856,True,3.0,['r'],True,0.25,0.25,0.0,0.0,1.0,0.5118595071429148,0.0232278910774843,unsucc_cost,0.0,1.0,380.39971259998856,None,ri12,1,2023-03-20_13h53.23.493,threat_forest,2021.2.3,60.09893487130529,True,20.0,0.4583333333333333,0.3916666666666666,-1.625,-1.4896875,1,0,1,0.2561337411378156,0.0232278910774843,0.25,0.25,0.25,1.0,-1.25,-1.25,1.75,1.75,1.0,1.0,-1.0,3.0,0,0,1,0.48166258024929437,0.2496637390368864,0.09997207753553994,0.5752951451210374,0.24433064112120192,0.131603985940985,0.546389444007602,0.24784801948466556,0.11089714597935268,0.35518989964868614,0.22903003483624237,0.11743151251639805,0.43166594413785225,0.2453304568094289,0.12747275612469033,0.6774091331639155,0.2185259994700281,0.08397531147394943,0.356952230248434,0.22953733556910297,0.11767588565023486,0.41987358133120467,0.24357975703131296,0.14893286317396143,0.2669536240585213,0.19568938666054295,0.19655322772904005,0.48051845822353795,0.24962046953001202,0.22057565512748958
10.0,0.0,10.0,0.0,3.0,0.0,3.0,0.0,,,,right,1.240383500000462,389.8078787999693,ri12,384.7293400999624,386.74378660001094,389.8078787999693,None,True,1.0,['r'],False,0.2222222222222222,0.6666666666666666,0.6666666666666666,2.0,1.0,0.77250688571426,0.0177225032388355,figh_cost,1.0,0.0,386.7437866000109,None,ri12,1,2023-03-20_13h53.23.493,threat_forest,2021.2.3,60.09893487130529,True,20.0,0.4583333333333333,0.3916666666666666,-1.625,-1.4896875,0,0,1,0.2154206059954613,0.0177225032388355,1.0,0.2222222222222222,0.6666666666666666,0.3333333333333333,-2.0,-2.0,-1.0,0.0,0.0,1.0,-1.0,1.0,1,0,0,0.5174754943950644,0.24969460709564806,0.13284443714161398,0.3227973476130185,0.21859921998701862,0.38015845838199613,0.546389444007602,0.24784801948466556,0.11089714597935268,0.6493748454412378,0.2276871555494063,0.11772040023703328,0.2675057217261066,0.19594641056990142,0.09045783788784575,0.31072648241707773,0.21417553554178723,0.14872600035960915,0.3207608284896539,0.21787331939628474,0.11267072288684926,0.9803923672855456,0.019223173453789422,-0.08868908455826238,0.9990132966922722,0.0009857297243101716,-0.06952791952089234,0.4423017619256423,0.24667091332311478,0.21768373032242633
11.0,0.0,11.0,0.0,0.0,0.0,0.0,0.0,393.7465533000068,397.2507286999608,None,right,1.2260380999650806,400.3170473999926,ri12,400.3170473999926,None,393.7465533000068,397.25072869996075,False,4.0,['r'],True,0.28125,0.375,0.25,2.0,2.0,0.9634951148421658,-0.0007636143604934,wait_cost,0.0,3.0,,,ri12,1,2023-03-20_13h53.23.493,threat_forest,2021.2.3,60.09893487130529,False,10.0,0.3541666666666666,0.40625,-0.8958333333333335,-1.2604166666666667,1,0,0,0.2037879136747728,-0.0007636143604934,0.28125,0.28125,0.375,0.75,-1.25,-1.125,2.875,2.875,1.0,2.0,-1.0,4.0,0,0,1,0.48166258024929437,0.2496637390368864,0.09997207753553994,0.4779707126030849,0.24951471049678411,0.08152810315059877,0.546389444007602,0.24784801948466556,0.11089714597935268,0.44212936601602076,0.2466509897222923,0.11364079391469802,0.43166594413785225,0.2453304568094289,0.12747275612469033,0.6774091331639155,0.2185259994700281,0.08397531147394943,0.3996919070620582,0.23993828649115317,0.12213905266642637,0.41987358133120467,0.24357975703131296,0.14893286317396143,0.3363270682356067,0.22321117140764826,0.23416437574293603,0.321156873821526,0.21801513621871044,0.1895878586713601
11.0,0.0,11.0,0.0,1.0,0.0,1.0,0.0,,,,right,1.1377215000102296,406.4104872999597,ri12,401.5637236000039,403.57814479997614,406.4104872999597,None,True,3.0,['r'],False,0.3333333333333333,0.3333333333333333,0.0,0.0,2.0,0.5793801642856949,0.1051879490716752,unsucc_cost,1.0,1.0,403.57814479997614,None,ri12,1,2023-03-20_13h53.23.493,threat_forest,2021.2.3,60.09893487130529,True,10.0,0.3541666666666666,0.40625,-0.8958333333333335,-1.2604166666666667,1,0,1,0.1290275781701795,0.1051879490716752,0.3333333333333333,0.3333333333333333,0.3333333333333333,1.0,-0.6666666666666669,-0.6666666666666669,2.333333333333333,2.333333333333333,0.0,2.0,-1.0,3.0,0,0,1,0.5174754943950644,0.24969460709564806,0.13284443714161398,0.5752951451210374,0.24433064112120192,0.131603985940985,0.546389444007602,0.24784801948466556,0.11089714597935268,0.41246507805596955,0.24233763744025247,0.11456870643912984,0.5730915836841783,0.24465762039453878,0.1269684437651252,0.6774091331639155,0.2185259994700281,0.08397531147394943,0.47411427245764864,0.24932992910960308,0.1261691139441563,0.41987358133120467,0.24357975703131296,0.14893286317396143,0.467796912017027,0.24896296112436092,0.2693566564601186,0.901374073216794,0.08889885334935972,0.06299437986451677
11.0,0.0,11.0,0.0,2.0,0.0,2.0,0.0,,,,right,0.5315044000162743,412.68643209995935,ri12,401.5637236000039,403.57814479997614,412.68643209995935,None,True,1.0,['r'],False,0.3333333333333333,0.3333333333333333,0.0,0.0,2.0,0.5793801642856949,0.1304442796687529,unsucc_cost,1.0,0.0,409.5891925999895,None,ri12,1,2023-03-20_13h53.23.493,threat_forest,2021.2.3,60.09893487130529,True,10.0,0.3541666666666666,0.40625,-0.8958333333333335,-1.2604166666666667,1,0,1,-0.6320438027465848,0.1304442796687529,1.0,0.3333333333333333,0.3333333333333333,1.0,-0.6666666666666669,-0.6666666666666669,0.3333333333333331,0.3333333333333331,0.0,2.0,-1.0,1.0,1,0,1,0.5174754943950644,0.24969460709564806,0.13284443714161398,0.5752951451210374,0.24433064112120192,0.131603985940985,0.546389444007602,0.24784801948466556,0.11089714597935268,0.41246507805596955,0.24233763744025247,0.11456870643912984,0.5730915836841783,0.24465762039453878,0.1269684437651252,0.6774091331639155,0.2185259994700281,0.08397531147394943,0.47411427245764864,0.24932992910960308,0.1261691139441563,0.9803923672855456,0.019223173453789422,-0.08868908455826238,0.9990132966922722,0.0009857297243101716,-0.06952791952089234,0.9487499740443985,0.048623460795151674,0.02350592852095099
12.0,0.0,12.0,0.0,0.0,0.0,0.0,0.0,417.82329599995865,421.32824669999536,None,right,0.5135409000213258,423.2633266999619,ri12,417.82329599995865,421.32824669999536,423.2633266999619,None,True,5.0,['r'],False,0.4081632653061224,0.5714285714285714,0.2857142857142857,2.0,2.0,0.9885754083994552,-0.0170150236195817,figh_cost,1.0,2.0,,,ri12,1,2023-03-20_13h53.23.493,threat_forest,2021.2.3,60.09893487130529,True,14.0,0.5357142857142857,0.4449404761904761,-0.326530612244898,-0.6111819727891157,0,0,1,-0.6664256032793877,-0.0170150236195817,0.4081632653061224,0.4081632653061224,0.5714285714285714,0.7142857142857143,-0.5714285714285715,-0.653061224489796,4.346938775510204,4.346938775510204,0.0,2.0,-1.0,5.0,0,0,0,0.5174754943950644,0.24969460709564806,0.13284443714161398,0.46403072095431286,0.24870621096493348,0.0893378612498501,0.546389444007602,0.24784801948466556,0.11089714597935268,0.5839786100094156,0.24294759306088642,0.1144374893664853,0.5956713545340329,0.24084699192162343,0.1241122561479377,0.31072648241707773,0.21417553554178723,0.14872600035960915,0.5822113901228004,0.24324128733407674,0.1235564081108537,0.41987358133120467,0.24357975703131296,0.14893286317396143,0.6597633129394417,0.22447568383861408,0.23589245277876375,0.2310056806050151,0.1776420561332289,0.15000362851395968
12.0,0.0,12.0,0.0,1.0,0.0,1.0,0.0,,,,right,1.3136975999805145,429.3710736999637,ri12,417.82329599995865,421.32824669999536,429.3710736999637,None,True,2.0,['r'],False,0.4081632653061224,0.5714285714285714,0.2857142857142857,2.0,2.0,0.9885754083994552,-0.0037991231674081,unsucc_cost,1.0,0.0,425.8073274999624,None,ri12,1,2023-03-20_13h53.23.493,threat_forest,2021.2.3,60.09893487130529,True,14.0,0.5357142857142857,0.4449404761904761,-0.326530612244898,-0.6111819727891157,0,0,1,0.272845756575705,-0.0037991231674081,0.4081632653061224,0.4081632653061224,0.5714285714285714,0.7142857142857143,-0.5714285714285715,-0.653061224489796,1.346938775510204,1.346938775510204,0.0,2.0,-1.0,2.0,0,0,0,0.5174754943950644,0.24969460709564806,0.13284443714161398,0.46403072095431286,0.24870621096493348,0.0893378612498501,0.546389444007602,0.24784801948466556,0.11089714597935268,0.5839786100094156,0.24294759306088642,0.1144374893664853,0.5956713545340329,0.24084699192162343,0.1241122561479377,0.31072648241707773,0.21417553554178723,0.14872600035960915,0.5822113901228004,0.24324128733407674,0.1235564081108537,0.41987358133120467,0.24357975703131296,0.14893286317396143,0.6597633129394417,0.22447568383861408,0.23589245277876375,0.3029489707790137,0.21117089188295002,0.18287734407929532
13.0,0.0,13.0,0.0,0.0,0.0,0.0,0.0,436.0561800999567,439.5611639000126,None,left,1.346217099984642,442.0428269999684,ri12,442.0428269999684,None,436.0561800999567,439.5611639000126,True,5.0,['p'],True,0.4444444444444445,0.6666666666666666,0.3333333333333333,1.0,1.0,0.9656336071428248,0.0467066160950204,succ_gain,0.0,6.0,,,ri12,1,2023-03-20_13h53.23.493,threat_forest,2021.2.3,60.09893487130529,True,57.0,0.4583333333333333,0.4970238095238095,-1.34375,-0.8351403061224489,0,0,1,0.2972985109240235,0.0467066160950204,0.4444444444444445,0.4444444444444445,0.6666666666666666,0.6666666666666667,-1.0,-1.0,4.0,4.0,1.0,1.0,-1.0,5.0,0,0,0,0.48166258024929437,0.2496637390368864,0.09997207753553994,0.4455348325446163,0.24703354553405701,0.1054950906377563,0.546389444007602,0.24784801948466556,0.11089714597935268,0.6493748454412378,0.2276871555494063,0.11772040023703328,0.4922577131386448,0.24994005699415656,0.13092779853078765,0.31072648241707773,0.21417553554178723,0.14872600035960915,0.6325115074892732,0.23244070038292033,0.1189217527031722,0.41987358133120467,0.24357975703131296,0.14893286317396143,0.7399803780360645,0.19240941815766757,0.19207083743436493,0.6406527347179406,0.23021680821636462,0.20155112210426174
13.0,0.0,13.0,0.0,1.0,0.0,1.0,0.0,,,,right,1.0531224999576807,447.1877275999868,ri12,447.1877275999868,None,436.0561800999567,439.5611639000126,False,6.0,['p'],True,0.4444444444444445,0.6666666666666666,0.3333333333333333,1.0,1.0,0.9656336071428248,-0.1291110239765378,wait_cost,0.0,5.0,445.4223672999651,None,ri12,1,2023-03-20_13h53.23.493,threat_forest,2021.2.3,60.09893487130529,False,57.0,0.4583333333333333,0.4970238095238095,-1.34375,-0.8351403061224489,0,0,0,0.0517595606283468,-0.1291110239765378,0.4444444444444445,0.4444444444444445,0.6666666666666666,0.6666666666666667,-1.0,-1.0,5.0,5.0,1.0,1.0,1.0,6.0,0,0,0,0.48166258024929437,0.2496637390368864,0.09997207753553994,0.4455348325446163,0.24703354553405701,0.1054950906377563,0.309857685651128,0.2138459002940547,0.14093047546671678,0.6493748454412378,0.2276871555494063,0.11772040023703328,0.4922577131386448,0.24994005699415656,0.13092779853078765,0.31072648241707773,0.21417553554178723,0.14872600035960915,0.6325115074892732,0.23244070038292033,0.1189217527031722,0.41987358133120467,0.24357975703131296,0.14893286317396143,0.7399803780360645,0.19240941815766757,0.19207083743436493,0.012927234895595302,0.012760121493549409,-0.011656676713076594
13.0,0.0,13.0,0.0,2.0,0.0,2.0,0.0,,,,left,1.4922529999748804,453.4019211999839,ri12,448.2699969999958,450.28446319996146,453.4019211999839,None,False,5.0,['p'],False,0.1875,0.25,0.25,2.0,1.0,0.895754137500101,-0.1297984377601274,wait_cost,1.0,4.0,450.2844631999615,None,ri12,1,2023-03-20_13h53.23.493,threat_forest,2021.2.3,60.09893487130529,False,57.0,0.4583333333333333,0.4970238095238095,-1.34375,-0.8351403061224489,0,0,0,0.4002870584347675,-0.1297984377601274,0.1875,0.1875,0.25,0.75,-2.0,-1.6875,3.3125,3.3125,0.0,1.0,-1.0,5.0,0,0,0,0.5174754943950644,0.24969460709564806,0.13284443714161398,0.4779707126030849,0.24951471049678411,0.08152810315059877,0.546389444007602,0.24784801948466556,0.11089714597935268,0.35518989964868614,0.22903003483624237,0.11743151251639805,0.2675057217261066,0.19594641056990142,0.09045783788784575,0.31072648241707773,0.21417553554178723,0.14872600035960915,0.2784118286031146,0.20089868229698454,0.10538671193619634,0.41987358133120467,0.24357975703131296,0.14893286317396143,0.15829205083867226,0.13323567747995946,0.11120426792893853,0.012684376706751507,0.012523483294312732,-0.011888691236684512
13.0,0.0,13.0,0.0,3.0,0.0,3.0,0.0,,,,left,1.3447328999754973,459.4096940999734,ri12,448.2699969999958,450.28446319996146,459.4096940999734,None,False,4.0,['p'],False,0.1875,0.25,0.25,2.0,1.0,0.895754137500101,-0.1184235875008037,wait_cost,1.0,3.0,456.92825739999535,None,ri12,1,2023-03-20_13h53.23.493,threat_forest,2021.2.3,60.09893487130529,False,57.0,0.4583333333333333,0.4970238095238095,-1.34375,-0.8351403061224489,0,0,0,0.2961954059539055,-0.1184235875008037,0.1875,0.1875,0.25,0.75,-2.0,-1.6875,2.3125,2.3125,0.0,1.0,-1.0,4.0,0,0,0,0.5174754943950644,0.24969460709564806,0.13284443714161398,0.4779707126030849,0.24951471049678411,0.08152810315059877,0.546389444007602,0.24784801948466556,0.11089714597935268,0.35518989964868614,0.22903003483624237,0.11743151251639805,0.2675057217261066,0.19594641056990142,0.09045783788784575,0.31072648241707773,0.21417553554178723,0.14872600035960915,0.2784118286031146,0.20089868229698454,0.10538671193619634,0.41987358133120467,0.24357975703131296,0.14893286317396143,0.15829205083867226,0.13323567747995946,0.11120426792893853,0.01734892043699395,0.017047935396664802,-0.0074526424394057746
13.0,0.0,13.0,0.0,4.0,0.0,4.0,0.0,,,,left,1.3997294000000693,465.5039787999704,ri12,448.2699969999958,450.28446319996146,465.5039787999704,None,False,3.0,['p'],False,0.1875,0.25,0.25,2.0,1.0,0.895754137500101,-0.1251322428385416,wait_cost,1.0,2.0,462.79303150001215,None,ri12,1,2023-03-20_13h53.23.493,threat_forest,2021.2.3,60.09893487130529,False,57.0,0.4583333333333333,0.4970238095238095,-1.34375,-0.8351403061224489,0,0,0,0.3362789322248857,-0.1251322428385416,0.1875,0.1875,0.25,0.75,-2.0,-1.6875,1.3125,1.3125,0.0,1.0,-1.0,3.0,0,0,0,0.5174754943950644,0.24969460709564806,0.13284443714161398,0.4779707126030849,0.24951471049678411,0.08152810315059877,0.546389444007602,0.24784801948466556,0.11089714597935268,0.35518989964868614,0.22903003483624237,0.11743151251639805,0.2675057217261066,0.19594641056990142,0.09045783788784575,0.31072648241707773,0.21417553554178723,0.14872600035960915,0.2784118286031146,0.20089868229698454,0.10538671193619634,0.41987358133120467,0.24357975703131296,0.14893286317396143,0.15829205083867226,0.13323567747995946,0.11120426792893853,0.014425720133024617,0.014217618731668269,-0.010227657524911667
13.0,0.0,13.0,0.0,5.0,0.0,5.0,0.0,,,,left,0.7661638000281528,472.6309033999569,ri12,472.6309033999569,None,466.9359516999684,468.95047649997286,True,2.0,['p'],True,0.4444444444444445,0.6666666666666666,0.3333333333333333,1.0,1.0,0.9656336071428248,0.1284722222222222,succ_gain,0.0,3.0,468.95047649997286,None,ri12,1,2023-03-20_13h53.23.493,threat_forest,2021.2.3,60.09893487130529,True,57.0,0.4583333333333333,0.4970238095238095,-1.34375,-0.8351403061224489,0,0,1,-0.2663592939448082,0.1284722222222222,0.4444444444444445,0.4444444444444445,0.6666666666666666,0.6666666666666667,-1.0,-1.0,1.0,1.0,1.0,1.0,-1.0,2.0,0,0,0,0.48166258024929437,0.2496637390368864,0.09997207753553994,0.4455348325446163,0.24703354553405701,0.1054950906377563,0.546389444007602,0.24784801948466556,0.11089714597935268,0.6493748454412378,0.2276871555494063,0.11772040023703328,0.4922577131386448,0.24994005699415656,0.13092779853078765,0.31072648241707773,0.21417553554178723,0.14872600035960915,0.6325115074892732,0.23244070038292033,0.1189217527031722,0.41987358133120467,0.24357975703131296,0.14893286317396143,0.7399803780360645,0.19240941815766757,0.19207083743436493,0.9460029232823046,0.05108139242363863,0.025915834604093
13.0,0.0,13.0,0.0,6.0,0.0,6.0,0.0,,,,left,1.0430050999857483,477.7954680999974,ri12,473.4298725000117,475.4442737000063,477.7954680999974,None,False,3.0,['p'],False,0.1875,0.25,0.25,2.0,1.0,0.895754137500101,-0.634765625,wait_cost,1.0,2.0,475.4442737000063,None,ri12,1,2023-03-20_13h53.23.493,threat_forest,2021.2.3,60.09893487130529,False,57.0,0.4583333333333333,0.4970238095238095,-1.34375,-0.8351403061224489,0,0,0,0.0421060657341479,-0.634765625,0.0,0.1875,0.25,0.75,-2.0,-1.6875,1.3125,1.3125,0.0,1.0,1.0,3.0,0,0,0,0.5174754943950644,0.24969460709564806,0.13284443714161398,0.4779707126030849,0.24951471049678411,0.08152810315059877,0.309857685651128,0.2138459002940547,0.14093047546671678,0.35518989964868614,0.22903003483624237,0.11743151251639805,0.2675057217261066,0.19594641056990142,0.09045783788784575,0.31072648241707773,0.21417553554178723,0.14872600035960915,0.2784118286031146,0.20089868229698454,0.10538671193619634,0.41987358133120467,0.24357975703131296,0.14893286317396143,0.025244869400303065,0.02460756596926471,-0.037246423697390466,9.547147929692588e-09,9.547147838544564e-09,-0.024167468732192117
13.0,0.0,13.0,0.0,7.0,0.0,7.0,0.0,,,,left,0.6621338999830186,481.87206129997503,ri12,473.4298725000117,475.4442737000063,481.87206129997503,None,False,2.0,['p'],False,0.1875,0.25,0.25,2.0,1.0,0.895754137500101,-0.8125,wait_cost,1.0,1.0,480.8725757999928,None,ri12,1,2023-03-20_13h53.23.493,threat_forest,2021.2.3,60.09893487130529,False,57.0,0.4583333333333333,0.4970238095238095,-1.34375,-0.8351403061224489,0,0,0,-0.4122874776627294,-0.8125,0.0,0.1875,0.25,0.75,-2.0,-1.6875,0.3125,0.3125,0.0,1.0,-1.0,2.0,0,0,0,0.5174754943950644,0.24969460709564806,0.13284443714161398,0.4779707126030849,0.24951471049678411,0.08152810315059877,0.546389444007602,0.24784801948466556,0.11089714597935268,0.35518989964868614,0.22903003483624237,0.11743151251639805,0.2675057217261066,0.19594641056990142,0.09045783788784575,0.31072648241707773,0.21417553554178723,0.14872600035960915,0.2784118286031146,0.20089868229698454,0.10538671193619634,0.41987358133120467,0.24357975703131296,0.14893286317396143,0.025244869400303065,0.02460756596926471,-0.037246423697390466,6.647491571215428e-11,6.647491570773545e-11,-0.024167478027622098
14.0,0.0,14.0,0.0,0.0,0.0,0.0,0.0,486.5815770999761,490.0759703000076,None,right,1.231890700000804,492.6785279999604,ri12,486.5815770999761,490.0759703000076,492.6785279999604,None,True,4.0,['p'],False,0.375,0.5,0.25,1.0,1.0,0.9850568223215076,0.0292062806120119,succ_gain,1.0,5.0,,,ri12,1,2023-03-20_13h53.23.493,threat_forest,2021.2.3,60.09893487130529,True,9.0,0.4,0.4291666666666667,-1.3025,-1.323125,1,0,1,0.20855014364388,0.0292062806120119,0.375,0.375,0.5,0.75,-1.25,-1.125,2.875,2.875,0.0,1.0,-1.0,4.0,0,0,1,0.5174754943950644,0.24969460709564806,0.13284443714161398,0.4779707126030849,0.24951471049678411,0.08152810315059877,0.546389444007602,0.24784801948466556,0.11089714597935268,0.5327665056634213,0.24892635610660896,0.11315130434194276,0.43166594413785225,0.2453304568094289,0.12747275612469033,0.6774091331639155,0.2185259994700281,0.08397531147394943,0.5346581250693851,0.24879881436667492,0.1259412065325922,0.41987358133120467,0.24357975703131296,0.14893286317396143,0.5772710322455877,0.24402918757570133,0.26261418358233046,0.5222636289958562,0.24950433082393483,0.2204617856565003
14.0,0.0,14.0,0.0,1.0,0.0,1.0,0.0,,,,right,1.6773068999755196,498.6230105999857,ri12,486.5815770999761,490.0759703000076,498.6230105999857,None,True,5.0,['p'],False,0.375,0.5,0.25,1.0,1.0,0.9850568223215076,0.0499017795041382,succ_gain,1.0,6.0,495.941904999956,None,ri12,1,2023-03-20_13h53.23.493,threat_forest,2021.2.3,60.09893487130529,True,9.0,0.4,0.4291666666666667,-1.3025,-1.323125,1,0,1,0.5171894714497637,0.0499017795041382,0.375,0.375,0.5,0.75,-1.25,-1.125,3.875,3.875,0.0,1.0,1.0,5.0,0,0,1,0.5174754943950644,0.24969460709564806,0.13284443714161398,0.4779707126030849,0.24951471049678411,0.08152810315059877,0.309857685651128,0.2138459002940547,0.14093047546671678,0.5327665056634213,0.24892635610660896,0.11315130434194276,0.43166594413785225,0.2453304568094289,0.12747275612469033,0.6774091331639155,0.2185259994700281,0.08397531147394943,0.5346581250693851,0.24879881436667492,0.1259412065325922,0.41987358133120467,0.24357975703131296,0.14893286317396143,0.5772710322455877,0.24402918757570133,0.26261418358233046,0.6609418196279673,0.2240977306948388,0.19555160528636711
14.0,0.0,14.0,0.0,2.0,0.0,2.0,0.0,,,,left,0.7727639999939129,503.30207370000426,ri12,486.5815770999761,490.0759703000076,503.30207370000426,None,False,6.0,['p'],False,0.375,0.5,0.25,1.0,1.0,0.9850568223215076,0.0598029951416015,wait_cost,1.0,5.0,502.3359307000064,None,ri12,1,2023-03-20_13h53.23.493,threat_forest,2021.2.3,60.09893487130529,False,9.0,0.4,0.4291666666666667,-1.3025,-1.323125,1,0,0,-0.2577815810276988,0.0598029951416015,0.375,0.375,0.5,0.75,-1.25,-1.125,4.875,4.875,0.0,1.0,1.0,6.0,0,0,1,0.5174754943950644,0.24969460709564806,0.13284443714161398,0.4779707126030849,0.24951471049678411,0.08152810315059877,0.309857685651128,0.2138459002940547,0.14093047546671678,0.5327665056634213,0.24892635610660896,0.11315130434194276,0.43166594413785225,0.2453304568094289,0.12747275612469033,0.6774091331639155,0.2185259994700281,0.08397531147394943,0.5346581250693851,0.24879881436667492,0.1259412065325922,0.41987358133120467,0.24357975703131296,0.14893286317396143,0.5772710322455877,0.24402918757570133,0.26261418358233046,0.7199482796327815,0.20162275428657975,0.17351576761822257
14.0,0.0,14.0,0.0,3.0,0.0,3.0,0.0,,,,left,1.898461300006602,509.6128073,ri12,486.5815770999761,490.0759703000076,509.6128073,None,False,5.0,['p'],False,0.375,0.5,0.25,1.0,1.0,0.9850568223215076,0.0607207880859375,wait_cost,1.0,4.0,506.11582229996566,None,ri12,1,2023-03-20_13h53.23.493,threat_forest,2021.2.3,60.09893487130529,False,9.0,0.4,0.4291666666666667,-1.3025,-1.323125,1,0,0,0.6410437159713404,0.0607207880859375,0.375,0.375,0.5,0.75,-1.25,-1.125,3.875,3.875,0.0,1.0,-1.0,5.0,0,0,1,0.5174754943950644,0.24969460709564806,0.13284443714161398,0.4779707126030849,0.24951471049678411,0.08152810315059877,0.546389444007602,0.24784801948466556,0.11089714597935268,0.5327665056634213,0.24892635610660896,0.11315130434194276,0.43166594413785225,0.2453304568094289,0.12747275612469033,0.6774091331639155,0.2185259994700281,0.08397531147394943,0.5346581250693851,0.24879881436667492,0.1259412065325922,0.41987358133120467,0.24357975703131296,0.14893286317396143,0.5772710322455877,0.24402918757570133,0.26261418358233046,0.725090553573235,0.1993342426920946,0.17127197126971072
14.0,0.0,14.0,0.0,4.0,0.0,4.0,0.0,,,,right,1.1092690999503247,517.2949050999596,ri12,517.2949050999596,None,511.5447309999727,513.5588339999667,False,4.0,['p'],True,0.24,0.3,0.2,2.0,1.0,0.9003120349047065,0.000830625,wait_cost,0.0,3.0,513.5588339999667,None,ri12,1,2023-03-20_13h53.23.493,threat_forest,2021.2.3,60.09893487130529,False,9.0,0.4,0.4291666666666667,-1.3025,-1.323125,0,0,0,0.1037013299254169,0.000830625,0.24,0.24,0.3,0.8,-1.7,-1.48,2.52,2.52,1.0,1.0,-1.0,4.0,0,0,0,0.48166258024929437,0.2496637390368864,0.09997207753553994,0.4975396101743048,0.24999394648190557,0.07689888944197953,0.546389444007602,0.24784801948466556,0.11089714597935268,0.38917252550746617,0.23771727089760677,0.11556266559248679,0.32862475213403397,0.2206305244188787,0.10895936875547116,0.31072648241707773,0.21417553554178723,0.14872600035960915,0.3437076672422742,0.22557270672114832,0.11597461806054561,0.41987358133120467,0.24357975703131296,0.14893286317396143,0.24677793808029486,0.18587858735713306,0.18314583325495942,0.3309468144421922,0.2214210204527574,0.19292719530667565
14.0,0.0,14.0,0.0,5.0,0.0,5.0,0.0,,,,right,1.403093600005377,522.3676221999922,ri12,522.3676221999922,None,511.5447309999727,513.5588339999667,False,3.0,['p'],True,0.24,0.3,0.2,2.0,1.0,0.9003120349047065,0.0709499999999999,wait_cost,0.0,2.0,520.4356946999906,None,ri12,1,2023-03-20_13h53.23.493,threat_forest,2021.2.3,60.09893487130529,False,9.0,0.4,0.4291666666666667,-1.3025,-1.323125,0,0,0,0.3386795130827557,0.0709499999999999,0.24,0.24,0.3,0.8,-1.7,-1.48,1.52,1.52,1.0,1.0,-1.0,3.0,0,0,0,0.48166258024929437,0.2496637390368864,0.09997207753553994,0.4975396101743048,0.24999394648190557,0.07689888944197953,0.546389444007602,0.24784801948466556,0.11089714597935268,0.38917252550746617,0.23771727089760677,0.11556266559248679,0.32862475213403397,0.2206305244188787,0.10895936875547116,0.31072648241707773,0.21417553554178723,0.14872600035960915,0.3437076672422742,0.22557270672114832,0.11597461806054561,0.41987358133120467,0.24357975703131296,0.14893286317396143,0.24677793808029486,0.18587858735713306,0.18314583325495942,0.7782905777261099,0.17255435434886798,0.1450153353746215
14.0,0.0,14.0,0.0,6.0,0.0,6.0,0.0,,,,right,1.0864622000372035,529.5110018999549,ri12,529.5110018999549,None,511.5447309999727,513.5588339999667,False,2.0,['p'],True,0.24,0.3,0.2,2.0,1.0,0.9003120349047065,-0.0675,wait_cost,0.0,1.0,525.8140002999571,None,ri12,1,2023-03-20_13h53.23.493,threat_forest,2021.2.3,60.09893487130529,False,9.0,0.4,0.4291666666666667,-1.3025,-1.323125,0,0,0,0.0829267295313256,-0.0675,0.24,0.24,0.3,0.8,-1.7,-1.48,0.52,0.52,1.0,1.0,-1.0,2.0,0,0,0,0.48166258024929437,0.2496637390368864,0.09997207753553994,0.4975396101743048,0.24999394648190557,0.07689888944197953,0.546389444007602,0.24784801948466556,0.11089714597935268,0.38917252550746617,0.23771727089760677,0.11556266559248679,0.32862475213403397,0.2206305244188787,0.10895936875547116,0.31072648241707773,0.21417553554178723,0.14872600035960915,0.3437076672422742,0.22557270672114832,0.11597461806054561,0.41987358133120467,0.24357975703131296,0.14893286317396143,0.24677793808029486,0.18587858735713306,0.18314583325495942,0.06827121246925766,0.06361025401723515,0.0381998946728586
14.0,0.0,14.0,0.0,7.0,0.0,7.0,0.0,,,,left,1.467927600024268,536.0885464999592,ri12,536.0885464999592,None,511.5447309999727,513.5588339999667,True,1.0,['p'],True,0.24,0.3,0.2,2.0,1.0,0.9003120349047065,0.24,unsucc_cost,0.0,0.0,532.641016300011,None,ri12,1,2023-03-20_13h53.23.493,threat_forest,2021.2.3,60.09893487130529,True,9.0,0.4,0.4291666666666667,-1.3025,-1.323125,0,0,1,0.383851610191554,0.24,1.0,0.24,0.3,0.8,-1.7,-1.48,-0.48,0.0,1.0,1.0,-1.0,1.0,1,0,0,0.48166258024929437,0.2496637390368864,0.09997207753553994,0.4975396101743048,0.24999394648190557,0.07689888944197953,0.546389444007602,0.24784801948466556,0.11089714597935268,0.38917252550746617,0.23771727089760677,0.11556266559248679,0.32862475213403397,0.2206305244188787,0.10895936875547116,0.31072648241707773,0.21417553554178723,0.14872600035960915,0.3437076672422742,0.22557270672114832,0.11597461806054561,0.9803923672855456,0.019223173453789422,-0.08868908455826238,0.9990132966922722,0.0009857297243101716,-0.06952791952089234,0.9974780599732374,0.002515579845264089,-0.02170105018183825
15.0,0.0,15.0,0.0,0.0,0.0,0.0,0.0,541.586862199998,545.0960001999629,None,left,1.3152430999907665,546.5456794999773,ri12,546.5456794999773,None,541.586862199998,545.0960001999629,True,5.0,['r'],True,0.3333333333333333,0.3333333333333333,0.0,0.0,1.0,0.5793801642856949,0.0363479425877699,unsucc_cost,0.0,3.0,,,ri12,1,2023-03-20_13h53.23.493,threat_forest,2021.2.3,60.09893487130529,True,43.0,0.4166666666666666,0.4083333333333333,-1.375,-1.33875,1,0,1,0.2740215154570762,0.0363479425877699,0.3333333333333333,0.3333333333333333,0.3333333333333333,1.0,-1.0000000000000002,-1.0000000000000002,4.0,4.0,1.0,1.0,-1.0,5.0,0,0,1,0.48166258024929437,0.2496637390368864,0.09997207753553994,0.5752951451210374,0.24433064112120192,0.131603985940985,0.546389444007602,0.24784801948466556,0.11089714597935268,0.41246507805596955,0.24233763744025247,0.11456870643912984,0.4922577131386447,0.2499400569941565,0.1309277985307876,0.6774091331639155,0.2185259994700281,0.08397531147394943,0.47411427245764864,0.24932992910960308,0.1261691139441563,0.41987358133120467,0.24357975703131296,0.14893286317396143,0.467796912017027,0.24896296112436092,0.2693566564601186,0.5716785014461905,0.24486219243042842,0.21591035004143205
15.0,0.0,15.0,0.0,1.0,0.0,1.0,0.0,,,,left,1.8434379000100307,551.4738451999729,ri12,547.8936749999993,549.9082433999865,551.4738451999729,None,False,3.0,['r'],False,0.25,0.5,0.5,2.0,1.0,0.9463946303571862,0.0077793451003086,wait_cost,1.0,2.0,549.9082433999865,None,ri12,1,2023-03-20_13h53.23.493,threat_forest,2021.2.3,60.09893487130529,False,43.0,0.4166666666666666,0.4083333333333333,-1.375,-1.33875,0,0,0,0.611632252206605,0.0077793451003086,0.25,0.25,0.5,0.5,-2.0,-1.75,1.25,1.25,0.0,1.0,-1.0,3.0,0,0,0,0.5174754943950644,0.24969460709564806,0.13284443714161398,0.382290568474892,0.2361444897300359,0.21067869113285953,0.546389444007602,0.24784801948466556,0.11089714597935268,0.5327665056634213,0.24892635610660896,0.11315130434194276,0.2675057217261066,0.19594641056990142,0.09045783788784575,0.31072648241707773,0.21417553554178723,0.14872600035960915,0.356952230248434,0.22953733556910297,0.11767588565023486,0.41987358133120467,0.24357975703131296,0.14893286317396143,0.2669536240585213,0.19568938666054295,0.19655322772904005,0.3752617914419545,0.23444037932572953,0.20569216882463248
15.0,0.0,15.0,0.0,2.0,0.0,2.0,0.0,,,,left,1.5761645000311546,557.601535099966,ri12,547.8936749999993,549.9082433999865,557.601535099966,None,False,2.0,['r'],False,0.25,0.5,0.5,2.0,1.0,0.9463946303571862,0.0095154562114198,wait_cost,1.0,1.0,555.3531807999825,None,ri12,1,2023-03-20_13h53.23.493,threat_forest,2021.2.3,60.09893487130529,False,43.0,0.4166666666666666,0.4083333333333333,-1.375,-1.33875,0,0,0,0.4549943641810198,0.0095154562114198,0.25,0.25,0.5,0.5,-2.0,-1.75,0.25,0.25,0.0,1.0,-1.0,2.0,0,0,0,0.5174754943950644,0.24969460709564806,0.13284443714161398,0.382290568474892,0.2361444897300359,0.21067869113285953,0.546389444007602,0.24784801948466556,0.11089714597935268,0.5327665056634213,0.24892635610660896,0.11315130434194276,0.2675057217261066,0.19594641056990142,0.09045783788784575,0.31072648241707773,0.21417553554178723,0.14872600035960915,0.356952230248434,0.22953733556910297,0.11767588565023486,0.41987358133120467,0.24357975703131296,0.14893286317396143,0.2669536240585213,0.19568938666054295,0.19655322772904005,0.38670370128072445,0.2371639486965127,0.20836252235214292
15.0,0.0,15.0,0.0,3.0,0.0,3.0,0.0,,,,right,0.9259056999580936,563.2793825999834,ri12,547.8936749999993,549.9082433999865,563.2793825999834,None,True,1.0,['r'],False,0.25,0.5,0.5,2.0,1.0,0.9463946303571862,0.0310149016203703,unsucc_cost,1.0,0.0,561.2143275999697,None,ri12,1,2023-03-20_13h53.23.493,threat_forest,2021.2.3,60.09893487130529,True,43.0,0.4166666666666666,0.4083333333333333,-1.375,-1.33875,0,0,1,-0.0769828854199718,0.0310149016203703,1.0,0.25,0.5,0.5,-2.0,-1.75,-0.75,0.0,0.0,1.0,-1.0,1.0,1,0,0,0.5174754943950644,0.24969460709564806,0.13284443714161398,0.382290568474892,0.2361444897300359,0.21067869113285953,0.546389444007602,0.24784801948466556,0.11089714597935268,0.5327665056634213,0.24892635610660896,0.11315130434194276,0.2675057217261066,0.19594641056990142,0.09045783788784575,0.31072648241707773,0.21417553554178723,0.14872600035960915,0.356952230248434,0.22953733556910297,0.11767588565023486,0.9803923672855456,0.019223173453789422,-0.08868908455826238,0.9990132966922722,0.0009857297243101716,-0.06952791952089234,0.5348581809866781,0.2487849072183,0.21975641887433206
16.0,0.0,16.0,0.0,0.0,0.0,0.0,0.0,567.5362283999566,571.0273291000049,None,left,0.9835413999971934,572.154469400004,ri12,572.154469400004,None,567.5362283999566,571.0273291000049,True,4.0,['r'],True,0.4285714285714285,0.4285714285714285,0.0,0.0,2.0,0.6216097450797565,0.0515952580137115,unsucc_cost,0.0,2.0,,,ri12,1,2023-03-20_13h53.23.493,threat_forest,2021.2.3,60.09893487130529,True,52.0,0.4365079365079364,0.4265873015873015,-0.5626102292768962,-0.968805114638448,1,1,1,-0.016595547481584,0.0515952580137115,0.4285714285714285,0.4285714285714285,0.4285714285714285,1.0,-0.285714285714286,-0.285714285714286,3.714285714285714,3.714285714285714,1.0,2.0,-1.0,4.0,0,1,1,0.48166258024929437,0.2496637390368864,0.09997207753553994,0.5752951451210374,0.24433064112120192,0.131603985940985,0.546389444007602,0.24784801948466556,0.11089714597935268,0.48085451166011484,0.24963345027622727,0.1129991902800625,0.6607002223495847,0.22417543853679403,0.11161639498606474,0.6774091331639155,0.2185259994700281,0.08397531147394943,0.6107887700390783,0.23772584843322822,0.12118967018789131,0.41987358133120467,0.24357975703131296,0.14893286317396143,0.7064137787780527,0.20739335193056513,0.2125478143507017,0.6714657765795266,0.22059948746197988,0.19212171425544097
