miniblock.thisRepN,miniblock.thisTrialN,miniblock.thisN,miniblock.thisIndex,day.thisRepN,day.thisTrialN,day.thisN,day.thisIndex,forest.started,fixation_forest.started,fixation_forest.stopped,key_resp.keys,key_resp.rt,key_resp.started,Subject_ID,weather_left.started,weather_left.stopped,weather_right.started,weather_right.stopped,foraging T/F,in_LP,p/r heuristic,good_weather.T/F,p_succ_correct,p_succ_uncorrected,r_threat,n_oponents,gain_if_succ,weather_entropy,OP_value_difference,action_outcome,forest_side_L=0_R=1,out_LP,fixation_day.started,fixation_day.stopped,participant,session,date,expName,psychopyVersion,frameRate,foraging T/F NaNs,fora_NR,forest_mean_p,mvt_cutoff_p,forest_mean_ev,mvt_cutoff_ev,mvt_policy_eg,mvt_policy_p,fora_response,logRT,optimal policy values,multi-heuristic policy,** $\mathit{p}$ success,* $\mathit{p}$ gain,* $\mathit{r}$ predator,expected gain naive,expected gain correct,expected state no bounds,expected state with bounds,weather type,gain magnitude,win stay lose shift,continuous energy state,** binary energy state,** wait when safe,$\mathit{p}$ success based MVT,marginal value,$\mathit{OP}$ values + cap,win stay lose shift fit,win stay lose shift_uncertain,win stay lose shift_uncertain_fit,** wait when safe fit,** wait when safe_uncertain,** wait when safe_uncertain_fit,** binary energy state fit,** binary energy state_uncertain,** binary energy state_uncertain_fit,weather type fit,weather type_uncertain,weather type_uncertain_fit,* $\mathit{r}$ predator fit,* $\mathit{r}$ predator_uncertain,* $\mathit{r}$ predator_uncertain_fit,* $\mathit{p}$ gain fit,* $\mathit{p}$ gain_uncertain,* $\mathit{p}$ gain_uncertain_fit,expected gain naive fit,expected gain naive_uncertain,expected gain naive_uncertain_fit,** $\mathit{p}$ success fit,** $\mathit{p}$ success_uncertain,** $\mathit{p}$ success_uncertain_fit,marginal value fit,marginal value_uncertain,marginal value_uncertain_fit,multi-heuristic policy fit,multi-heuristic policy_uncertain,multi-heuristic policy_uncertain_fit,optimal policy values fit,optimal policy values_uncertain,optimal policy values_uncertain_fit
0.0,0.0,0.0,0.0,0.0,0.0,0.0,0.0,36.85472169984132,40.36324049998075,,right,1.9680123999714847,41.49168960005045,nx8,36.85472169984132,40.36324049998075,41.49168960005045,,True,5.0,['p'],False,0.24,0.3,0.2,2.0,2.0,0.9003120349047065,-0.0305436800767033,succ_gain,1.0,6.0,,,nx8,1,2022-05-05_14h42.09.553,threat_forest,2021.2.3,59.95171492593129,True,15.0,0.4833333333333333,0.4833333333333333,-0.8977777777777778,-0.8977777777777778,0,0,1.0,0.6770240994087304,-0.0305436800767033,0.24,0.24,0.3,0.2,-0.3999999999999999,-0.24,4.76,4.76,0.0,2.0,,5.0,0,1,0,0,-0.0305436800767033,,,,0.7992466705711139,0.1604514301521033,0.18773785784194175,0.8070847899815095,0.15569893176201224,0.21271205491227152,0.7793103296197055,0.17198573976773152,0.18804269761311,0.7974272412031314,0.1615370361902944,0.19349497011381822,0.7692502810337698,0.17750428616323602,0.1771948573263032,0.7674152972567403,0.17848905879308918,0.15912687843687645,0.7645448878392004,0.1800160023181449,0.15196277768914157,0.7610130815505876,0.18187217125946628,0.17429456540145766,0.8001305877807171,0.15992163027840134,0.21266415607426037,0.7945675818188506,0.16322993974139477,0.2009747223264861
0.0,0.0,0.0,0.0,1.0,0.0,1.0,0.0,,,,left,1.919210500083864,48.94726790022105,nx8,48.94726790022105,,43.47807820001617,45.49242949998006,True,6.0,['p'],True,0.4444444444444445,0.6666666666666666,0.3333333333333333,1.0,2.0,0.9656336071428248,-0.0743116691254155,succ_gain,0.0,6.0,45.49242949998006,,nx8,1,2022-05-05_14h42.09.553,threat_forest,2021.2.3,59.95171492593129,True,15.0,0.4833333333333333,0.4833333333333333,-0.8977777777777778,-0.8977777777777778,1,0,1.0,0.6519139036016746,-0.0743116691254155,0.4444444444444445,0.4444444444444445,0.6666666666666666,0.3333333333333333,0.6666666666666665,0.4444444444444444,6.444444444444445,6.444444444444445,1.0,2.0,1.0,6.0,0,1,0,1,-0.0743116691254155,0.7936601660816857,0.16376370685687672,0.227655886518078,0.7992466705711139,0.1604514301521033,0.18773785784194175,0.8070847899815095,0.15569893176201224,0.21271205491227152,0.8163223597820337,0.1499401647019257,0.204873074519405,0.7900473166968272,0.16587255407697038,0.15967877299876987,0.8429496722131119,0.13238552232891906,0.22753619549133852,0.8511526327472975,0.12669182851464167,0.2586074321161569,0.8305508165474109,0.1407361576798399,0.2384982689848677,0.8420969467607858,0.13296967901694812,0.22308043014602807,0.797447025030967,0.16152526730022732,0.19268397942253035,0.7912471559745673,0.16517509413672612,0.2051068895642561
0.0,0.0,0.0,0.0,2.0,0.0,2.0,0.0,,,,left,2.041113399900496,55.953181200195104,nx8,50.894548600073904,52.908693300094455,55.953181200195104,,False,6.0,['p'],False,0.24,0.3,0.2,2.0,2.0,0.9003120349047065,-0.0048125669818624,wait_cost,1.0,5.0,52.908693300094455,,nx8,1,2022-05-05_14h42.09.553,threat_forest,2021.2.3,59.95171492593129,False,15.0,0.4833333333333333,0.4833333333333333,-0.8977777777777778,-0.8977777777777778,0,0,0.0,0.7134954432350128,-0.0048125669818624,0.24,0.24,0.3,0.2,-0.3999999999999999,-0.24,5.76,5.76,0.0,2.0,-1.0,6.0,0,1,0,0,-0.0048125669818624,0.7982359165955736,0.16105533805239805,0.18580345683423838,0.7992466705711139,0.1604514301521033,0.18773785784194175,0.8070847899815095,0.15569893176201224,0.21271205491227152,0.7793103296197055,0.17198573976773152,0.18804269761311,0.7974272412031314,0.1615370361902944,0.19349497011381822,0.7692502810337698,0.17750428616323602,0.1771948573263032,0.7674152972567403,0.17848905879308918,0.15912687843687645,0.7645448878392004,0.1800160023181449,0.15196277768914157,0.7610130815505876,0.18187217125946628,0.17429456540145766,0.8001305877807171,0.15992163027840134,0.21266415607426037,0.7965012978970789,0.16208698034534766,0.1985466891678932
0.0,0.0,0.0,0.0,3.0,0.0,3.0,0.0,,,,left,1.4651263002306223,61.36247139982879,nx8,61.36247139982879,,58.026131900027394,60.02166450023651,True,5.0,['p'],True,0.4444444444444445,0.6666666666666666,0.3333333333333333,1.0,2.0,0.9656336071428248,0.0940301783264745,figh_cost,0.0,2.0,60.02166450023651,,nx8,1,2022-05-05_14h42.09.553,threat_forest,2021.2.3,59.95171492593129,True,15.0,0.4833333333333333,0.4833333333333333,-0.8977777777777778,-0.8977777777777778,1,0,1.0,0.3819414505145272,0.0940301783264745,0.4444444444444445,0.4444444444444445,0.6666666666666666,0.3333333333333333,0.6666666666666665,0.4444444444444444,5.444444444444445,5.444444444444445,1.0,2.0,-1.0,5.0,0,1,0,1,0.0940301783264745,0.7982359165955736,0.16105533805239805,0.18580345683423838,0.7992466705711139,0.1604514301521033,0.18773785784194175,0.8070847899815095,0.15569893176201224,0.21271205491227152,0.8163223597820337,0.1499401647019257,0.204873074519405,0.7900473166968272,0.16587255407697038,0.15967877299876987,0.8429496722131119,0.13238552232891906,0.22753619549133852,0.8511526327472975,0.12669182851464167,0.2586074321161569,0.8305508165474109,0.1407361576798399,0.2384982689848677,0.8420969467607858,0.13296967901694812,0.22308043014602807,0.797447025030967,0.16152526730022732,0.19268397942253035,0.8038031837967533,0.15770362551495617,0.18923495778804095
0.0,0.0,0.0,0.0,4.0,0.0,4.0,0.0,,,,right,2.4398709000088274,65.41564919985831,nx8,62.859101000241935,64.85887320013717,65.41564919985831,,True,2.0,['p'],False,0.24,0.3,0.2,2.0,2.0,0.9003120349047065,-0.1022222222222222,figh_cost,1.0,0.0,64.85887320013717,,nx8,1,2022-05-05_14h42.09.553,threat_forest,2021.2.3,59.95171492593129,True,15.0,0.4833333333333333,0.4833333333333333,-0.8977777777777778,-0.8977777777777778,0,0,1.0,0.8919451280728882,-0.1022222222222222,0.24,0.24,0.3,0.2,-0.3999999999999999,-0.24,1.76,1.76,0.0,2.0,-1.0,2.0,0,1,0,0,-0.1022222222222222,0.7982359165955736,0.16105533805239805,0.18580345683423838,0.7992466705711139,0.1604514301521033,0.18773785784194175,0.8070847899815095,0.15569893176201224,0.21271205491227152,0.7793103296197055,0.17198573976773152,0.18804269761311,0.7974272412031314,0.1615370361902944,0.19349497011381822,0.7692502810337698,0.17750428616323602,0.1771948573263032,0.7674152972567403,0.17848905879308918,0.15912687843687645,0.7645448878392004,0.1800160023181449,0.15196277768914157,0.7610130815505876,0.18187217125946628,0.17429456540145766,0.8001305877807171,0.15992163027840134,0.21266415607426037,0.7891092002601414,0.16641587032494148,0.20774271874401395
1.0,0.0,1.0,0.0,0.0,0.0,0.0,0.0,70.66048360010609,74.16656620008871,,left,0.9313268000259995,75.00950769986957,nx8,75.00950769986957,,70.66048360010609,74.16656620008871,True,5.0,['r'],True,0.2222222222222222,0.6666666666666666,0.6666666666666666,2.0,1.0,0.77250688571426,-0.0238664193203007,figh_cost,0.0,2.0,,,nx8,1,2022-05-05_14h42.09.553,threat_forest,2021.2.3,59.95171492593129,True,66.0,0.5,0.4916666666666666,-1.5,-1.198888888888889,0,0,1.0,-0.0711450428622402,-0.0238664193203007,0.2222222222222222,0.2222222222222222,0.6666666666666666,0.6666666666666666,-1.0,-1.0,4.0,4.0,1.0,1.0,-1.0,5.0,0,1,0,0,-0.0238664193203007,0.7982359165955736,0.16105533805239805,0.18580345683423838,0.7992466705711139,0.1604514301521033,0.18773785784194175,0.8070847899815095,0.15569893176201224,0.21271205491227152,0.8163223597820337,0.1499401647019257,0.204873074519405,0.7707425152518692,0.17669849043509128,0.07523857290957925,0.8429496722131119,0.13238552232891906,0.22753619549133852,0.707744947855049,0.20684203664070303,0.10467280976226973,0.758038192630788,0.18341629114383637,0.14447176883235924,0.7610130815505876,0.18187217125946628,0.17429456540145766,0.800362675925774,0.15978226291070846,0.21440057434603332,0.7950706894805691,0.16293328820946154,0.20034453392384266
1.0,0.0,1.0,0.0,2.0,0.0,2.0,0.0,,,,left,1.3130454001948235,85.39694620016962,nx8,85.39694620016962,,82.0593014000915,84.05938320001587,True,1.0,['r'],True,0.2222222222222222,0.6666666666666666,0.6666666666666666,2.0,1.0,0.77250688571426,0.0223098613016308,figh_cost,0.0,0.0,84.05938320001587,,nx8,1,2022-05-05_14h42.09.553,threat_forest,2021.2.3,59.95171492593129,True,66.0,0.5,0.4916666666666666,-1.5,-1.198888888888889,0,0,1.0,0.2723491721751375,0.0223098613016308,1.0,0.2222222222222222,0.6666666666666666,0.6666666666666666,-1.0,-1.0,0.0,1.0,1.0,1.0,-1.0,1.0,1,1,0,0,0.625,0.7982359165955736,0.16105533805239805,0.18580345683423838,0.7992466705711139,0.1604514301521033,0.18773785784194175,0.736830155259625,0.19391147755970187,0.08825450422465098,0.8163223597820337,0.1499401647019257,0.204873074519405,0.7707425152518692,0.17669849043509128,0.07523857290957925,0.8429496722131119,0.13238552232891906,0.22753619549133852,0.707744947855049,0.20684203664070303,0.10467280976226973,0.758038192630788,0.18341629114383637,0.14447176883235924,0.7610130815505876,0.18187217125946628,0.17429456540145766,0.7900193821324482,0.165888757987513,0.13831798913697524,0.7985248669371244,0.1608829038201722,0.19598882251163202
2.0,0.0,2.0,0.0,0.0,0.0,0.0,0.0,92.14960409980269,95.64921420020984,,right,1.902865800075233,98.5736882998608,nx8,92.14960409980269,95.64921420020984,98.5736882998608,,True,4.0,['r'],False,0.5,0.5,0.0,0.0,2.0,0.6309297535714574,0.0723560159877321,unsucc_cost,1.0,2.0,,,nx8,1,2022-05-05_14h42.09.553,threat_forest,2021.2.3,59.95171492593129,True,14.0,0.5357142857142857,0.5178571428571428,-0.326530612244898,-0.9132653061224488,1,0,1.0,0.6433610656356669,0.0723560159877321,0.5,0.5,0.5,0.0,1.0,1.0,5.0,5.0,0.0,2.0,-1.0,4.0,0,1,0,1,0.0723560159877321,0.7982359165955736,0.16105533805239805,0.18580345683423838,0.7992466705711139,0.1604514301521033,0.18773785784194175,0.8070847899815095,0.15569893176201224,0.21271205491227152,0.7793103296197055,0.17198573976773152,0.18804269761311,0.8081312136840458,0.15505515515359697,0.244052382755773,0.812122331834495,0.15257964997019738,0.20500456292554864,0.8716372056981452,0.1118857873408745,0.28704356983716267,0.8457216144210963,0.13047656532207086,0.2611006716508812,0.8420969467607858,0.13296967901694812,0.22308043014602807,0.796713168301498,0.16196129575648702,0.1872513749972904,0.802219161834429,0.15866357822009522,0.19127422270577954
2.0,0.0,2.0,0.0,1.0,0.0,1.0,0.0,,,,left,2.1129938000813127,104.89731559995562,nx8,92.14960409980269,95.64921420020984,104.89731559995562,,False,2.0,['r'],False,0.5,0.5,0.0,0.0,2.0,0.6309297535714574,0.0536521501003592,wait_cost,1.0,1.0,102.49273509997874,,nx8,1,2022-05-05_14h42.09.553,threat_forest,2021.2.3,59.95171492593129,False,14.0,0.5357142857142857,0.5178571428571428,-0.326530612244898,-0.9132653061224488,1,0,0.0,0.7481058044513436,0.0536521501003592,0.5,0.5,0.5,0.0,1.0,1.0,3.0,3.0,0.0,2.0,-1.0,2.0,0,1,0,1,0.0536521501003592,0.7982359165955736,0.16105533805239805,0.18580345683423838,0.7992466705711139,0.1604514301521033,0.18773785784194175,0.8070847899815095,0.15569893176201224,0.21271205491227152,0.7793103296197055,0.17198573976773152,0.18804269761311,0.8081312136840458,0.15505515515359697,0.244052382755773,0.812122331834495,0.15257964997019738,0.20500456292554864,0.8716372056981452,0.1118857873408745,0.28704356983716267,0.8457216144210963,0.13047656532207086,0.2611006716508812,0.8420969467607858,0.13296967901694812,0.22308043014602807,0.796713168301498,0.16196129575648702,0.1872513749972904,0.8008444894312464,0.15949259317885267,0.19303533146939272
2.0,0.0,2.0,0.0,2.0,0.0,2.0,0.0,,,,right,1.468287399969995,111.66310650017112,nx8,92.14960409980269,95.64921420020984,111.66310650017112,,True,1.0,['r'],False,0.5,0.5,0.0,0.0,2.0,0.6309297535714574,0.285343093437332,succ_gain,1.0,3.0,109.04300750000402,,nx8,1,2022-05-05_14h42.09.553,threat_forest,2021.2.3,59.95171492593129,True,14.0,0.5357142857142857,0.5178571428571428,-0.326530612244898,-0.9132653061224488,1,0,1.0,0.3840966875769148,0.285343093437332,1.0,0.5,0.5,0.0,1.0,1.0,2.0,2.0,0.0,2.0,-1.0,1.0,1,1,0,1,0.625,0.7982359165955736,0.16105533805239805,0.18580345683423838,0.7992466705711139,0.1604514301521033,0.18773785784194175,0.736830155259625,0.19391147755970187,0.08825450422465098,0.7793103296197055,0.17198573976773152,0.18804269761311,0.8081312136840458,0.15505515515359697,0.244052382755773,0.812122331834495,0.15257964997019738,0.20500456292554864,0.8716372056981452,0.1118857873408745,0.28704356983716267,0.8457216144210963,0.13047656532207086,0.2611006716508812,0.8420969467607858,0.13296967901694812,0.22308043014602807,0.7900193821324482,0.165888757987513,0.13831798913697524,0.8173694401649693,0.14927663844937403,0.1713331809681201
2.0,0.0,2.0,0.0,3.0,0.0,3.0,0.0,,,,left,2.36422839993611,117.7500399001874,nx8,117.7500399001874,,113.15992709994316,115.15963289979844,True,3.0,['r'],True,0.4081632653061224,0.5714285714285714,0.2857142857142857,2.0,2.0,0.9885754083994552,0.0196828699073915,succ_gain,0.0,5.0,115.15963289979844,,nx8,1,2022-05-05_14h42.09.553,threat_forest,2021.2.3,59.95171492593129,True,14.0,0.5357142857142857,0.5178571428571428,-0.326530612244898,-0.9132653061224488,1,0,1.0,0.8604517107550574,0.0196828699073915,0.4081632653061224,0.4081632653061224,0.5714285714285714,0.2857142857142857,0.4285714285714285,0.346938775510204,3.346938775510204,3.346938775510204,1.0,2.0,1.0,3.0,0,1,0,1,0.0196828699073915,0.7936601660816857,0.16376370685687672,0.227655886518078,0.7992466705711139,0.1604514301521033,0.18773785784194175,0.8070847899815095,0.15569893176201224,0.21271205491227152,0.8163223597820337,0.1499401647019257,0.204873074519405,0.7927054430317545,0.16432352361958436,0.17176090958622625,0.8258703278142977,0.14380852945020206,0.21479095569563436,0.8349227046837544,0.13782678188731876,0.23722190009538785,0.8200168122645393,0.1475892398680427,0.2234005811119426,0.8420969467607858,0.13296967901694812,0.22308043014602807,0.7979252106436688,0.1612405688629256,0.19623111945006766,0.7983295304028262,0.1609994912896292,0.1962364938136022
2.0,0.0,2.0,0.0,4.0,0.0,4.0,0.0,,,,left,2.789264400023967,124.05776060000062,nx8,120.1434403997846,122.14288590010256,124.05776060000062,,False,5.0,['r'],False,0.5,0.5,0.0,0.0,2.0,0.6309297535714574,-0.1814478342357351,wait_cost,1.0,4.0,122.14288590010256,,nx8,1,2022-05-05_14h42.09.553,threat_forest,2021.2.3,59.95171492593129,False,14.0,0.5357142857142857,0.5178571428571428,-0.326530612244898,-0.9132653061224488,1,0,0.0,1.0257779051645577,-0.1814478342357351,0.0,0.5,0.5,0.0,1.0,1.0,6.0,6.0,0.0,2.0,1.0,5.0,0,0,0,1,-0.84,0.7936601660816857,0.16376370685687672,0.227655886518078,0.7826213674264098,0.17012516267402636,0.2991760586422243,0.8070847899815095,0.15569893176201224,0.21271205491227152,0.7793103296197055,0.17198573976773152,0.18804269761311,0.8081312136840458,0.15505515515359697,0.244052382755773,0.812122331834495,0.15257964997019738,0.20500456292554864,0.8716372056981452,0.1118857873408745,0.28704356983716267,0.8457216144210963,0.13047656532207086,0.2611006716508812,0.8420969467607858,0.13296967901694812,0.22308043014602807,0.803246712512514,0.15804143135035265,0.23609009736366193,0.782953331974173,0.16993741192471337,0.2152236667139784
2.0,0.0,2.0,0.0,5.0,0.0,5.0,0.0,,,,left,2.3304904997348785,129.4496202999726,nx8,129.4496202999726,,126.8768588998355,128.8764086998999,True,4.0,['r'],True,0.4081632653061224,0.5714285714285714,0.2857142857142857,2.0,2.0,0.9885754083994552,-0.3160662224073303,succ_gain,0.0,6.0,128.8764086998999,,nx8,1,2022-05-05_14h42.09.553,threat_forest,2021.2.3,59.95171492593129,True,14.0,0.5357142857142857,0.5178571428571428,-0.326530612244898,-0.9132653061224488,1,0,1.0,0.8460787603301285,-0.3160662224073303,0.0,0.4081632653061224,0.5714285714285714,0.2857142857142857,0.4285714285714285,0.346938775510204,4.346938775510204,4.346938775510204,1.0,2.0,-1.0,4.0,0,0,0,1,-0.84,0.7982359165955736,0.16105533805239805,0.18580345683423838,0.7826213674264098,0.17012516267402636,0.2991760586422243,0.8070847899815095,0.15569893176201224,0.21271205491227152,0.8163223597820337,0.1499401647019257,0.204873074519405,0.7927054430317545,0.16432352361958436,0.17176090958622625,0.8258703278142977,0.14380852945020206,0.21479095569563436,0.8349227046837544,0.13782678188731876,0.23722190009538785,0.8200168122645393,0.1475892398680427,0.2234005811119426,0.8420969467607858,0.13296967901694812,0.22308043014602807,0.803246712512514,0.15804143135035265,0.23609009736366193,0.7721981065839609,0.17590819077210662,0.22790762475678744
2.0,0.0,2.0,0.0,6.0,0.0,6.0,0.0,,,,right,2.1809868002310395,137.19568700017408,nx8,131.8101607002318,133.8038274999708,137.19568700017408,,True,6.0,['r'],False,0.5,0.5,0.0,0.0,2.0,0.6309297535714574,0.0,succ_gain,1.0,6.0,133.8038274999708,,nx8,1,2022-05-05_14h42.09.553,threat_forest,2021.2.3,59.95171492593129,True,14.0,0.5357142857142857,0.5178571428571428,-0.326530612244898,-0.9132653061224488,1,0,1.0,0.7797774350375093,0.0,0.0,0.5,0.5,0.0,1.0,1.0,7.0,7.0,0.0,2.0,1.0,6.0,0,0,0,1,-0.84,0.7936601660816857,0.16376370685687672,0.227655886518078,0.7826213674264098,0.17012516267402636,0.2991760586422243,0.8070847899815095,0.15569893176201224,0.21271205491227152,0.7793103296197055,0.17198573976773152,0.18804269761311,0.8081312136840458,0.15505515515359697,0.244052382755773,0.812122331834495,0.15257964997019738,0.20500456292554864,0.8716372056981452,0.1118857873408745,0.28704356983716267,0.8457216144210963,0.13047656532207086,0.2611006716508812,0.8420969467607858,0.13296967901694812,0.22308043014602807,0.803246712512514,0.15804143135035265,0.23609009736366193,0.7968614584294822,0.16187327449912084,0.1980927055157894
2.0,0.0,2.0,0.0,7.0,0.0,7.0,0.0,,,,right,1.2723572999238968,144.3190704002045,nx8,131.8101607002318,133.8038274999708,144.3190704002045,,True,6.0,['r'],False,0.5,0.5,0.0,0.0,2.0,0.6309297535714574,0.0,succ_gain,1.0,6.0,141.39322260022163,,nx8,1,2022-05-05_14h42.09.553,threat_forest,2021.2.3,59.95171492593129,True,14.0,0.5357142857142857,0.5178571428571428,-0.326530612244898,-0.9132653061224488,1,0,1.0,0.2408713216405739,0.0,0.0,0.5,0.5,0.0,1.0,1.0,7.0,7.0,0.0,2.0,-1.0,6.0,0,0,0,1,-0.84,0.7982359165955736,0.16105533805239805,0.18580345683423838,0.7826213674264098,0.17012516267402636,0.2991760586422243,0.8070847899815095,0.15569893176201224,0.21271205491227152,0.7793103296197055,0.17198573976773152,0.18804269761311,0.8081312136840458,0.15505515515359697,0.244052382755773,0.812122331834495,0.15257964997019738,0.20500456292554864,0.8716372056981452,0.1118857873408745,0.28704356983716267,0.8457216144210963,0.13047656532207086,0.2611006716508812,0.8420969467607858,0.13296967901694812,0.22308043014602807,0.803246712512514,0.15804143135035265,0.23609009736366193,0.7968614584294822,0.16187327449912084,0.1980927055157894
3.0,0.0,3.0,0.0,0.0,0.0,0.0,0.0,150.55649399990216,154.04988350020722,,left,2.391488500405103,155.8241122001782,nx8,155.8241122001782,,150.55649399990216,154.04988350020722,True,4.0,['p'],True,0.1975308641975308,0.2222222222222222,0.1111111111111111,1.0,2.0,0.7461067557824965,-0.0032005207389234,unsucc_cost,0.0,2.0,,,nx8,1,2022-05-05_14h42.09.553,threat_forest,2021.2.3,59.95171492593129,True,12.0,0.3111111111111111,0.4234126984126984,-1.1204938271604938,-0.723512219702696,0,0,1.0,0.8719159755985761,-0.0032005207389234,0.1975308641975308,0.1975308641975308,0.2222222222222222,0.1111111111111111,-0.4444444444444444,-0.3209876543209877,3.679012345679012,3.679012345679012,1.0,2.0,-1.0,4.0,0,1,0,0,-0.0032005207389234,0.7982359165955736,0.16105533805239805,0.18580345683423838,0.7992466705711139,0.1604514301521033,0.18773785784194175,0.8070847899815095,0.15569893176201224,0.21271205491227152,0.8163223597820337,0.1499401647019257,0.204873074519405,0.8022386851936677,0.15865177717240297,0.21599942984095644,0.7508326915127649,0.1870829608684621,0.1665074345884068,0.7633006624235765,0.18067276116730585,0.15493291053376596,0.7488000067755562,0.1880985566284831,0.13415650033214221,0.7610130815505876,0.18187217125946628,0.17429456540145766,0.8006846849095761,0.15958872026082896,0.2168119780998785,0.7966219923506934,0.1620153936539052,0.19839461477125464
3.0,0.0,3.0,0.0,2.0,0.0,2.0,0.0,,,,right,1.7294617998413742,166.97598379990086,nx8,164.28808230021968,166.29364049993455,166.97598379990086,,True,1.0,['p'],False,0.32,0.4,0.2,1.0,2.0,0.9455672104350704,0.1056555783466974,figh_cost,1.0,0.0,166.29364049993455,,nx8,1,2022-05-05_14h42.09.553,threat_forest,2021.2.3,59.95171492593129,True,12.0,0.3111111111111111,0.4234126984126984,-1.1204938271604938,-0.723512219702696,0,0,1.0,0.5478102617509677,0.1056555783466974,1.0,0.32,0.4,0.2,0.0,0.0799999999999999,1.08,1.08,0.0,2.0,-1.0,1.0,1,1,0,0,0.625,0.7982359165955736,0.16105533805239805,0.18580345683423838,0.7992466705711139,0.1604514301521033,0.18773785784194175,0.736830155259625,0.19391147755970187,0.08825450422465098,0.7793103296197055,0.17198573976773152,0.18804269761311,0.7974272412031314,0.1615370361902944,0.19349497011381822,0.7914967804473088,0.16502962698885346,0.19111347970472722,0.8021814766912324,0.15868635514470622,0.1971594896922999,0.7923073475549793,0.16455641456537254,0.18602103412407017,0.7610130815505876,0.18187217125946628,0.17429456540145766,0.7900193821324482,0.165888757987513,0.13831798913697524,0.8046488482051064,0.15718907928730202,0.18814188719717484
4.0,0.0,4.0,0.0,0.0,0.0,0.0,0.0,173.11701419996098,176.6121049001813,,left,1.2736629997380078,177.2832391001284,nx8,177.2832391001284,,173.11701419996098,176.6121049001813,True,4.0,['r'],True,0.4081632653061224,0.5714285714285714,0.2857142857142857,2.0,2.0,0.9885754083994552,0.0102904310319958,unsucc_cost,0.0,2.0,,,nx8,1,2022-05-05_14h42.09.553,threat_forest,2021.2.3,59.95171492593129,True,64.0,0.5357142857142857,0.4234126984126984,-0.326530612244898,-0.723512219702696,1,0,1.0,0.2418970007592775,0.0102904310319958,0.4081632653061224,0.4081632653061224,0.5714285714285714,0.2857142857142857,0.4285714285714285,0.346938775510204,4.346938775510204,4.346938775510204,1.0,2.0,-1.0,4.0,0,1,0,1,0.0102904310319958,0.7982359165955736,0.16105533805239805,0.18580345683423838,0.7992466705711139,0.1604514301521033,0.18773785784194175,0.8070847899815095,0.15569893176201224,0.21271205491227152,0.8163223597820337,0.1499401647019257,0.204873074519405,0.7927054430317545,0.16432352361958436,0.17176090958622625,0.8258703278142977,0.14380852945020206,0.21479095569563436,0.8349227046837544,0.13782678188731876,0.23722190009538785,0.8200168122645393,0.1475892398680427,0.2234005811119426,0.8420969467607858,0.13296967901694812,0.22308043014602807,0.7979252106436688,0.1612405688629256,0.19623111945006766,0.797629974544924,0.16141639825238793,0.19712214551140295
4.0,0.0,4.0,0.0,1.0,0.0,1.0,0.0,,,,left,2.103648600168526,181.17172509990635,nx8,181.17172509990635,,173.11701419996098,176.6121049001813,True,2.0,['r'],True,0.4081632653061224,0.5714285714285714,0.2857142857142857,2.0,2.0,0.9885754083994552,-0.0037991231674081,succ_gain,0.0,4.0,180.5774798002094,,nx8,1,2022-05-05_14h42.09.553,threat_forest,2021.2.3,59.95171492593129,True,64.0,0.5357142857142857,0.4234126984126984,-0.326530612244898,-0.723512219702696,1,0,1.0,0.7436732657978562,-0.0037991231674081,0.4081632653061224,0.4081632653061224,0.5714285714285714,0.2857142857142857,0.4285714285714285,0.346938775510204,2.346938775510204,2.346938775510204,1.0,2.0,-1.0,2.0,0,1,0,1,-0.0037991231674081,0.7982359165955736,0.16105533805239805,0.18580345683423838,0.7992466705711139,0.1604514301521033,0.18773785784194175,0.8070847899815095,0.15569893176201224,0.21271205491227152,0.8163223597820337,0.1499401647019257,0.204873074519405,0.7927054430317545,0.16432352361958436,0.17176090958622625,0.8258703278142977,0.14380852945020206,0.21479095569563436,0.8349227046837544,0.13782678188731876,0.23722190009538785,0.8200168122645393,0.1475892398680427,0.2234005811119426,0.8420969467607858,0.13296967901694812,0.22308043014602807,0.7979252106436688,0.1612405688629256,0.19623111945006766,0.796577181005407,0.16204197570688605,0.19845108406166356
4.0,0.0,4.0,0.0,2.0,0.0,2.0,0.0,,,,left,2.953444099985063,186.1130881998688,nx8,183.2945587001741,185.29428850021213,186.1130881998688,,False,4.0,['r'],False,0.5,0.5,0.0,0.0,2.0,0.6309297535714574,0.0907913928858948,wait_cost,1.0,3.0,185.29428850021213,,nx8,1,2022-05-05_14h42.09.553,threat_forest,2021.2.3,59.95171492593129,False,64.0,0.5357142857142857,0.4234126984126984,-0.326530612244898,-0.723512219702696,1,1,0.0,1.0829719808838445,0.0907913928858948,0.5,0.5,0.5,0.0,1.0,1.0,5.0,5.0,0.0,2.0,1.0,4.0,0,1,1,1,0.0907913928858948,0.7936601660816857,0.16376370685687672,0.227655886518078,0.7992466705711139,0.1604514301521033,0.18773785784194175,0.8070847899815095,0.15569893176201224,0.21271205491227152,0.7793103296197055,0.17198573976773152,0.18804269761311,0.8081312136840458,0.15505515515359697,0.244052382755773,0.812122331834495,0.15257964997019738,0.20500456292554864,0.8716372056981452,0.1118857873408745,0.28704356983716267,0.8457216144210963,0.13047656532207086,0.2611006716508812,0.8420969467607858,0.13296967901694812,0.22308043014602807,0.796713168301498,0.16196129575648702,0.1872513749972904,0.8035670931116048,0.15784701997977024,0.18953957623427042
4.0,0.0,4.0,0.0,3.0,0.0,3.0,0.0,,,,left,1.606775499880314,194.73235790012404,nx8,194.73235790012404,,189.10046919994056,191.1107207001187,True,3.0,['r'],True,0.4081632653061224,0.5714285714285714,0.2857142857142857,2.0,2.0,0.9885754083994552,0.0196828699073915,succ_gain,0.0,5.0,191.1107207001187,,nx8,1,2022-05-05_14h42.09.553,threat_forest,2021.2.3,59.95171492593129,True,64.0,0.5357142857142857,0.4234126984126984,-0.326530612244898,-0.723512219702696,1,0,1.0,0.474229375614968,0.0196828699073915,0.4081632653061224,0.4081632653061224,0.5714285714285714,0.2857142857142857,0.4285714285714285,0.346938775510204,3.346938775510204,3.346938775510204,1.0,2.0,-1.0,3.0,0,1,0,1,0.0196828699073915,0.7982359165955736,0.16105533805239805,0.18580345683423838,0.7992466705711139,0.1604514301521033,0.18773785784194175,0.8070847899815095,0.15569893176201224,0.21271205491227152,0.8163223597820337,0.1499401647019257,0.204873074519405,0.7927054430317545,0.16432352361958436,0.17176090958622625,0.8258703278142977,0.14380852945020206,0.21479095569563436,0.8349227046837544,0.13782678188731876,0.23722190009538785,0.8200168122645393,0.1475892398680427,0.2234005811119426,0.8420969467607858,0.13296967901694812,0.22308043014602807,0.7979252106436688,0.1612405688629256,0.19623111945006766,0.7983295304028262,0.1609994912896292,0.1962364938136022
4.0,0.0,4.0,0.0,4.0,0.0,4.0,0.0,,,,left,1.252206700388342,201.72698780009523,nx8,201.72698780009523,,189.10046919994056,191.1107207001187,True,5.0,['r'],True,0.4081632653061224,0.5714285714285714,0.2857142857142857,2.0,2.0,0.9885754083994552,-0.2605074203775637,figh_cost,0.0,2.0,198.3774454998784,,nx8,1,2022-05-05_14h42.09.553,threat_forest,2021.2.3,59.95171492593129,True,64.0,0.5357142857142857,0.4234126984126984,-0.326530612244898,-0.723512219702696,1,0,1.0,0.2249073552078587,-0.2605074203775637,0.0,0.4081632653061224,0.5714285714285714,0.2857142857142857,0.4285714285714285,0.346938775510204,5.346938775510204,5.346938775510204,1.0,2.0,1.0,5.0,0,0,0,1,-0.84,0.7936601660816857,0.16376370685687672,0.227655886518078,0.7826213674264098,0.17012516267402636,0.2991760586422243,0.8070847899815095,0.15569893176201224,0.21271205491227152,0.8163223597820337,0.1499401647019257,0.204873074519405,0.7927054430317545,0.16432352361958436,0.17176090958622625,0.8258703278142977,0.14380852945020206,0.21479095569563436,0.8349227046837544,0.13782678188731876,0.23722190009538785,0.8200168122645393,0.1475892398680427,0.2234005811119426,0.8420969467607858,0.13296967901694812,0.22308043014602807,0.803246712512514,0.15804143135035265,0.23609009736366193,0.7766819347261045,0.17344710699621965,0.22267944864257466
4.0,0.0,4.0,0.0,5.0,0.0,5.0,0.0,,,,right,1.6244641998782754,208.411840800196,nx8,203.0115412999876,205.01100620022044,208.411840800196,,True,2.0,['r'],False,0.5,0.5,0.0,0.0,2.0,0.6309297535714574,0.0459183673469387,succ_gain,1.0,4.0,205.01100620022044,,nx8,1,2022-05-05_14h42.09.553,threat_forest,2021.2.3,59.95171492593129,True,64.0,0.5357142857142857,0.4234126984126984,-0.326530612244898,-0.723512219702696,1,1,1.0,0.48517803825924,0.0459183673469387,0.5,0.5,0.5,0.0,1.0,1.0,3.0,3.0,0.0,2.0,-1.0,2.0,0,1,1,1,0.0459183673469387,0.7982359165955736,0.16105533805239805,0.18580345683423838,0.7992466705711139,0.1604514301521033,0.18773785784194175,0.8070847899815095,0.15569893176201224,0.21271205491227152,0.7793103296197055,0.17198573976773152,0.18804269761311,0.8081312136840458,0.15505515515359697,0.244052382755773,0.812122331834495,0.15257964997019738,0.20500456292554864,0.8716372056981452,0.1118857873408745,0.28704356983716267,0.8457216144210963,0.13047656532207086,0.2611006716508812,0.8420969467607858,0.13296967901694812,0.22308043014602807,0.796713168301498,0.16196129575648702,0.1872513749972904,0.8002739880162977,0.15983553212078833,0.19376385001980867
4.0,0.0,4.0,0.0,6.0,0.0,6.0,0.0,,,,left,1.349190100096166,212.78206529980525,nx8,212.78206529980525,,210.06167790014297,212.06115029985085,True,4.0,['r'],True,0.4081632653061224,0.5714285714285714,0.2857142857142857,2.0,2.0,0.9885754083994552,-0.1559766763848396,succ_gain,0.0,6.0,212.06115029985085,,nx8,1,2022-05-05_14h42.09.553,threat_forest,2021.2.3,59.95171492593129,True,64.0,0.5357142857142857,0.4234126984126984,-0.326530612244898,-0.723512219702696,1,0,1.0,0.2995044865681249,-0.1559766763848396,0.0,0.4081632653061224,0.5714285714285714,0.2857142857142857,0.4285714285714285,0.346938775510204,4.346938775510204,4.346938775510204,1.0,2.0,1.0,4.0,0,0,0,1,-0.84,0.7936601660816857,0.16376370685687672,0.227655886518078,0.7826213674264098,0.17012516267402636,0.2991760586422243,0.8070847899815095,0.15569893176201224,0.21271205491227152,0.8163223597820337,0.1499401647019257,0.204873074519405,0.7927054430317545,0.16432352361958436,0.17176090958622625,0.8258703278142977,0.14380852945020206,0.21479095569563436,0.8349227046837544,0.13782678188731876,0.23722190009538785,0.8200168122645393,0.1475892398680427,0.2234005811119426,0.8420969467607858,0.13296967901694812,0.22308043014602807,0.803246712512514,0.15804143135035265,0.23609009736366193,0.7849465122085227,0.16880548518019817,0.21281907064671118
4.0,0.0,4.0,0.0,7.0,0.0,7.0,0.0,,,,left,1.1069367001764476,218.92511649988592,nx8,218.92511649988592,,210.06167790014297,212.06115029985085,True,6.0,['r'],True,0.4081632653061224,0.5714285714285714,0.2857142857142857,2.0,2.0,0.9885754083994552,0.0,unsucc_cost,0.0,4.0,216.1779860998504,,nx8,1,2022-05-05_14h42.09.553,threat_forest,2021.2.3,59.95171492593129,True,64.0,0.5357142857142857,0.4234126984126984,-0.326530612244898,-0.723512219702696,1,0,1.0,0.1015964706791574,0.0,0.0,0.4081632653061224,0.5714285714285714,0.2857142857142857,0.4285714285714285,0.346938775510204,6.346938775510204,6.346938775510204,1.0,2.0,1.0,6.0,0,0,0,1,-0.84,0.7936601660816857,0.16376370685687672,0.227655886518078,0.7826213674264098,0.17012516267402636,0.2991760586422243,0.8070847899815095,0.15569893176201224,0.21271205491227152,0.8163223597820337,0.1499401647019257,0.204873074519405,0.7927054430317545,0.16432352361958436,0.17176090958622625,0.8258703278142977,0.14380852945020206,0.21479095569563436,0.8349227046837544,0.13782678188731876,0.23722190009538785,0.8200168122645393,0.1475892398680427,0.2234005811119426,0.8420969467607858,0.13296967901694812,0.22308043014602807,0.803246712512514,0.15804143135035265,0.23609009736366193,0.7968614584294822,0.16187327449912084,0.1980927055157894
5.0,0.0,5.0,0.0,0.0,0.0,0.0,0.0,225.76815050002187,229.258709799964,,left,1.6093145003542304,231.61062100017443,nx8,231.61062100017443,,225.76815050002187,229.258709799964,True,4.0,['r'],True,0.6,0.6,0.0,0.0,1.0,0.6126016192893442,0.106823090374617,succ_gain,0.0,5.0,,,nx8,1,2022-05-05_14h42.09.553,threat_forest,2021.2.3,59.95171492593129,True,38.0,0.6125,0.5741071428571429,-0.5218750000000001,-0.424202806122449,1,1,1.0,0.4758083121504611,0.106823090374617,0.6,0.6,0.6,0.0,0.7999999999999999,0.7999999999999999,4.8,4.8,1.0,1.0,-1.0,4.0,0,1,1,1,0.106823090374617,0.7982359165955736,0.16105533805239805,0.18580345683423838,0.7992466705711139,0.1604514301521033,0.18773785784194175,0.8070847899815095,0.15569893176201224,0.21271205491227152,0.8163223597820337,0.1499401647019257,0.204873074519405,0.8081312136840458,0.15505515515359697,0.244052382755773,0.8311428428100032,0.14034441765570954,0.21865604437422526,0.859652545275282,0.12065004667701112,0.27021113754955334,0.8702130206208473,0.11294231936278813,0.2997295054092244,0.8420969467607858,0.13296967901694812,0.22308043014602807,0.7953872399621409,0.16274637846754855,0.17746980283367986,0.8047336236274988,0.15713741863085395,0.18803214245271205
5.0,0.0,5.0,0.0,1.0,0.0,1.0,0.0,,,,right,2.16885680006817,237.7206252999604,nx8,237.7206252999604,,225.76815050002187,229.258709799964,False,5.0,['r'],True,0.6,0.6,0.0,0.0,1.0,0.6126016192893442,0.1084279518578053,wait_cost,0.0,4.0,235.24471529992297,,nx8,1,2022-05-05_14h42.09.553,threat_forest,2021.2.3,59.95171492593129,False,38.0,0.6125,0.5741071428571429,-0.5218750000000001,-0.424202806122449,1,1,0.0,0.7742002084887427,0.1084279518578053,0.6,0.6,0.6,0.0,0.7999999999999999,0.7999999999999999,5.8,5.8,1.0,1.0,1.0,5.0,0,1,1,1,0.1084279518578053,0.7936601660816857,0.16376370685687672,0.227655886518078,0.7992466705711139,0.1604514301521033,0.18773785784194175,0.8070847899815095,0.15569893176201224,0.21271205491227152,0.8163223597820337,0.1499401647019257,0.204873074519405,0.8081312136840458,0.15505515515359697,0.244052382755773,0.8311428428100032,0.14034441765570954,0.21865604437422526,0.859652545275282,0.12065004667701112,0.27021113754955334,0.8702130206208473,0.11294231936278813,0.2997295054092244,0.8420969467607858,0.13296967901694812,0.22308043014602807,0.7953872399621409,0.16274637846754855,0.17746980283367986,0.8048501104051152,0.157066410185989,0.18788129644779833
5.0,0.0,5.0,0.0,2.0,0.0,2.0,0.0,,,,right,1.7917110999114811,244.7508934000507,nx8,239.91199050005525,241.91138679999852,244.7508934000507,,True,4.0,['r'],False,0.46875,0.625,0.25,2.0,1.0,0.9634951148421658,0.014409303832054,unsucc_cost,1.0,2.0,241.91138679999852,,nx8,1,2022-05-05_14h42.09.553,threat_forest,2021.2.3,59.95171492593129,True,38.0,0.6125,0.5741071428571429,-0.5218750000000001,-0.424202806122449,0,0,1.0,0.5831710849886972,0.014409303832054,0.46875,0.46875,0.625,0.25,0.125,0.15625,4.15625,4.15625,0.0,1.0,-1.0,4.0,0,1,0,0,0.014409303832054,0.7982359165955736,0.16105533805239805,0.18580345683423838,0.7992466705711139,0.1604514301521033,0.18773785784194175,0.8070847899815095,0.15569893176201224,0.21271205491227152,0.7793103296197055,0.17198573976773152,0.18804269761311,0.7946826732353,0.16316212209489744,0.18081961581581618,0.8356512532398618,0.13733823619851027,0.22201019649324283,0.8122086545131382,0.1525257560470959,0.20899139278695938,0.8373294122829412,0.13620886760884546,0.24847211878339054,0.7610130815505876,0.18187217125946628,0.17429456540145766,0.7971262061387454,0.16171601762559576,0.1903073660459591,0.7979369739926627,0.16123355952809543,0.1967337340885717
5.0,0.0,5.0,0.0,3.0,0.0,3.0,0.0,,,,left,2.266473399940878,250.87519699987024,nx8,250.87519699987024,,246.5618942999281,248.5614916002378,True,2.0,['r'],True,0.6,0.6,0.0,0.0,1.0,0.6126016192893442,0.0834363281249999,succ_gain,0.0,3.0,248.5614916002378,,nx8,1,2022-05-05_14h42.09.553,threat_forest,2021.2.3,59.95171492593129,True,38.0,0.6125,0.5741071428571429,-0.5218750000000001,-0.424202806122449,1,1,1.0,0.8182250551467419,0.0834363281249999,0.6,0.6,0.6,0.0,0.7999999999999999,0.7999999999999999,2.8,2.8,1.0,1.0,-1.0,2.0,0,1,1,1,0.0834363281249999,0.7982359165955736,0.16105533805239805,0.18580345683423838,0.7992466705711139,0.1604514301521033,0.18773785784194175,0.8070847899815095,0.15569893176201224,0.21271205491227152,0.8163223597820337,0.1499401647019257,0.204873074519405,0.8081312136840458,0.15505515515359697,0.244052382755773,0.8311428428100032,0.14034441765570954,0.21865604437422526,0.859652545275282,0.12065004667701112,0.27021113754955334,0.8702130206208473,0.11294231936278813,0.2997295054092244,0.8420969467607858,0.13296967901694812,0.22308043014602807,0.7953872399621409,0.16274637846754855,0.17746980283367986,0.8030301499599345,0.15817272821525954,0.19023149092391722
5.0,0.0,5.0,0.0,4.0,0.0,4.0,0.0,,,,left,2.1045281002298,257.4817384001799,nx8,253.16196249984205,255.16177790006623,257.4817384001799,,False,3.0,['r'],False,0.46875,0.625,0.25,2.0,1.0,0.9634951148421658,-0.0131932067871093,wait_cost,1.0,2.0,255.16177790006623,,nx8,1,2022-05-05_14h42.09.553,threat_forest,2021.2.3,59.95171492593129,False,38.0,0.6125,0.5741071428571429,-0.5218750000000001,-0.424202806122449,0,0,0.0,0.7440912615887632,-0.0131932067871093,0.46875,0.46875,0.625,0.25,0.125,0.15625,3.15625,3.15625,0.0,1.0,1.0,3.0,0,1,0,0,-0.0131932067871093,0.7936601660816857,0.16376370685687672,0.227655886518078,0.7992466705711139,0.1604514301521033,0.18773785784194175,0.8070847899815095,0.15569893176201224,0.21271205491227152,0.7793103296197055,0.17198573976773152,0.18804269761311,0.7946826732353,0.16316212209489744,0.18081961581581618,0.8356512532398618,0.13733823619851027,0.22201019649324283,0.8122086545131382,0.1525257560470959,0.20899139278695938,0.8373294122829412,0.13620886760884546,0.24847211878339054,0.7610130815505876,0.18187217125946628,0.17429456540145766,0.7971262061387454,0.16171601762559576,0.1903073660459591,0.7958729773764552,0.16245918125839162,0.19933737006316804
5.0,0.0,5.0,0.0,5.0,0.0,5.0,0.0,,,,right,1.673461300320923,264.008169699926,nx8,253.16196249984205,255.16177790006623,264.008169699926,,True,2.0,['r'],False,0.46875,0.625,0.25,2.0,1.0,0.9634951148421658,-0.0656249999999999,succ_gain,1.0,3.0,261.6284610000439,,nx8,1,2022-05-05_14h42.09.553,threat_forest,2021.2.3,59.95171492593129,True,38.0,0.6125,0.5741071428571429,-0.5218750000000001,-0.424202806122449,0,0,1.0,0.5148941164068906,-0.0656249999999999,0.46875,0.46875,0.625,0.25,0.125,0.15625,2.15625,2.15625,0.0,1.0,-1.0,2.0,0,1,0,0,-0.0656249999999999,0.7982359165955736,0.16105533805239805,0.18580345683423838,0.7992466705711139,0.1604514301521033,0.18773785784194175,0.8070847899815095,0.15569893176201224,0.21271205491227152,0.7793103296197055,0.17198573976773152,0.18804269761311,0.7946826732353,0.16316212209489744,0.18081961581581618,0.8356512532398618,0.13733823619851027,0.22201019649324283,0.8122086545131382,0.1525257560470959,0.20899139278695938,0.8373294122829412,0.13620886760884546,0.24847211878339054,0.7610130815505876,0.18187217125946628,0.17429456540145766,0.7971262061387454,0.16171601762559576,0.1903073660459591,0.7919092924562602,0.16478896497768558,0.20428662035356282
5.0,0.0,5.0,0.0,6.0,0.0,6.0,0.0,,,,left,1.667735000140965,269.74510189983994,nx8,269.74510189983994,,265.7213237998076,267.7284917999059,True,3.0,['r'],True,0.6,0.6,0.0,0.0,1.0,0.6126016192893442,-0.18625,succ_gain,0.0,4.0,267.7284917999059,,nx8,1,2022-05-05_14h42.09.553,threat_forest,2021.2.3,59.95171492593129,True,38.0,0.6125,0.5741071428571429,-0.5218750000000001,-0.424202806122449,1,1,1.0,0.5114664184977649,-0.18625,0.0,0.6,0.6,0.0,0.7999999999999999,0.7999999999999999,3.8,3.8,1.0,1.0,1.0,3.0,0,0,1,1,-0.84,0.7936601660816857,0.16376370685687672,0.227655886518078,0.7826213674264098,0.17012516267402636,0.2991760586422243,0.8070847899815095,0.15569893176201224,0.21271205491227152,0.8163223597820337,0.1499401647019257,0.204873074519405,0.8081312136840458,0.15505515515359697,0.244052382755773,0.8311428428100032,0.14034441765570954,0.21865604437422526,0.859652545275282,0.12065004667701112,0.27021113754955334,0.8702130206208473,0.11294231936278813,0.2997295054092244,0.8420969467607858,0.13296967901694812,0.22308043014602807,0.803246712512514,0.15804143135035265,0.23609009736366193,0.7825760584764737,0.17015077117590055,0.21567691408074108
5.0,0.0,5.0,0.0,7.0,0.0,7.0,0.0,,,,left,1.077145100105554,274.28618399985135,nx8,274.28618399985135,,265.7213237998076,267.7284917999059,True,4.0,['r'],True,0.6,0.6,0.0,0.0,1.0,0.6126016192893442,0.0,succ_gain,0.0,5.0,273.44541609985754,,nx8,1,2022-05-05_14h42.09.553,threat_forest,2021.2.3,59.95171492593129,True,38.0,0.6125,0.5741071428571429,-0.5218750000000001,-0.424202806122449,1,1,1.0,0.0743141152884945,0.0,0.0,0.6,0.6,0.0,0.7999999999999999,0.7999999999999999,4.8,4.8,1.0,1.0,1.0,4.0,0,0,1,1,-0.84,0.7936601660816857,0.16376370685687672,0.227655886518078,0.7826213674264098,0.17012516267402636,0.2991760586422243,0.8070847899815095,0.15569893176201224,0.21271205491227152,0.8163223597820337,0.1499401647019257,0.204873074519405,0.8081312136840458,0.15505515515359697,0.244052382755773,0.8311428428100032,0.14034441765570954,0.21865604437422526,0.859652545275282,0.12065004667701112,0.27021113754955334,0.8702130206208473,0.11294231936278813,0.2997295054092244,0.8420969467607858,0.13296967901694812,0.22308043014602807,0.803246712512514,0.15804143135035265,0.23609009736366193,0.7968614584294822,0.16187327449912084,0.1980927055157894
6.0,0.0,6.0,0.0,0.0,0.0,0.0,0.0,280.3096556002274,283.80666670016944,,right,1.0055575999431312,286.7286645001732,nx8,280.3096556002274,283.80666670016944,286.7286645001732,,True,4.0,['p'],False,0.375,0.5,0.25,1.0,1.0,0.9850568223215076,0.0292062806120119,unsucc_cost,1.0,2.0,,,nx8,1,2022-05-05_14h42.09.553,threat_forest,2021.2.3,59.95171492593129,True,9.0,0.4,0.5062500000000001,-1.3025,-0.9121875,0,0,1.0,0.0055422134661653,0.0292062806120119,0.375,0.375,0.5,0.25,-0.25,-0.125,3.875,3.875,0.0,1.0,1.0,4.0,0,1,0,0,0.0292062806120119,0.7936601660816857,0.16376370685687672,0.227655886518078,0.7992466705711139,0.1604514301521033,0.18773785784194175,0.8070847899815095,0.15569893176201224,0.21271205491227152,0.7793103296197055,0.17198573976773152,0.18804269761311,0.7946826732353,0.16316212209489744,0.18081961581581618,0.812122331834495,0.15257964997019738,0.20500456292554864,0.7809314749704197,0.17107750637094452,0.17336133334140352,0.8099471198476849,0.15393278289812487,0.20942543386483714,0.7610130815505876,0.18187217125946628,0.17429456540145766,0.7983615642875576,0.1609803769558817,0.1994729255416785,0.799036994198683,0.16057687610061672,0.19533871590845864
6.0,0.0,6.0,0.0,1.0,0.0,1.0,0.0,,,,left,1.3399028000421822,293.28673260007054,nx8,293.28673260007054,,287.762469700072,289.76224979991093,True,2.0,['p'],True,0.24,0.3,0.2,2.0,1.0,0.9003120349047065,-0.0024622735211894,unsucc_cost,0.0,0.0,289.76224979991093,,nx8,1,2022-05-05_14h42.09.553,threat_forest,2021.2.3,59.95171492593129,True,9.0,0.4,0.5062500000000001,-1.3025,-0.9121875,0,0,1.0,0.2925970740499105,-0.0024622735211894,0.24,0.24,0.3,0.2,-0.7,-0.48,1.52,1.52,1.0,1.0,-1.0,2.0,0,1,0,0,-0.0024622735211894,0.7982359165955736,0.16105533805239805,0.18580345683423838,0.7992466705711139,0.1604514301521033,0.18773785784194175,0.8070847899815095,0.15569893176201224,0.21271205491227152,0.8163223597820337,0.1499401647019257,0.204873074519405,0.7974272412031314,0.1615370361902944,0.19349497011381822,0.7692502810337698,0.17750428616323602,0.1771948573263032,0.7386792606008331,0.19303221055903963,0.1311956399876163,0.7645448878392004,0.1800160023181449,0.15196277768914157,0.7610130815505876,0.18187217125946628,0.17429456540145766,0.8001305877807171,0.15992163027840134,0.21266415607426037,0.7966772473731643,0.16198261089108237,0.19832497307143626
7.0,0.0,7.0,0.0,0.0,0.0,0.0,0.0,298.23630699981004,301.745832500048,,right,2.705805900041014,303.2185948998668,nx8,298.23630699981004,301.745832500048,303.2185948998668,,True,5.0,['p'],False,0.2448979591836734,0.2857142857142857,0.1428571428571428,1.0,2.0,0.8400769154957735,-0.0142294939424326,unsucc_cost,1.0,3.0,,,nx8,1,2022-05-05_14h42.09.553,threat_forest,2021.2.3,59.95171492593129,True,42.0,0.3928571428571428,0.3964285714285714,-0.9566326530612244,-1.1295663265306122,0,0,1.0,0.995399797701049,-0.0142294939424326,0.2448979591836734,0.2448979591836734,0.2857142857142857,0.1428571428571428,-0.2857142857142856,-0.1632653061224489,4.836734693877551,4.836734693877551,0.0,2.0,-1.0,5.0,0,1,0,0,-0.0142294939424326,0.7982359165955736,0.16105533805239805,0.18580345683423838,0.7992466705711139,0.1604514301521033,0.18773785784194175,0.8070847899815095,0.15569893176201224,0.21271205491227152,0.7793103296197055,0.17198573976773152,0.18804269761311,0.8005302658867176,0.15968155928605887,0.2079673294434563,0.7659401549176291,0.17927583400238742,0.17521824978506495,0.7777653583237056,0.17284640571530344,0.16996402647318354,0.7663161225548647,0.17907572286734227,0.15403426104096557,0.7610130815505876,0.18187217125946628,0.17429456540145766,0.8000666095736589,0.1599600298189694,0.21218572511173384,0.7957951838436698,0.16250520921488965,0.19943514904375648
7.0,0.0,7.0,0.0,1.0,0.0,1.0,0.0,,,,left,1.7805074998177588,308.5284413998015,nx8,308.5284413998015,,305.94611309980974,307.94580820016563,True,3.0,['p'],True,0.375,0.5,0.25,1.0,2.0,0.9850568223215076,0.078614571109881,unsucc_cost,0.0,1.0,307.94580820016563,,nx8,1,2022-05-05_14h42.09.553,threat_forest,2021.2.3,59.95171492593129,True,42.0,0.3928571428571428,0.3964285714285714,-0.9566326530612244,-1.1295663265306122,1,0,1.0,0.5768984359243859,0.078614571109881,0.375,0.375,0.5,0.25,0.25,0.25,3.25,3.25,1.0,2.0,-1.0,3.0,0,1,0,1,0.078614571109881,0.7982359165955736,0.16105533805239805,0.18580345683423838,0.7992466705711139,0.1604514301521033,0.18773785784194175,0.8070847899815095,0.15569893176201224,0.21271205491227152,0.8163223597820337,0.1499401647019257,0.204873074519405,0.7946826732353,0.16316212209489744,0.18081961581581618,0.812122331834495,0.15257964997019738,0.20500456292554864,0.8218404496026627,0.14641872499955594,0.22072041433270445,0.8099471198476849,0.15393278289812487,0.20942543386483714,0.8420969467607858,0.13296967901694812,0.22308043014602807,0.7983615642875576,0.1609803769558817,0.1994729255416785,0.8026775456420334,0.15838630336411472,0.19068519693050434
7.0,0.0,7.0,0.0,2.0,0.0,2.0,0.0,,,,right,1.494078999850899,313.84779040003195,nx8,310.3293074001558,312.32945109996945,313.84779040003195,,True,1.0,['p'],False,0.2448979591836734,0.2857142857142857,0.1428571428571428,1.0,2.0,0.8400769154957735,0.0944428399033169,succ_gain,1.0,3.0,312.32945109996945,,nx8,1,2022-05-05_14h42.09.553,threat_forest,2021.2.3,59.95171492593129,True,42.0,0.3928571428571428,0.3964285714285714,-0.9566326530612244,-1.1295663265306122,0,0,1.0,0.4015099633922135,0.0944428399033169,1.0,0.2448979591836734,0.2857142857142857,0.1428571428571428,-0.2857142857142856,-0.1632653061224489,0.8367346938775511,1.0,0.0,2.0,-1.0,1.0,1,1,0,0,0.625,0.7982359165955736,0.16105533805239805,0.18580345683423838,0.7992466705711139,0.1604514301521033,0.18773785784194175,0.736830155259625,0.19391147755970187,0.08825450422465098,0.7793103296197055,0.17198573976773152,0.18804269761311,0.8005302658867176,0.15968155928605887,0.2079673294434563,0.7659401549176291,0.17927583400238742,0.17521824978506495,0.7777653583237056,0.17284640571530344,0.16996402647318354,0.7663161225548647,0.17907572286734227,0.15403426104096557,0.7610130815505876,0.18187217125946628,0.17429456540145766,0.7900193821324482,0.165888757987513,0.13831798913697524,0.8038332492777662,0.15768535663331476,0.18919614849127225
7.0,0.0,7.0,0.0,3.0,0.0,3.0,0.0,,,,left,2.5726320003159344,318.78967660013586,nx8,310.3293074001558,312.32945109996945,318.78967660013586,,False,3.0,['p'],False,0.2448979591836734,0.2857142857142857,0.1428571428571428,1.0,2.0,0.8400769154957735,-0.0097255873504729,wait_cost,1.0,2.0,317.36255150008947,,nx8,1,2022-05-05_14h42.09.553,threat_forest,2021.2.3,59.95171492593129,False,42.0,0.3928571428571428,0.3964285714285714,-0.9566326530612244,-1.1295663265306122,0,0,0.0,0.9449294994858132,-0.0097255873504729,0.2448979591836734,0.2448979591836734,0.2857142857142857,0.1428571428571428,-0.2857142857142856,-0.1632653061224489,2.836734693877551,2.836734693877551,0.0,2.0,1.0,3.0,0,1,0,0,-0.0097255873504729,0.7936601660816857,0.16376370685687672,0.227655886518078,0.7992466705711139,0.1604514301521033,0.18773785784194175,0.8070847899815095,0.15569893176201224,0.21271205491227152,0.7793103296197055,0.17198573976773152,0.18804269761311,0.8005302658867176,0.15968155928605887,0.2079673294434563,0.7659401549176291,0.17927583400238742,0.17521824978506495,0.7777653583237056,0.17284640571530344,0.16996402647318354,0.7663161225548647,0.17907572286734227,0.15403426104096557,0.7610130815505876,0.18187217125946628,0.17429456540145766,0.8000666095736589,0.1599600298189694,0.21218572511173384,0.7961331295045382,0.16230516960984842,0.19901019712004708
7.0,0.0,7.0,0.0,4.0,0.0,4.0,0.0,,,,right,1.458508100360632,326.00899480003864,nx8,310.3293074001558,312.32945109996945,326.00899480003864,,True,2.0,['p'],False,0.2448979591836734,0.2857142857142857,0.1428571428571428,1.0,2.0,0.8400769154957735,-0.0650510204081632,unsucc_cost,1.0,0.0,323.3793410998769,,nx8,1,2022-05-05_14h42.09.553,threat_forest,2021.2.3,59.95171492593129,True,42.0,0.3928571428571428,0.3964285714285714,-0.9566326530612244,-1.1295663265306122,0,0,1.0,0.3774140642084898,-0.0650510204081632,0.2448979591836734,0.2448979591836734,0.2857142857142857,0.1428571428571428,-0.2857142857142856,-0.1632653061224489,1.836734693877551,1.836734693877551,0.0,2.0,-1.0,2.0,0,1,0,0,-0.0650510204081632,0.7982359165955736,0.16105533805239805,0.18580345683423838,0.7992466705711139,0.1604514301521033,0.18773785784194175,0.8070847899815095,0.15569893176201224,0.21271205491227152,0.7793103296197055,0.17198573976773152,0.18804269761311,0.8005302658867176,0.15968155928605887,0.2079673294434563,0.7659401549176291,0.17927583400238742,0.17521824978506495,0.7777653583237056,0.17284640571530344,0.16996402647318354,0.7663161225548647,0.17907572286734227,0.15403426104096557,0.7610130815505876,0.18187217125946628,0.17429456540145766,0.8000666095736589,0.1599600298189694,0.21218572511173384,0.7919529891480072,0.16476345212754365,0.2042324224123857
8.0,0.0,8.0,0.0,0.0,0.0,0.0,0.0,332.4381264001131,335.9432438998483,,left,1.2538804998621345,336.4837112999521,nx8,336.4837112999521,,332.4381264001131,335.9432438998483,True,4.0,['r'],True,0.625,0.625,0.0,0.0,2.0,0.6021808102656677,0.0846937196284889,unsucc_cost,0.0,2.0,,,nx8,1,2022-05-05_14h42.09.553,threat_forest,2021.2.3,59.95171492593129,True,60.0,0.6458333333333333,0.519345238095238,0.1759259259259258,-0.3903533635676492,1,1,1.0,0.2262431425040941,0.0846937196284889,0.625,0.625,0.625,0.0,1.5,1.5,5.5,5.5,1.0,2.0,-1.0,4.0,0,1,1,1,0.0846937196284889,0.7982359165955736,0.16105533805239805,0.18580345683423838,0.7992466705711139,0.1604514301521033,0.18773785784194175,0.8070847899815095,0.15569893176201224,0.21271205491227152,0.8163223597820337,0.1499401647019257,0.204873074519405,0.8081312136840458,0.15505515515359697,0.244052382755773,0.8356512532398618,0.13733823619851027,0.22201019649324283,0.8978239461866787,0.0917361078404585,0.32574257483001245,0.8757947738003069,0.10877828798437619,0.30890307787163435,0.8420969467607858,0.13296967901694812,0.22308043014602807,0.795054755961951,0.16294269098423353,0.17502388850959827,0.803122021980721,0.1581170397903193,0.1901131898339814
8.0,0.0,8.0,0.0,1.0,0.0,1.0,0.0,,,,left,1.3751663998700678,342.3729801001027,nx8,342.3729801001027,,332.4381264001131,335.9432438998483,True,2.0,['r'],True,0.625,0.625,0.0,0.0,2.0,0.6021808102656677,0.0760437023991711,succ_gain,0.0,4.0,339.7630366999656,,nx8,1,2022-05-05_14h42.09.553,threat_forest,2021.2.3,59.95171492593129,True,60.0,0.6458333333333333,0.519345238095238,0.1759259259259258,-0.3903533635676492,1,1,1.0,0.3185747418837586,0.0760437023991711,0.625,0.625,0.625,0.0,1.5,1.5,3.5,3.5,1.0,2.0,-1.0,2.0,0,1,1,1,0.0760437023991711,0.7982359165955736,0.16105533805239805,0.18580345683423838,0.7992466705711139,0.1604514301521033,0.18773785784194175,0.8070847899815095,0.15569893176201224,0.21271205491227152,0.8163223597820337,0.1499401647019257,0.204873074519405,0.8081312136840458,0.15505515515359697,0.244052382755773,0.8356512532398618,0.13733823619851027,0.22201019649324283,0.8978239461866787,0.0917361078404585,0.32574257483001245,0.8757947738003069,0.10877828798437619,0.30890307787163435,0.8420969467607858,0.13296967901694812,0.22308043014602807,0.795054755961951,0.16294269098423353,0.17502388850959827,0.8024893492750801,0.15850019357513864,0.190927138341338
8.0,0.0,8.0,0.0,2.0,0.0,2.0,0.0,,,,left,1.4126125001348555,349.52286999998614,nx8,343.7720635998994,345.7673932998441,349.52286999998614,,False,4.0,['r'],False,0.5185185185185185,0.6666666666666666,0.2222222222222222,2.0,2.0,0.9327883776363328,0.0285544796599727,wait_cost,1.0,3.0,345.7673932998441,,nx8,1,2022-05-05_14h42.09.553,threat_forest,2021.2.3,59.95171492593129,False,60.0,0.6458333333333333,0.519345238095238,0.1759259259259258,-0.3903533635676492,1,0,0.0,0.3454408269800477,0.0285544796599727,0.5185185185185185,0.5185185185185185,0.6666666666666666,0.2222222222222222,1.0,0.8518518518518517,4.851851851851852,4.851851851851852,0.0,2.0,1.0,4.0,0,1,0,1,0.0285544796599727,0.7936601660816857,0.16376370685687672,0.227655886518078,0.7992466705711139,0.1604514301521033,0.18773785784194175,0.8070847899815095,0.15569893176201224,0.21271205491227152,0.7793103296197055,0.17198573976773152,0.18804269761311,0.7962108248661844,0.16225914723209464,0.1878626442956004,0.8429496722131119,0.13238552232891906,0.22753619549133852,0.8716372056981452,0.1118857873408745,0.28704356983716267,0.8505256912816673,0.12713173975150924,0.26846949214170346,0.8420969467607858,0.13296967901694812,0.22308043014602807,0.7964681097343909,0.16210665991051723,0.18544024103316836,0.7989886332619379,0.16060579718015836,0.19540015408408612
8.0,0.0,8.0,0.0,3.0,0.0,3.0,0.0,,,,left,2.5242949002422392,353.6337846000679,nx8,353.6337846000679,,350.963753500022,352.9631218002178,True,3.0,['r'],True,0.625,0.625,0.0,0.0,2.0,0.6021808102656677,0.188088271552843,unsucc_cost,0.0,1.0,352.9631218002178,,nx8,1,2022-05-05_14h42.09.553,threat_forest,2021.2.3,59.95171492593129,True,60.0,0.6458333333333333,0.519345238095238,0.1759259259259258,-0.3903533635676492,1,1,1.0,0.9259617763016836,0.188088271552843,0.625,0.625,0.625,0.0,1.5,1.5,4.5,4.5,1.0,2.0,-1.0,3.0,0,1,1,1,0.188088271552843,0.7982359165955736,0.16105533805239805,0.18580345683423838,0.7992466705711139,0.1604514301521033,0.18773785784194175,0.8070847899815095,0.15569893176201224,0.21271205491227152,0.8163223597820337,0.1499401647019257,0.204873074519405,0.8081312136840458,0.15505515515359697,0.244052382755773,0.8356512532398618,0.13733823619851027,0.22201019649324283,0.8978239461866787,0.0917361078404585,0.32574257483001245,0.8757947738003069,0.10877828798437619,0.30890307787163435,0.8420969467607858,0.13296967901694812,0.22308043014602807,0.795054755961951,0.16294269098423353,0.17502388850959827,0.8105660668932704,0.15354871809444468,0.18040852613808428
8.0,0.0,8.0,0.0,4.0,0.0,4.0,0.0,,,,left,1.0830402998253703,361.0059432000853,nx8,361.0059432000853,,350.963753500022,352.9631218002178,True,1.0,['r'],True,0.625,0.625,0.0,0.0,2.0,0.6021808102656677,0.4706756633659121,unsucc_cost,0.0,0.0,358.17997989989817,,nx8,1,2022-05-05_14h42.09.553,threat_forest,2021.2.3,59.95171492593129,True,60.0,0.6458333333333333,0.519345238095238,0.1759259259259258,-0.3903533635676492,1,1,1.0,0.0797721786149613,0.4706756633659121,1.0,0.625,0.625,0.0,1.5,1.5,2.5,2.5,1.0,2.0,-1.0,1.0,1,1,1,1,0.625,0.7982359165955736,0.16105533805239805,0.18580345683423838,0.7992466705711139,0.1604514301521033,0.18773785784194175,0.736830155259625,0.19391147755970187,0.08825450422465098,0.8163223597820337,0.1499401647019257,0.204873074519405,0.8081312136840458,0.15505515515359697,0.244052382755773,0.8356512532398618,0.13733823619851027,0.22201019649324283,0.8978239461866787,0.0917361078404585,0.32574257483001245,0.8757947738003069,0.10877828798437619,0.30890307787163435,0.8420969467607858,0.13296967901694812,0.22308043014602807,0.7900193821324482,0.165888757987513,0.13831798913697524,0.8298059467006517,0.14122803752088697,0.1542352245558149
9.0,0.0,9.0,0.0,0.0,0.0,0.0,0.0,365.4973328001797,368.9935902999714,,left,1.5210751998238266,371.6963378000073,nx8,371.6963378000073,,365.4973328001797,368.9935902999714,True,5.0,['p'],True,0.4444444444444445,0.6666666666666666,0.3333333333333333,1.0,1.0,0.9656336071428248,0.0498748920388152,unsucc_cost,0.0,3.0,,,nx8,1,2022-05-05_14h42.09.553,threat_forest,2021.2.3,59.95171492593129,True,56.0,0.4444444444444444,0.5451388888888888,-1.1666666666666667,-0.4953703703703704,0,0,1.0,0.4194174530962939,0.0498748920388152,0.4444444444444445,0.4444444444444445,0.6666666666666666,0.3333333333333333,0.0,0.0,5.0,5.0,1.0,1.0,-1.0,5.0,0,1,0,0,0.0498748920388152,0.7982359165955736,0.16105533805239805,0.18580345683423838,0.7992466705711139,0.1604514301521033,0.18773785784194175,0.8070847899815095,0.15569893176201224,0.21271205491227152,0.8163223597820337,0.1499401647019257,0.204873074519405,0.7900473166968272,0.16587255407697038,0.15967877299876987,0.8429496722131119,0.13238552232891906,0.22753619549133852,0.8021814766912324,0.15868635514470622,0.1971594896922999,0.8305508165474109,0.1407361576798399,0.2384982689848677,0.7610130815505876,0.18187217125946628,0.17429456540145766,0.797447025030967,0.16152526730022732,0.19268397942253035,0.8005660038331968,0.15966007733974272,0.19339112459519103
9.0,0.0,9.0,0.0,1.0,0.0,1.0,0.0,,,,left,2.321225600317121,376.4030108000152,nx8,376.4030108000152,,365.4973328001797,368.9935902999714,True,3.0,['p'],True,0.4444444444444445,0.6666666666666666,0.3333333333333333,1.0,1.0,0.9656336071428248,0.0531698250605429,unsucc_cost,0.0,1.0,375.2635376998224,,nx8,1,2022-05-05_14h42.09.553,threat_forest,2021.2.3,59.95171492593129,True,56.0,0.4444444444444444,0.5451388888888888,-1.1666666666666667,-0.4953703703703704,0,0,1.0,0.8420953221883357,0.0531698250605429,0.4444444444444445,0.4444444444444445,0.6666666666666666,0.3333333333333333,0.0,0.0,3.0,3.0,1.0,1.0,-1.0,3.0,0,1,0,0,0.0531698250605429,0.7982359165955736,0.16105533805239805,0.18580345683423838,0.7992466705711139,0.1604514301521033,0.18773785784194175,0.8070847899815095,0.15569893176201224,0.21271205491227152,0.8163223597820337,0.1499401647019257,0.204873074519405,0.7900473166968272,0.16587255407697038,0.15967877299876987,0.8429496722131119,0.13238552232891906,0.22753619549133852,0.8021814766912324,0.15868635514470622,0.1971594896922999,0.8305508165474109,0.1407361576798399,0.2384982689848677,0.7610130815505876,0.18187217125946628,0.17429456540145766,0.797447025030967,0.16152526730022732,0.19268397942253035,0.8008089453703717,0.15951397838516473,0.19308076089602733
9.0,0.0,9.0,0.0,2.0,0.0,2.0,0.0,,,,left,1.7687149001285434,382.97125279996544,nx8,382.97125279996544,,365.4973328001797,368.9935902999714,True,1.0,['p'],True,0.4444444444444445,0.6666666666666666,0.3333333333333333,1.0,1.0,0.9656336071428248,0.0713813951125336,succ_gain,0.0,2.0,380.7469583000056,,nx8,1,2022-05-05_14h42.09.553,threat_forest,2021.2.3,59.95171492593129,True,56.0,0.4444444444444444,0.5451388888888888,-1.1666666666666667,-0.4953703703703704,0,0,1.0,0.5702532377622135,0.0713813951125336,1.0,0.4444444444444445,0.6666666666666666,0.3333333333333333,0.0,0.0,1.0,1.0,1.0,1.0,-1.0,1.0,1,1,0,0,0.625,0.7982359165955736,0.16105533805239805,0.18580345683423838,0.7992466705711139,0.1604514301521033,0.18773785784194175,0.736830155259625,0.19391147755970187,0.08825450422465098,0.8163223597820337,0.1499401647019257,0.204873074519405,0.7900473166968272,0.16587255407697038,0.15967877299876987,0.8429496722131119,0.13238552232891906,0.22753619549133852,0.8021814766912324,0.15868635514470622,0.1971594896922999,0.8305508165474109,0.1407361576798399,0.2384982689848677,0.7610130815505876,0.18187217125946628,0.17429456540145766,0.7900193821324482,0.165888757987513,0.13831798913697524,0.802147707323143,0.15870676295936836,0.19136596172928555
9.0,0.0,9.0,0.0,3.0,0.0,3.0,0.0,,,,left,1.508630800060928,388.184490500018,nx8,388.184490500018,,365.4973328001797,368.9935902999714,True,2.0,['p'],True,0.4444444444444445,0.6666666666666666,0.3333333333333333,1.0,1.0,0.9656336071428248,0.0619570187471422,succ_gain,0.0,3.0,386.7639632998034,,nx8,1,2022-05-05_14h42.09.553,threat_forest,2021.2.3,59.95171492593129,True,56.0,0.4444444444444444,0.5451388888888888,-1.1666666666666667,-0.4953703703703704,0,0,1.0,0.4112024845493651,0.0619570187471422,0.4444444444444445,0.4444444444444445,0.6666666666666666,0.3333333333333333,0.0,0.0,2.0,2.0,1.0,1.0,1.0,2.0,0,1,0,0,0.0619570187471422,0.7936601660816857,0.16376370685687672,0.227655886518078,0.7992466705711139,0.1604514301521033,0.18773785784194175,0.8070847899815095,0.15569893176201224,0.21271205491227152,0.8163223597820337,0.1499401647019257,0.204873074519405,0.7900473166968272,0.16587255407697038,0.15967877299876987,0.8429496722131119,0.13238552232891906,0.22753619549133852,0.8021814766912324,0.15868635514470622,0.1971594896922999,0.8305508165474109,0.1407361576798399,0.2384982689848677,0.7610130815505876,0.18187217125946628,0.17429456540145766,0.797447025030967,0.16152526730022732,0.19268397942253035,0.8014557541410574,0.15912442829524628,0.1922532244686389
9.0,0.0,9.0,0.0,4.0,0.0,4.0,0.0,,,,left,1.6328273001126945,395.4023107998073,nx8,395.4023107998073,,365.4973328001797,368.9935902999714,True,3.0,['p'],True,0.4444444444444445,0.6666666666666666,0.3333333333333333,1.0,1.0,0.9656336071428248,0.0843621399176954,figh_cost,0.0,0.0,391.71367960004136,,nx8,1,2022-05-05_14h42.09.553,threat_forest,2021.2.3,59.95171492593129,True,56.0,0.4444444444444444,0.5451388888888888,-1.1666666666666667,-0.4953703703703704,0,0,1.0,0.4903130521879655,0.0843621399176954,0.4444444444444445,0.4444444444444445,0.6666666666666666,0.3333333333333333,0.0,0.0,3.0,3.0,1.0,1.0,1.0,3.0,0,1,0,0,0.0843621399176954,0.7936601660816857,0.16376370685687672,0.227655886518078,0.7992466705711139,0.1604514301521033,0.18773785784194175,0.8070847899815095,0.15569893176201224,0.21271205491227152,0.8163223597820337,0.1499401647019257,0.204873074519405,0.7900473166968272,0.16587255407697038,0.15967877299876987,0.8429496722131119,0.13238552232891906,0.22753619549133852,0.8021814766912324,0.15868635514470622,0.1971594896922999,0.8305508165474109,0.1407361576798399,0.2384982689848677,0.7610130815505876,0.18187217125946628,0.17429456540145766,0.797447025030967,0.16152526730022732,0.19268397942253035,0.8030977980625006,0.15813172480966362,0.19014438579249565
10.0,0.0,10.0,0.0,1.0,0.0,1.0,0.0,,,,left,1.4938809000886977,415.1148403999396,nx8,415.1148403999396,,412.517168099992,414.5201848000288,True,4.0,['p'],True,0.4444444444444445,0.6666666666666666,0.3333333333333333,1.0,2.0,0.9656336071428248,0.0961310158918639,unsucc_cost,0.0,2.0,414.5201848000288,,nx8,1,2022-05-05_14h42.09.553,threat_forest,2021.2.3,59.95171492593129,True,1.0,0.4833333333333333,0.4638888888888888,-0.7877777777777778,-0.9772222222222222,1,0,1.0,0.4013773647167791,0.0961310158918639,0.4444444444444445,0.4444444444444445,0.6666666666666666,0.3333333333333333,0.6666666666666665,0.4444444444444444,4.444444444444445,4.444444444444445,1.0,2.0,-1.0,4.0,0,1,0,1,0.0961310158918639,0.7982359165955736,0.16105533805239805,0.18580345683423838,0.7992466705711139,0.1604514301521033,0.18773785784194175,0.8070847899815095,0.15569893176201224,0.21271205491227152,0.8163223597820337,0.1499401647019257,0.204873074519405,0.7900473166968272,0.16587255407697038,0.15967877299876987,0.8429496722131119,0.13238552232891906,0.22753619549133852,0.8511526327472975,0.12669182851464167,0.2586074321161569,0.8305508165474109,0.1407361576798399,0.2384982689848677,0.8420969467607858,0.13296967901694812,0.22308043014602807,0.797447025030967,0.16152526730022732,0.19268397942253035,0.8039562092499283,0.15761062285841382,0.18903738862267688
10.0,0.0,10.0,0.0,2.0,0.0,2.0,0.0,,,,right,1.299947699997574,422.1683570998721,nx8,416.63262660009786,418.6475661001168,422.1683570998721,,True,2.0,['p'],False,0.27,0.3,0.1,1.0,2.0,0.7963326591781347,-0.0287709139908264,unsucc_cost,1.0,0.0,418.6475661001168,,nx8,1,2022-05-05_14h42.09.553,threat_forest,2021.2.3,59.95171492593129,True,1.0,0.4833333333333333,0.4638888888888888,-0.7877777777777778,-0.9772222222222222,0,0,1.0,0.262324032887115,-0.0287709139908264,0.27,0.27,0.3,0.1,-0.1,-0.02,1.98,1.98,0.0,2.0,-1.0,2.0,0,1,0,0,-0.0287709139908264,0.7982359165955736,0.16105533805239805,0.18580345683423838,0.7992466705711139,0.1604514301521033,0.18773785784194175,0.8070847899815095,0.15569893176201224,0.21271205491227152,0.7793103296197055,0.17198573976773152,0.18804269761311,0.8028340212371153,0.15829155558135835,0.21880908825922685,0.7692502810337698,0.17750428616323602,0.1771948573263032,0.793873162912643,0.16363856411971914,0.18764839251352328,0.7752477622481843,0.1742386693773671,0.16469053537282785,0.7610130815505876,0.18187217125946628,0.17429456540145766,0.7997384801662399,0.16015684350763265,0.20973356654127828,0.7947012426214984,0.16315117759734477,0.20080740483641896
11.0,0.0,11.0,0.0,0.0,0.0,0.0,0.0,429.2873585000634,432.7843594001606,,left,2.373129399958998,434.8220608001575,nx8,434.8220608001575,,429.2873585000634,432.7843594001606,True,5.0,['p'],True,0.2592592592592592,0.3333333333333333,0.2222222222222222,2.0,2.0,0.9327883776363324,-0.0183254353837554,succ_gain,0.0,6.0,,,nx8,1,2022-05-05_14h42.09.553,threat_forest,2021.2.3,59.95171492593129,True,31.0,0.4166666666666666,0.4499999999999999,-0.9675925925925928,-0.8776851851851852,0,0,1.0,0.8642095060802717,-0.0183254353837554,0.2592592592592592,0.2592592592592592,0.3333333333333333,0.2222222222222222,-0.3333333333333335,-0.1851851851851855,4.814814814814815,4.814814814814815,1.0,2.0,-1.0,5.0,0,1,0,0,-0.0183254353837554,0.7982359165955736,0.16105533805239805,0.18580345683423838,0.7992466705711139,0.1604514301521033,0.18773785784194175,0.8070847899815095,0.15569893176201224,0.21271205491227152,0.8163223597820337,0.1499401647019257,0.204873074519405,0.7962108248661844,0.16225914723209464,0.1878626442956004,0.7768458109159811,0.1733563969782728,0.1818228718015692,0.773493244598584,0.17520144515893904,0.16544099258642958,0.7714560030776894,0.17631163839308556,0.1601236794224588,0.7610130815505876,0.18187217125946628,0.17429456540145766,0.7998789306024425,0.16007262698073538,0.21078284456460983,0.795487487973815,0.1626871444509245,0.19982164115129486
11.0,0.0,11.0,0.0,1.0,0.0,1.0,0.0,,,,left,1.2780198003165424,441.6340691000223,nx8,441.6340691000223,,429.2873585000634,432.7843594001606,True,6.0,['p'],True,0.2592592592592592,0.3333333333333333,0.2222222222222222,2.0,2.0,0.9327883776363324,-0.0893559472090634,unsucc_cost,0.0,4.0,439.215949700214,,nx8,1,2022-05-05_14h42.09.553,threat_forest,2021.2.3,59.95171492593129,True,31.0,0.4166666666666666,0.4499999999999999,-0.9675925925925928,-0.8776851851851852,0,0,1.0,0.2453118490407568,-0.0893559472090634,0.2592592592592592,0.2592592592592592,0.3333333333333333,0.2222222222222222,-0.3333333333333335,-0.1851851851851855,5.814814814814815,5.814814814814815,1.0,2.0,1.0,6.0,0,1,0,0,-0.0893559472090634,0.7936601660816857,0.16376370685687672,0.227655886518078,0.7992466705711139,0.1604514301521033,0.18773785784194175,0.8070847899815095,0.15569893176201224,0.21271205491227152,0.8163223597820337,0.1499401647019257,0.204873074519405,0.7962108248661844,0.16225914723209464,0.1878626442956004,0.7768458109159811,0.1733563969782728,0.1818228718015692,0.773493244598584,0.17520144515893904,0.16544099258642958,0.7714560030776894,0.17631163839308556,0.1601236794224588,0.7610130815505876,0.18187217125946628,0.17429456540145766,0.7998789306024425,0.16007262698073538,0.21078284456460983,0.7900967481416682,0.16584387671762957,0.20652761044720158
11.0,0.0,11.0,0.0,3.0,0.0,3.0,0.0,,,,left,1.047646400053054,453.9211650001817,nx8,453.9211650001817,,450.0815531001426,452.0813207998872,True,3.0,['p'],True,0.2592592592592592,0.3333333333333333,0.2222222222222222,2.0,2.0,0.9327883776363324,-0.011359909344652,unsucc_cost,0.0,1.0,452.0813207998872,,nx8,1,2022-05-05_14h42.09.553,threat_forest,2021.2.3,59.95171492593129,True,31.0,0.4166666666666666,0.4499999999999999,-0.9675925925925928,-0.8776851851851852,0,0,1.0,0.0465461244356067,-0.011359909344652,0.2592592592592592,0.2592592592592592,0.3333333333333333,0.2222222222222222,-0.3333333333333335,-0.1851851851851855,2.8148148148148144,2.8148148148148144,1.0,2.0,-1.0,3.0,0,1,0,0,-0.011359909344652,0.7982359165955736,0.16105533805239805,0.18580345683423838,0.7992466705711139,0.1604514301521033,0.18773785784194175,0.8070847899815095,0.15569893176201224,0.21271205491227152,0.8163223597820337,0.1499401647019257,0.204873074519405,0.7962108248661844,0.16225914723209464,0.1878626442956004,0.7768458109159811,0.1733563969782728,0.1818228718015692,0.773493244598584,0.17520144515893904,0.16544099258642958,0.7714560030776894,0.17631163839308556,0.1601236794224588,0.7610130815505876,0.18187217125946628,0.17429456540145766,0.7998789306024425,0.16007262698073538,0.21078284456460983,0.796010548075424,0.1623777554280871,0.19916439400065078
11.0,0.0,11.0,0.0,4.0,0.0,4.0,0.0,,,,right,0.7454066998325288,459.2617544000968,nx8,454.99839060008526,456.99788889987394,459.2617544000968,,True,1.0,['p'],False,0.375,0.5,0.25,1.0,2.0,0.9850568223215076,0.1720538355195473,succ_gain,1.0,3.0,456.99788889987394,,nx8,1,2022-05-05_14h42.09.553,threat_forest,2021.2.3,59.95171492593129,True,31.0,0.4166666666666666,0.4499999999999999,-0.9675925925925928,-0.8776851851851852,1,0,1.0,-0.2938253037394754,0.1720538355195473,1.0,0.375,0.5,0.25,0.25,0.25,1.25,1.25,0.0,2.0,-1.0,1.0,1,1,0,1,0.625,0.7982359165955736,0.16105533805239805,0.18580345683423838,0.7992466705711139,0.1604514301521033,0.18773785784194175,0.736830155259625,0.19391147755970187,0.08825450422465098,0.7793103296197055,0.17198573976773152,0.18804269761311,0.7946826732353,0.16316212209489744,0.18081961581581618,0.812122331834495,0.15257964997019738,0.20500456292554864,0.8218404496026627,0.14641872499955594,0.22072041433270445,0.8099471198476849,0.15393278289812487,0.20942543386483714,0.8420969467607858,0.13296967901694812,0.22308043014602807,0.7900193821324482,0.165888757987513,0.13831798913697524,0.8094259330436007,0.1542555919600971,0.181910165820721
11.0,0.0,11.0,0.0,5.0,0.0,5.0,0.0,,,,right,1.0255677998065948,463.3224367001094,nx8,454.99839060008526,456.99788889987394,463.3224367001094,,True,3.0,['p'],False,0.375,0.5,0.25,1.0,2.0,0.9850568223215076,0.1478587962962964,succ_gain,1.0,5.0,462.0317528001033,,nx8,1,2022-05-05_14h42.09.553,threat_forest,2021.2.3,59.95171492593129,True,31.0,0.4166666666666666,0.4499999999999999,-0.9675925925925928,-0.8776851851851852,1,0,1.0,0.025246410246962,0.1478587962962964,0.375,0.375,0.5,0.25,0.25,0.25,3.25,3.25,0.0,2.0,1.0,3.0,0,1,0,1,0.1478587962962964,0.7936601660816857,0.16376370685687672,0.227655886518078,0.7992466705711139,0.1604514301521033,0.18773785784194175,0.8070847899815095,0.15569893176201224,0.21271205491227152,0.7793103296197055,0.17198573976773152,0.18804269761311,0.7946826732353,0.16316212209489744,0.18081961581581618,0.812122331834495,0.15257964997019738,0.20500456292554864,0.8218404496026627,0.14641872499955594,0.22072041433270445,0.8099471198476849,0.15393278289812487,0.20942543386483714,0.8420969467607858,0.13296967901694812,0.22308043014602807,0.7983615642875576,0.1609803769558817,0.1994729255416785,0.8076956183144356,0.15532340647009707,0.18417856577129954
11.0,0.0,11.0,0.0,6.0,0.0,6.0,0.0,,,,left,1.205674400087446,470.18968479987234,nx8,470.18968479987234,,464.378847300075,466.38148850016296,True,5.0,['p'],True,0.2592592592592592,0.3333333333333333,0.2222222222222222,2.0,2.0,0.9327883776363324,0.0,unsucc_cost,0.0,3.0,466.38148850016296,,nx8,1,2022-05-05_14h42.09.553,threat_forest,2021.2.3,59.95171492593129,True,31.0,0.4166666666666666,0.4499999999999999,-0.9675925925925928,-0.8776851851851852,0,0,1.0,0.1870390785091866,0.0,0.0,0.2592592592592592,0.3333333333333333,0.2222222222222222,-0.3333333333333335,-0.1851851851851855,4.814814814814815,4.814814814814815,1.0,2.0,1.0,5.0,0,0,0,0,-0.84,0.7936601660816857,0.16376370685687672,0.227655886518078,0.7826213674264098,0.17012516267402636,0.2991760586422243,0.8070847899815095,0.15569893176201224,0.21271205491227152,0.8163223597820337,0.1499401647019257,0.204873074519405,0.7962108248661844,0.16225914723209464,0.1878626442956004,0.7768458109159811,0.1733563969782728,0.1818228718015692,0.773493244598584,0.17520144515893904,0.16544099258642958,0.7714560030776894,0.17631163839308556,0.1601236794224588,0.7610130815505876,0.18187217125946628,0.17429456540145766,0.803246712512514,0.15804143135035265,0.23609009736366193,0.7968614584294822,0.16187327449912084,0.1980927055157894
11.0,0.0,11.0,0.0,7.0,0.0,7.0,0.0,,,,right,1.550724699627608,476.7298379000276,nx8,471.4155099000782,473.41507339989766,476.7298379000276,,True,3.0,['p'],False,0.375,0.5,0.25,1.0,2.0,0.9850568223215076,-0.25,succ_gain,1.0,5.0,473.41507339989766,,nx8,1,2022-05-05_14h42.09.553,threat_forest,2021.2.3,59.95171492593129,True,31.0,0.4166666666666666,0.4499999999999999,-0.9675925925925928,-0.8776851851851852,1,0,1.0,0.4387223698114212,-0.25,0.0,0.375,0.5,0.25,0.25,0.25,3.25,3.25,0.0,2.0,-1.0,3.0,0,0,0,1,-0.84,0.7982359165955736,0.16105533805239805,0.18580345683423838,0.7826213674264098,0.17012516267402636,0.2991760586422243,0.8070847899815095,0.15569893176201224,0.21271205491227152,0.7793103296197055,0.17198573976773152,0.18804269761311,0.7946826732353,0.16316212209489744,0.18081961581581618,0.812122331834495,0.15257964997019738,0.20500456292554864,0.8218404496026627,0.14641872499955594,0.22072041433270445,0.8099471198476849,0.15393278289812487,0.20942543386483714,0.8420969467607858,0.13296967901694812,0.22308043014602807,0.803246712512514,0.15804143135035265,0.23609009736366193,0.7775228204378063,0.17298108413624505,0.2216894581314559
12.0,0.0,12.0,0.0,0.0,0.0,0.0,0.0,482.7797205001116,486.2714014998637,,right,0.9636399000883102,488.0009182998911,nx8,482.7797205001116,486.2714014998637,488.0009182998911,,True,5.0,['p'],False,0.48,0.6,0.2,1.0,1.0,0.9455672104350704,0.0603064788559827,succ_gain,1.0,6.0,,,nx8,1,2022-05-05_14h42.09.553,threat_forest,2021.2.3,59.95171492593129,True,4.0,0.4666666666666667,0.4416666666666666,-0.9911111111111112,-0.979351851851852,1,1,1.0,-0.0370376017841197,0.0603064788559827,0.48,0.48,0.6,0.2,0.1999999999999998,0.2399999999999997,5.24,5.24,0.0,1.0,1.0,5.0,0,1,1,1,0.0603064788559827,0.7936601660816857,0.16376370685687672,0.227655886518078,0.7992466705711139,0.1604514301521033,0.18773785784194175,0.8070847899815095,0.15569893176201224,0.21271205491227152,0.7793103296197055,0.17198573976773152,0.18804269761311,0.7974272412031314,0.1615370361902944,0.19349497011381822,0.8311428428100032,0.14034441765570954,0.21865604437422526,0.8180349433473741,0.14885377481003254,0.2160437143995107,0.8403922066459821,0.1341331456546789,0.25304503959687974,0.8420969467607858,0.13296967901694812,0.22308043014602807,0.7969775846308098,0.16180431422685024,0.18920725319822562,0.8013343816375414,0.15919759044312054,0.1924086456687331
12.0,0.0,12.0,0.0,1.0,0.0,1.0,0.0,,,,left,1.5258508999831977,491.9779501999728,nx8,491.9779501999728,,488.9969647000544,490.99880089983344,True,6.0,['p'],True,0.2962962962962963,0.3333333333333333,0.1111111111111111,1.0,1.0,0.8325252476189534,-0.1377614848417467,succ_gain,0.0,6.0,490.99880089983344,,nx8,1,2022-05-05_14h42.09.553,threat_forest,2021.2.3,59.95171492593129,True,4.0,0.4666666666666667,0.4416666666666666,-0.9911111111111112,-0.979351851851852,0,0,1.0,0.4225522216556517,-0.1377614848417467,0.2962962962962963,0.2962962962962963,0.3333333333333333,0.1111111111111111,-0.3333333333333335,-0.2222222222222223,5.777777777777778,5.777777777777778,1.0,1.0,1.0,6.0,0,1,0,0,-0.1377614848417467,0.7936601660816857,0.16376370685687672,0.227655886518078,0.7992466705711139,0.1604514301521033,0.18773785784194175,0.8070847899815095,0.15569893176201224,0.21271205491227152,0.8163223597820337,0.1499401647019257,0.204873074519405,0.8022386851936677,0.15865177717240297,0.21599942984095644,0.7768458109159811,0.1733563969782728,0.1818228718015692,0.773493244598584,0.17520144515893904,0.16544099258642958,0.7843414249118188,0.16914995407911654,0.17590123344083303,0.7610130815505876,0.18187217125946628,0.17429456540145766,0.7993943069034278,0.16036304899381607,0.20716439285395016,0.7863637252382137,0.1679958168676928,0.21109906071720358
12.0,0.0,12.0,0.0,2.0,0.0,2.0,0.0,,,,right,1.035104500129819,497.5168608999811,nx8,493.5324686001986,495.53200640017167,497.5168608999811,,True,6.0,['p'],False,0.48,0.6,0.2,1.0,1.0,0.9455672104350704,0.0681665301198575,figh_cost,1.0,3.0,495.53200640017167,,nx8,1,2022-05-05_14h42.09.553,threat_forest,2021.2.3,59.95171492593129,True,4.0,0.4666666666666667,0.4416666666666666,-0.9911111111111112,-0.979351851851852,1,1,1.0,0.0345023879295814,0.0681665301198575,0.48,0.48,0.6,0.2,0.1999999999999998,0.2399999999999997,6.24,6.24,0.0,1.0,-1.0,6.0,0,1,1,1,0.0681665301198575,0.7982359165955736,0.16105533805239805,0.18580345683423838,0.7992466705711139,0.1604514301521033,0.18773785784194175,0.8070847899815095,0.15569893176201224,0.21271205491227152,0.7793103296197055,0.17198573976773152,0.18804269761311,0.7974272412031314,0.1615370361902944,0.19349497011381822,0.8311428428100032,0.14034441765570954,0.21865604437422526,0.8180349433473741,0.14885377481003254,0.2160437143995107,0.8403922066459821,0.1341331456546789,0.25304503959687974,0.8420969467607858,0.13296967901694812,0.22308043014602807,0.7969775846308098,0.16180431422685024,0.18920725319822562,0.8019118710279086,0.15884922213242741,0.19166859329881408
12.0,0.0,12.0,0.0,3.0,0.0,3.0,0.0,,,,left,1.343249199911952,502.37680200021714,nx8,493.5324686001986,495.53200640017167,502.37680200021714,,False,3.0,['p'],False,0.48,0.6,0.2,1.0,1.0,0.9455672104350704,0.1279737971650663,wait_cost,1.0,2.0,500.5820555998944,,nx8,1,2022-05-05_14h42.09.553,threat_forest,2021.2.3,59.95171492593129,False,4.0,0.4666666666666667,0.4416666666666666,-0.9911111111111112,-0.979351851851852,1,1,0.0,0.2950914549906231,0.1279737971650663,0.48,0.48,0.6,0.2,0.1999999999999998,0.2399999999999997,3.24,3.24,0.0,1.0,-1.0,3.0,0,1,1,1,0.1279737971650663,0.7982359165955736,0.16105533805239805,0.18580345683423838,0.7992466705711139,0.1604514301521033,0.18773785784194175,0.8070847899815095,0.15569893176201224,0.21271205491227152,0.7793103296197055,0.17198573976773152,0.18804269761311,0.7974272412031314,0.1615370361902944,0.19349497011381822,0.8311428428100032,0.14034441765570954,0.21865604437422526,0.8180349433473741,0.14885377481003254,0.2160437143995107,0.8403922066459821,0.1341331456546789,0.25304503959687974,0.8420969467607858,0.13296967901694812,0.22308043014602807,0.7969775846308098,0.16180431422685024,0.18920725319822562,0.8062645958555901,0.15620199732541198,0.1860449905427471
12.0,0.0,12.0,0.0,4.0,0.0,4.0,0.0,,,,right,1.4484385000541806,508.55720889987424,nx8,493.5324686001986,495.53200640017167,508.55720889987424,,True,2.0,['p'],False,0.48,0.6,0.2,1.0,1.0,0.9455672104350704,0.1028391330589849,unsucc_cost,1.0,0.0,505.748850800097,,nx8,1,2022-05-05_14h42.09.553,threat_forest,2021.2.3,59.95171492593129,True,4.0,0.4666666666666667,0.4416666666666666,-0.9911111111111112,-0.979351851851852,1,1,1.0,0.3704860796484425,0.1028391330589849,0.48,0.48,0.6,0.2,0.1999999999999998,0.2399999999999997,2.24,2.24,0.0,1.0,-1.0,2.0,0,1,1,1,0.1028391330589849,0.7982359165955736,0.16105533805239805,0.18580345683423838,0.7992466705711139,0.1604514301521033,0.18773785784194175,0.8070847899815095,0.15569893176201224,0.21271205491227152,0.7793103296197055,0.17198573976773152,0.18804269761311,0.7974272412031314,0.1615370361902944,0.19349497011381822,0.8311428428100032,0.14034441765570954,0.21865604437422526,0.8180349433473741,0.14885377481003254,0.2160437143995107,0.8403922066459821,0.1341331456546789,0.25304503959687974,0.8420969467607858,0.13296967901694812,0.22308043014602807,0.7969775846308098,0.16180431422685024,0.18920725319822562,0.8044442256857579,0.15731371344659933,0.18840665239575832
13.0,0.0,13.0,0.0,0.0,0.0,0.0,0.0,515.6649691001512,519.183815299999,,right,0.8107714997604489,519.9596235002391,nx8,515.6649691001512,519.183815299999,519.9596235002391,,True,5.0,['p'],False,0.16,0.2,0.2,2.0,2.0,0.8198746470064713,-0.0083567608970359,succ_gain,1.0,6.0,,,nx8,1,2022-05-05_14h42.09.553,threat_forest,2021.2.3,59.95171492593129,True,63.0,0.2666666666666666,0.3666666666666667,-1.5022222222222226,-1.246666666666667,0,0,1.0,-0.2097690157862178,-0.0083567608970359,0.16,0.16,0.2,0.2,-0.8000000000000003,-0.5600000000000003,4.44,4.44,0.0,2.0,-1.0,5.0,0,1,0,0,-0.0083567608970359,0.7982359165955736,0.16105533805239805,0.18580345683423838,0.7992466705711139,0.1604514301521033,0.18773785784194175,0.8070847899815095,0.15569893176201224,0.21271205491227152,0.7793103296197055,0.17198573976773152,0.18804269761311,0.7974272412031314,0.1615370361902944,0.19349497011381822,0.7453937027419292,0.18978193065460566,0.16349605441849788,0.7286061975320833,0.19773920644992207,0.12215549334514375,0.7343158150812406,0.19509609880281392,0.11874055977804504,0.7610130815505876,0.18187217125946628,0.17429456540145766,0.8011733911672879,0.15929458845279582,0.2204766512169305,0.7962357554100079,0.16224437721666196,0.1988810534715873
13.0,0.0,13.0,0.0,1.0,0.0,1.0,0.0,,,,left,0.8336451002396643,523.9372837999836,nx8,523.9372837999836,,520.8149136998691,522.8091370002367,True,6.0,['p'],True,0.2222222222222222,0.3333333333333333,0.3333333333333333,2.0,2.0,0.9656336071428248,-0.091241777442147,succ_gain,0.0,6.0,522.8091370002367,,nx8,1,2022-05-05_14h42.09.553,threat_forest,2021.2.3,59.95171492593129,True,63.0,0.2666666666666666,0.3666666666666667,-1.5022222222222226,-1.246666666666667,0,0,1.0,-0.1819475064719024,-0.091241777442147,0.2222222222222222,0.2222222222222222,0.3333333333333333,0.3333333333333333,-0.666666666666667,-0.4444444444444446,5.555555555555555,5.555555555555555,1.0,2.0,1.0,6.0,0,1,0,0,-0.091241777442147,0.7936601660816857,0.16376370685687672,0.227655886518078,0.7992466705711139,0.1604514301521033,0.18773785784194175,0.8070847899815095,0.15569893176201224,0.21271205491227152,0.8163223597820337,0.1499401647019257,0.204873074519405,0.7900473166968272,0.16587255407697038,0.15967877299876987,0.7768458109159811,0.1733563969782728,0.1818228718015692,0.7419827463261511,0.19144435048045366,0.1342452470599212,0.758038192630788,0.18341629114383637,0.14447176883235924,0.7610130815505876,0.18187217125946628,0.17429456540145766,0.800362675925774,0.15978226291070846,0.21440057434603332,0.7899522143507689,0.16592771339308576,0.20670570796196708
13.0,0.0,13.0,0.0,2.0,0.0,2.0,0.0,,,,right,1.357210900168866,529.6093160999008,nx8,524.8024447998032,526.8012200999074,529.6093160999008,,True,6.0,['p'],False,0.16,0.2,0.2,2.0,2.0,0.8198746470064713,0.0030000271470811,unsucc_cost,1.0,4.0,526.8012200999074,,nx8,1,2022-05-05_14h42.09.553,threat_forest,2021.2.3,59.95171492593129,True,63.0,0.2666666666666666,0.3666666666666667,-1.5022222222222226,-1.246666666666667,0,0,1.0,0.3054317852608989,0.0030000271470811,0.16,0.16,0.2,0.2,-0.8000000000000003,-0.5600000000000003,5.44,5.44,0.0,2.0,-1.0,6.0,0,1,0,0,0.0030000271470811,0.7982359165955736,0.16105533805239805,0.18580345683423838,0.7992466705711139,0.1604514301521033,0.18773785784194175,0.8070847899815095,0.15569893176201224,0.21271205491227152,0.7793103296197055,0.17198573976773152,0.18804269761311,0.7974272412031314,0.1615370361902944,0.19349497011381822,0.7453937027419292,0.18978193065460566,0.16349605441849788,0.7286061975320833,0.19773920644992207,0.12215549334514375,0.7343158150812406,0.19509609880281392,0.11874055977804504,0.7610130815505876,0.18187217125946628,0.17429456540145766,0.8011733911672879,0.15929458845279582,0.2204766512169305,0.7970857325729581,0.16174006750158884,0.19780972870306718
13.0,0.0,13.0,0.0,3.0,0.0,3.0,0.0,,,,left,0.9611814999952912,534.2011732999235,nx8,524.8024447998032,526.8012200999074,534.2011732999235,,False,4.0,['p'],False,0.16,0.2,0.2,2.0,2.0,0.8198746470064713,0.0087963215363511,wait_cost,1.0,3.0,533.0010346998461,,nx8,1,2022-05-05_14h42.09.553,threat_forest,2021.2.3,59.95171492593129,False,63.0,0.2666666666666666,0.3666666666666667,-1.5022222222222226,-1.246666666666667,0,0,0.0,-0.0395920220848084,0.0087963215363511,0.16,0.16,0.2,0.2,-0.8000000000000003,-0.5600000000000003,3.4399999999999995,3.4399999999999995,0.0,2.0,-1.0,4.0,0,1,0,0,0.0087963215363511,0.7982359165955736,0.16105533805239805,0.18580345683423838,0.7992466705711139,0.1604514301521033,0.18773785784194175,0.8070847899815095,0.15569893176201224,0.21271205491227152,0.7793103296197055,0.17198573976773152,0.18804269761311,0.7974272412031314,0.1615370361902944,0.19349497011381822,0.7453937027419292,0.18978193065460566,0.16349605441849788,0.7286061975320833,0.19773920644992207,0.12215549334514375,0.7343158150812406,0.19509609880281392,0.11874055977804504,0.7610130815505876,0.18187217125946628,0.17429456540145766,0.8011733911672879,0.15929458845279582,0.2204766512169305,0.7975185253592566,0.16148272706805342,0.19726305039775588
13.0,0.0,13.0,0.0,4.0,0.0,4.0,0.0,,,,right,1.0731303002685308,538.1833307999186,nx8,538.1833307999186,,535.1829224000685,537.1824830002151,False,3.0,['p'],True,0.2222222222222222,0.3333333333333333,0.3333333333333333,2.0,2.0,0.9656336071428248,0.1004938271604938,wait_cost,0.0,2.0,537.1824830002151,,nx8,1,2022-05-05_14h42.09.553,threat_forest,2021.2.3,59.95171492593129,False,63.0,0.2666666666666666,0.3666666666666667,-1.5022222222222226,-1.246666666666667,0,0,0.0,0.070579891754464,0.1004938271604938,0.2222222222222222,0.2222222222222222,0.3333333333333333,0.3333333333333333,-0.666666666666667,-0.4444444444444446,2.555555555555556,2.555555555555556,1.0,2.0,-1.0,3.0,0,1,0,0,0.1004938271604938,0.7982359165955736,0.16105533805239805,0.18580345683423838,0.7992466705711139,0.1604514301521033,0.18773785784194175,0.8070847899815095,0.15569893176201224,0.21271205491227152,0.8163223597820337,0.1499401647019257,0.204873074519405,0.7900473166968272,0.16587255407697038,0.15967877299876987,0.7768458109159811,0.1733563969782728,0.1818228718015692,0.7419827463261511,0.19144435048045366,0.1342452470599212,0.758038192630788,0.18341629114383637,0.14447176883235924,0.7610130815505876,0.18187217125946628,0.17429456540145766,0.800362675925774,0.15978226291070846,0.21440057434603332,0.8042737089818711,0.1574175100224156,0.18862715150421477
13.0,0.0,13.0,0.0,5.0,0.0,5.0,0.0,,,,right,1.326520100235939,541.9203236000612,nx8,539.2829872998409,541.2826307001524,541.9203236000612,,True,2.0,['p'],False,0.16,0.2,0.2,2.0,2.0,0.8198746470064713,-0.031111111111111,unsucc_cost,1.0,0.0,541.2826307001524,,nx8,1,2022-05-05_14h42.09.553,threat_forest,2021.2.3,59.95171492593129,True,63.0,0.2666666666666666,0.3666666666666667,-1.5022222222222226,-1.246666666666667,0,0,1.0,0.2825590473160891,-0.031111111111111,0.16,0.16,0.2,0.2,-0.8000000000000003,-0.5600000000000003,1.4399999999999995,1.4399999999999995,0.0,2.0,-1.0,2.0,0,1,0,0,-0.031111111111111,0.7982359165955736,0.16105533805239805,0.18580345683423838,0.7992466705711139,0.1604514301521033,0.18773785784194175,0.8070847899815095,0.15569893176201224,0.21271205491227152,0.7793103296197055,0.17198573976773152,0.18804269761311,0.7974272412031314,0.1615370361902944,0.19349497011381822,0.7453937027419292,0.18978193065460566,0.16349605441849788,0.7286061975320833,0.19773920644992207,0.12215549334514375,0.7343158150812406,0.19509609880281392,0.11874055977804504,0.7610130815505876,0.18187217125946628,0.17429456540145766,0.8011733911672879,0.15929458845279582,0.2204766512169305,0.7945247857336448,0.1632551505885506,0.20102827871095813
14.0,0.0,14.0,0.0,0.0,0.0,0.0,0.0,546.6636206000112,550.1659359000623,,right,1.12788480008021,551.8651403002441,nx8,546.6636206000112,550.1659359000623,551.8651403002441,,True,4.0,['r'],False,0.2222222222222222,0.6666666666666666,0.6666666666666666,2.0,2.0,0.77250688571426,-0.0834227138822206,figh_cost,1.0,1.0,,,nx8,1,2022-05-05_14h42.09.553,threat_forest,2021.2.3,59.95171492593129,True,49.0,0.5833333333333333,0.4249999999999999,-0.888888888888889,-1.1955555555555557,0,0,1.0,0.1203440202720235,-0.0834227138822206,0.2222222222222222,0.2222222222222222,0.6666666666666666,0.6666666666666666,-0.3333333333333335,-0.7777777777777779,3.2222222222222223,3.2222222222222223,0.0,2.0,-1.0,4.0,0,1,0,0,-0.0834227138822206,0.7982359165955736,0.16105533805239805,0.18580345683423838,0.7992466705711139,0.1604514301521033,0.18773785784194175,0.8070847899815095,0.15569893176201224,0.21271205491227152,0.7793103296197055,0.17198573976773152,0.18804269761311,0.7707425152518692,0.17669849043509128,0.07523857290957925,0.8429496722131119,0.13238552232891906,0.22753619549133852,0.773493244598584,0.17520144515893904,0.16544099258642958,0.758038192630788,0.18341629114383637,0.14447176883235924,0.7610130815505876,0.18187217125946628,0.17429456540145766,0.800362675925774,0.15978226291070846,0.21440057434603332,0.7905510065471328,0.16558011259444802,0.20596728604779874
14.0,0.0,14.0,0.0,1.0,0.0,1.0,0.0,,,,right,0.932046300265938,556.1571185998619,nx8,546.6636206000112,550.1659359000623,556.1571185998619,,True,1.0,['r'],False,0.2222222222222222,0.6666666666666666,0.6666666666666666,2.0,2.0,0.77250688571426,0.0791966735253772,figh_cost,1.0,0.0,555.0328595000319,,nx8,1,2022-05-05_14h42.09.553,threat_forest,2021.2.3,59.95171492593129,True,49.0,0.5833333333333333,0.4249999999999999,-0.888888888888889,-1.1955555555555557,0,0,1.0,-0.0703727871335473,0.0791966735253772,1.0,0.2222222222222222,0.6666666666666666,0.6666666666666666,-0.3333333333333335,-0.7777777777777779,0.2222222222222221,1.0,0.0,2.0,-1.0,1.0,1,1,0,0,0.625,0.7982359165955736,0.16105533805239805,0.18580345683423838,0.7992466705711139,0.1604514301521033,0.18773785784194175,0.736830155259625,0.19391147755970187,0.08825450422465098,0.7793103296197055,0.17198573976773152,0.18804269761311,0.7707425152518692,0.17669849043509128,0.07523857290957925,0.8429496722131119,0.13238552232891906,0.22753619549133852,0.773493244598584,0.17520144515893904,0.16544099258642958,0.758038192630788,0.18341629114383637,0.14447176883235924,0.7610130815505876,0.18187217125946628,0.17429456540145766,0.7900193821324482,0.165888757987513,0.13831798913697524,0.8027201387441689,0.15836051759871111,0.1906304192248079
15.0,0.0,15.0,0.0,0.0,0.0,0.0,0.0,560.6652913000435,564.1723385001533,,left,1.905987299978733,566.1259348001331,nx8,566.1259348001331,,560.6652913000435,564.1723385001533,True,5.0,['r'],True,0.24,0.3,0.2,2.0,2.0,0.9003120349047065,-0.0006443703968158,unsucc_cost,0.0,3.0,,,nx8,1,2022-05-05_14h42.09.553,threat_forest,2021.2.3,59.95171492593129,True,55.0,0.2928571428571428,0.438095238095238,-1.0485714285714285,-0.9687301587301588,0,0,1.0,0.6450001420297132,-0.0006443703968158,0.24,0.24,0.3,0.2,-0.3999999999999999,-0.24,4.76,4.76,1.0,2.0,-1.0,5.0,0,1,0,0,-0.0006443703968158,0.7982359165955736,0.16105533805239805,0.18580345683423838,0.7992466705711139,0.1604514301521033,0.18773785784194175,0.8070847899815095,0.15569893176201224,0.21271205491227152,0.8163223597820337,0.1499401647019257,0.204873074519405,0.7974272412031314,0.1615370361902944,0.19349497011381822,0.7692502810337698,0.17750428616323602,0.1771948573263032,0.7674152972567403,0.17848905879308918,0.15912687843687645,0.7645448878392004,0.1800160023181449,0.15196277768914157,0.7610130815505876,0.18187217125946628,0.17429456540145766,0.8001305877807171,0.15992163027840134,0.21266415607426037,0.7968132629046072,0.1619018869639206,0.19815348808910138
15.0,0.0,15.0,0.0,1.0,0.0,1.0,0.0,,,,right,1.6905494001694024,573.603798400145,nx8,568.0527289998718,570.0665326002054,573.603798400145,,True,3.0,['r'],False,0.2857142857142857,0.2857142857142857,0.0,0.0,2.0,0.5445684476282007,0.0813189773311461,unsucc_cost,1.0,1.0,570.0665326002054,,nx8,1,2022-05-05_14h42.09.553,threat_forest,2021.2.3,59.95171492593129,True,55.0,0.2928571428571428,0.438095238095238,-1.0485714285714285,-0.9687301587301588,1,0,1.0,0.5250535649626833,0.0813189773311461,0.2857142857142857,0.2857142857142857,0.2857142857142857,0.0,0.1428571428571428,0.1428571428571428,3.142857142857143,3.142857142857143,0.0,2.0,-1.0,3.0,0,1,0,1,0.0813189773311461,0.7982359165955736,0.16105533805239805,0.18580345683423838,0.7992466705711139,0.1604514301521033,0.18773785784194175,0.8070847899815095,0.15569893176201224,0.21271205491227152,0.7793103296197055,0.17198573976773152,0.18804269761311,0.8081312136840458,0.15505515515359697,0.244052382755773,0.7659401549176291,0.17927583400238742,0.17521824978506495,0.8136087505977195,0.15164955154853738,0.21067421073271247,0.7807144147289147,0.17119941736340283,0.17138616180978805,0.8420969467607858,0.13296967901694812,0.22308043014602807,0.7995328604577463,0.1602800655060003,0.20819830808736617,0.8028753714186045,0.1582665093880424,0.190430713921651
15.0,0.0,15.0,0.0,2.0,0.0,2.0,0.0,,,,right,1.4258556999266148,580.6582843000069,nx8,568.0527289998718,570.0665326002054,580.6582843000069,,True,1.0,['r'],False,0.2857142857142857,0.2857142857142857,0.0,0.0,2.0,0.5445684476282007,0.0956938695733919,unsucc_cost,1.0,0.0,577.3165502999909,,nx8,1,2022-05-05_14h42.09.553,threat_forest,2021.2.3,59.95171492593129,True,55.0,0.2928571428571428,0.438095238095238,-1.0485714285714285,-0.9687301587301588,1,0,1.0,0.3547721246745035,0.0956938695733919,1.0,0.2857142857142857,0.2857142857142857,0.0,0.1428571428571428,0.1428571428571428,1.1428571428571428,1.1428571428571428,0.0,2.0,-1.0,1.0,1,1,0,1,0.625,0.7982359165955736,0.16105533805239805,0.18580345683423838,0.7992466705711139,0.1604514301521033,0.18773785784194175,0.736830155259625,0.19391147755970187,0.08825450422465098,0.7793103296197055,0.17198573976773152,0.18804269761311,0.8081312136840458,0.15505515515359697,0.244052382755773,0.7659401549176291,0.17927583400238742,0.17521824978506495,0.8136087505977195,0.15164955154853738,0.21067421073271247,0.7807144147289147,0.17119941736340283,0.17138616180978805,0.8420969467607858,0.13296967901694812,0.22308043014602807,0.7900193821324482,0.165888757987513,0.13831798913697524,0.8039243748570027,0.15762997436778012,0.18907849778768543
16.0,0.0,16.0,0.0,0.0,0.0,0.0,0.0,587.4430056000128,590.937655699905,,right,1.657883900217712,593.3204883001745,nx8,587.4430056000128,590.937655699905,593.3204883001745,,True,5.0,['r'],False,0.4285714285714285,0.4285714285714285,0.0,0.0,2.0,0.6216097450797565,0.0526055132283747,succ_gain,1.0,6.0,,,nx8,1,2022-05-05_14h42.09.553,threat_forest,2021.2.3,59.95171492593129,True,52.0,0.4365079365079364,0.3646825396825396,-0.5626102292768962,-0.8055908289241623,1,1,1.0,0.5055420302671665,0.0526055132283747,0.4285714285714285,0.4285714285714285,0.4285714285714285,0.0,0.714285714285714,0.714285714285714,5.7142857142857135,5.7142857142857135,0.0,2.0,-1.0,5.0,0,1,1,1,0.0526055132283747,0.7982359165955736,0.16105533805239805,0.18580345683423838,0.7992466705711139,0.1604514301521033,0.18773785784194175,0.8070847899815095,0.15569893176201224,0.21271205491227152,0.7793103296197055,0.17198573976773152,0.18804269761311,0.8081312136840458,0.15505515515359697,0.244052382755773,0.7975549686672527,0.1614610406214303,0.1950951360673279,0.8542360486112177,0.12451682186431105,0.2627846992145685,0.8260037953406321,0.14372152542350325,0.23192135233015182,0.8420969467607858,0.13296967901694812,0.22308043014602807,0.7976563350362301,0.1614007062127996,0.19423592197365913,0.800767353393407,0.15953899913272543,0.1931339134445258
16.0,0.0,16.0,0.0,1.0,0.0,1.0,0.0,,,,right,2.2937751999124885,597.611716600135,nx8,587.4430056000128,590.937655699905,597.611716600135,,True,6.0,['r'],False,0.4285714285714285,0.4285714285714285,0.0,0.0,2.0,0.6216097450797565,-0.0377659661652755,succ_gain,1.0,6.0,597.0168046001345,,nx8,1,2022-05-05_14h42.09.553,threat_forest,2021.2.3,59.95171492593129,True,52.0,0.4365079365079364,0.3646825396825396,-0.5626102292768962,-0.8055908289241623,1,1,1.0,0.8301990190982637,-0.0377659661652755,0.4285714285714285,0.4285714285714285,0.4285714285714285,0.0,0.714285714285714,0.714285714285714,6.7142857142857135,6.7142857142857135,0.0,2.0,1.0,6.0,0,1,1,1,-0.0377659661652755,0.7936601660816857,0.16376370685687672,0.227655886518078,0.7992466705711139,0.1604514301521033,0.18773785784194175,0.8070847899815095,0.15569893176201224,0.21271205491227152,0.7793103296197055,0.17198573976773152,0.18804269761311,0.8081312136840458,0.15505515515359697,0.244052382755773,0.7975549686672527,0.1614610406214303,0.1950951360673279,0.8542360486112177,0.12451682186431105,0.2627846992145685,0.8260037953406321,0.14372152542350325,0.23192135233015182,0.8420969467607858,0.13296967901694812,0.22308043014602807,0.7976563350362301,0.1614007062127996,0.19423592197365913,0.7940223781224317,0.16355084116322988,0.20165642571468168
16.0,0.0,16.0,0.0,2.0,0.0,2.0,0.0,,,,left,1.1964344000443816,604.0813255999237,nx8,587.4430056000128,590.937655699905,604.0813255999237,,False,6.0,['r'],False,0.4285714285714285,0.4285714285714285,0.0,0.0,2.0,0.6216097450797565,0.0595614313946563,wait_cost,1.0,5.0,601.9334101001732,,nx8,1,2022-05-05_14h42.09.553,threat_forest,2021.2.3,59.95171492593129,False,52.0,0.4365079365079364,0.3646825396825396,-0.5626102292768962,-0.8055908289241623,1,1,0.0,0.1793458003228363,0.0595614313946563,0.4285714285714285,0.4285714285714285,0.4285714285714285,0.0,0.714285714285714,0.714285714285714,6.7142857142857135,6.7142857142857135,0.0,2.0,-1.0,6.0,0,1,1,1,0.0595614313946563,0.7982359165955736,0.16105533805239805,0.18580345683423838,0.7992466705711139,0.1604514301521033,0.18773785784194175,0.8070847899815095,0.15569893176201224,0.21271205491227152,0.7793103296197055,0.17198573976773152,0.18804269761311,0.8081312136840458,0.15505515515359697,0.244052382755773,0.7975549686672527,0.1614610406214303,0.1950951360673279,0.8542360486112177,0.12451682186431105,0.2627846992145685,0.8260037953406321,0.14372152542350325,0.23192135233015182,0.8420969467607858,0.13296967901694812,0.22308043014602807,0.7976563350362301,0.1614007062127996,0.19423592197365913,0.8012795762722719,0.15923061692120039,0.1924788051023637
