miniblock.thisRepN,miniblock.thisTrialN,miniblock.thisN,miniblock.thisIndex,day.thisRepN,day.thisTrialN,day.thisN,day.thisIndex,forest.started,fixation_forest.started,fixation_forest.stopped,key_resp.keys,key_resp.rt,key_resp.started,Subject_ID,weather_left.started,weather_left.stopped,weather_right.started,weather_right.stopped,foraging T/F,in_LP,p/r heuristic,good_weather.T/F,p_succ_correct,p_succ_uncorrected,r_threat,n_oponents,gain_if_succ,weather_entropy,OP_value_difference,action_outcome,forest_side_L=0_R=1,out_LP,fixation_day.started,fixation_day.stopped,participant,session,date,expName,psychopyVersion,frameRate,foraging T/F NaNs,fora_NR,forest_mean_p,mvt_cutoff_p,forest_mean_ev,mvt_cutoff_ev,mvt_policy_eg,mvt_policy_p,fora_response,logRT,optimal policy values,multi-heuristic policy,** $\mathit{p}$ success,* $\mathit{p}$ gain,* $\mathit{r}$ predator,expected gain naive,expected gain correct,expected state no bounds,expected state with bounds,weather type,gain magnitude,win stay lose shift,continuous energy state,** binary energy state,** wait when safe,$\mathit{p}$ success based MVT,marginal value,$\mathit{OP}$ values + cap,win stay lose shift fit,win stay lose shift_uncertain,win stay lose shift_uncertain_fit,** wait when safe fit,** wait when safe_uncertain,** wait when safe_uncertain_fit,** binary energy state fit,** binary energy state_uncertain,** binary energy state_uncertain_fit,weather type fit,weather type_uncertain,weather type_uncertain_fit,* $\mathit{r}$ predator fit,* $\mathit{r}$ predator_uncertain,* $\mathit{r}$ predator_uncertain_fit,* $\mathit{p}$ gain fit,* $\mathit{p}$ gain_uncertain,* $\mathit{p}$ gain_uncertain_fit,expected gain naive fit,expected gain naive_uncertain,expected gain naive_uncertain_fit,** $\mathit{p}$ success fit,** $\mathit{p}$ success_uncertain,** $\mathit{p}$ success_uncertain_fit,marginal value fit,marginal value_uncertain,marginal value_uncertain_fit,multi-heuristic policy fit,multi-heuristic policy_uncertain,multi-heuristic policy_uncertain_fit,optimal policy values fit,optimal policy values_uncertain,optimal policy values_uncertain_fit
0.0,0.0,0.0,0.0,0.0,0.0,0.0,0.0,82.87631889991462,86.37814329983667,,left,1.5075354999862611,87.62500729970634,sd9,87.62500729970634,,82.87631889991462,86.37814329983667,True,4.0,['p'],True,0.24,0.4,0.4,2.0,2.0,0.9801625908629508,0.0188358143999999,succ_gain,0.0,6.0,,,sd9,1,2022-05-04_11h18.28.062,threat_forest,2021.2.3,60.10904981482437,True,65.0,0.3,0.3,-1.5000000000000002,-1.5000000000000002,1,0,1.0,0.4104761982548748,0.0188358143999999,0.24,0.24,0.4,0.4,-0.6000000000000001,-0.4400000000000001,3.56,3.56,1.0,2.0,,4.0,0,1,0,1,0.0188358143999999,,,,0.6655514133393443,0.22259272954134554,0.29487456933554734,0.5841228556416805,0.24292334515868902,0.3081945735185744,0.7243219840824757,0.1996796474573015,0.31235835871851425,0.5895188564229434,0.24198637434472844,0.32713852074452443,0.5919322619612679,0.24154845921068477,0.32278822462653534,0.43996896626962617,0.24639627498926267,0.3500631207084234,0.4455221197056556,0.24703216055863506,0.36502421962806925,0.7894727006443846,0.16620555558164657,0.2561703304627921,0.5416481707644103,0.24826542987197853,0.3694876078178427,0.6627904599235557,0.22349926615787727,0.329626679666152
0.0,0.0,0.0,0.0,1.0,0.0,1.0,0.0,,,,left,1.866110200062394,92.8176218001172,sd9,89.1618500999175,91.16161690000445,92.8176218001172,,False,6.0,['p'],False,0.16,0.2,0.2,2.0,2.0,0.8198746470064713,-0.08017472,wait_cost,1.0,5.0,91.16161690000445,,sd9,1,2022-05-04_11h18.28.062,threat_forest,2021.2.3,60.10904981482437,False,65.0,0.3,0.3,-1.5000000000000002,-1.5000000000000002,0,0,0.0,0.623856157520805,-0.08017472,0.16,0.16,0.2,0.2,-0.8000000000000003,-0.5600000000000003,5.44,5.44,0.0,2.0,1.0,6.0,0,1,0,0,-0.08017472,0.43209437151841296,0.24538882562052067,0.37170971024216226,0.6655514133393443,0.22259272954134554,0.29487456933554734,0.5841228556416805,0.24292334515868902,0.3081945735185744,0.5207012844746447,0.24957145682109982,0.27028481847814567,0.6255566081822892,0.23423553814175913,0.2968983324315202,0.37840022122517314,0.2352134938019132,0.3166526205756547,0.37522529419146217,0.23443127279039283,0.3325105994868069,0.30434901940740333,0.21172069379315536,0.31208147047907503,0.439023644499825,0.24628188406991622,0.3340979749865929,0.43547793883461944,0.2458369036229709,0.36654833405344367,0.49149230605598276,0.24992761914375491,0.36534747386655975
0.0,0.0,0.0,0.0,2.0,0.0,2.0,0.0,,,,left,2.216283100191504,100.17939230008052,sd9,89.1618500999175,91.16161690000445,100.17939230008052,,False,5.0,['p'],False,0.16,0.2,0.2,2.0,2.0,0.8198746470064713,0.0009920000000001,wait_cost,1.0,4.0,96.71169249992818,,sd9,1,2022-05-04_11h18.28.062,threat_forest,2021.2.3,60.10904981482437,False,65.0,0.3,0.3,-1.5000000000000002,-1.5000000000000002,0,0,0.0,0.7958315135193442,0.0009920000000001,0.16,0.16,0.2,0.2,-0.8000000000000003,-0.5600000000000003,4.44,4.44,0.0,2.0,-1.0,5.0,0,1,0,0,0.0009920000000001,0.683822040156407,0.21620945755273635,0.2681818674921389,0.6655514133393443,0.22259272954134554,0.29487456933554734,0.5841228556416805,0.24292334515868902,0.3081945735185744,0.5207012844746447,0.24957145682109982,0.27028481847814567,0.6255566081822892,0.23423553814175913,0.2968983324315202,0.37840022122517314,0.2352134938019132,0.3166526205756547,0.37522529419146217,0.23443127279039283,0.3325105994868069,0.30434901940740333,0.21172069379315536,0.31208147047907503,0.439023644499825,0.24628188406991622,0.3340979749865929,0.43547793883461944,0.2458369036229709,0.36654833405344367,0.6336332249405908,0.2321421611919775,0.3413084925651168
0.0,0.0,0.0,0.0,3.0,0.0,3.0,0.0,,,,right,2.6663869000039995,107.11210529971868,sd9,107.11210529971868,,102.42867740010844,104.42874610004948,False,4.0,['p'],True,0.24,0.4,0.4,2.0,2.0,0.9801625908629508,0.0431999999999999,wait_cost,0.0,3.0,104.42874610004948,,sd9,1,2022-05-04_11h18.28.062,threat_forest,2021.2.3,60.10904981482437,False,65.0,0.3,0.3,-1.5000000000000002,-1.5000000000000002,1,0,0.0,0.9807243350095248,0.0431999999999999,0.24,0.24,0.4,0.4,-0.6000000000000001,-0.4400000000000001,3.56,3.56,1.0,2.0,-1.0,4.0,0,1,0,1,0.0431999999999999,0.683822040156407,0.21620945755273635,0.2681818674921389,0.6655514133393443,0.22259272954134554,0.29487456933554734,0.5841228556416805,0.24292334515868902,0.3081945735185744,0.7243219840824757,0.1996796474573015,0.31235835871851425,0.5895188564229434,0.24198637434472844,0.32713852074452443,0.5919322619612679,0.24154845921068477,0.32278822462653534,0.43996896626962617,0.24639627498926267,0.3500631207084234,0.4455221197056556,0.24703216055863506,0.36502421962806925,0.7894727006443846,0.16620555558164657,0.2561703304627921,0.5416481707644103,0.24826542987197853,0.3694876078178427,0.7006545621829333,0.20973774667517536,0.3110264889698504
0.0,0.0,0.0,0.0,4.0,0.0,4.0,0.0,,,,right,1.6456535998731852,112.41379539994524,sd9,109.79541189968586,111.79514910001308,112.41379539994524,,True,3.0,['p'],False,0.16,0.2,0.2,2.0,2.0,0.8198746470064713,0.0679999999999999,unsucc_cost,1.0,1.0,111.79514910001308,,sd9,1,2022-05-04_11h18.28.062,threat_forest,2021.2.3,60.10904981482437,True,65.0,0.3,0.3,-1.5000000000000002,-1.5000000000000002,0,0,1.0,0.4981376304554719,0.0679999999999999,0.16,0.16,0.2,0.2,-0.8000000000000003,-0.5600000000000003,2.4399999999999995,2.4399999999999995,0.0,2.0,-1.0,3.0,0,1,0,0,0.0679999999999999,0.683822040156407,0.21620945755273635,0.2681818674921389,0.6655514133393443,0.22259272954134554,0.29487456933554734,0.5841228556416805,0.24292334515868902,0.3081945735185744,0.5207012844746447,0.24957145682109982,0.27028481847814567,0.6255566081822892,0.23423553814175913,0.2968983324315202,0.37840022122517314,0.2352134938019132,0.3166526205756547,0.37522529419146217,0.23443127279039283,0.3325105994868069,0.30434901940740333,0.21172069379315536,0.31208147047907503,0.439023644499825,0.24628188406991622,0.3340979749865929,0.43547793883461944,0.2458369036229709,0.36654833405344367,0.7365674469340207,0.19403584305111937,0.28980365801215674
0.0,0.0,0.0,0.0,5.0,0.0,5.0,0.0,,,,right,1.8469727002084253,118.41211909987032,sd9,109.79541189968586,111.79514910001308,118.41211909987032,,True,1.0,['p'],False,0.16,0.2,0.2,2.0,2.0,0.8198746470064713,0.1599999999999999,unsucc_cost,1.0,0.0,116.07858279999346,,sd9,1,2022-05-04_11h18.28.062,threat_forest,2021.2.3,60.10904981482437,True,65.0,0.3,0.3,-1.5000000000000002,-1.5000000000000002,0,0,1.0,0.6135479204952131,0.1599999999999999,1.0,0.16,0.2,0.2,-0.8000000000000003,-0.5600000000000003,0.4399999999999997,1.0,0.0,2.0,-1.0,1.0,1,1,0,0,0.625,0.683822040156407,0.21620945755273635,0.2681818674921389,0.6655514133393443,0.22259272954134554,0.29487456933554734,0.9743929734021234,0.024951306786692256,0.16367025711232736,0.5207012844746447,0.24957145682109982,0.27028481847814567,0.6255566081822892,0.23423553814175913,0.2968983324315202,0.37840022122517314,0.2352134938019132,0.3166526205756547,0.37522529419146217,0.23443127279039283,0.3325105994868069,0.30434901940740333,0.21172069379315536,0.31208147047907503,0.439023644499825,0.24628188406991622,0.3340979749865929,0.9854981529216759,0.014291543509641094,0.08630627262728703,0.843926009830317,0.1317148997621968,0.20557012326300084
1.0,0.0,1.0,0.0,0.0,0.0,0.0,0.0,125.3225227999501,128.82885359972715,,left,2.020999999716878,129.59668840002269,sd9,129.59668840002269,,125.3225227999501,128.82885359972715,True,5.0,['r'],True,0.4081632653061224,0.5714285714285714,0.2857142857142857,2.0,2.0,0.9885754083994552,-0.0170150236195817,succ_gain,0.0,6.0,,,sd9,1,2022-05-04_11h18.28.062,threat_forest,2021.2.3,60.10904981482437,True,14.0,0.5357142857142857,0.4178571428571428,-0.326530612244898,-0.9132653061224492,1,0,1.0,0.7035924382813938,-0.0170150236195817,0.4081632653061224,0.4081632653061224,0.5714285714285714,0.2857142857142857,0.4285714285714285,0.346938775510204,5.346938775510204,5.346938775510204,1.0,2.0,-1.0,5.0,0,1,0,1,-0.0170150236195817,0.683822040156407,0.21620945755273635,0.2681818674921389,0.6655514133393443,0.22259272954134554,0.29487456933554734,0.5841228556416805,0.24292334515868902,0.3081945735185744,0.7243219840824757,0.1996796474573015,0.31235835871851425,0.6102565406960514,0.2378434952337399,0.3109749170773085,0.753286663908668,0.18584586588601745,0.2688385918828169,0.7576727447015711,0.18360475663795905,0.2579486822754005,0.742506225219157,0.19119073072995552,0.2813007416095604,0.7894727006443846,0.16620555558164657,0.2561703304627921,0.7433648090550868,0.1907735697135811,0.2999045360684119,0.6031832032647865,0.2393532265640178,0.35105503190708726
1.0,0.0,1.0,0.0,1.0,0.0,1.0,0.0,,,,right,1.958077100105584,136.76290579978377,sd9,136.76290579978377,,125.3225227999501,128.82885359972715,False,6.0,['r'],True,0.4081632653061224,0.5714285714285714,0.2857142857142857,2.0,2.0,0.9885754083994552,-0.0789184913550894,wait_cost,0.0,5.0,133.64556539990008,,sd9,1,2022-05-04_11h18.28.062,threat_forest,2021.2.3,60.10904981482437,False,14.0,0.5357142857142857,0.4178571428571428,-0.326530612244898,-0.9132653061224492,1,0,0.0,0.6719629203022102,-0.0789184913550894,0.4081632653061224,0.4081632653061224,0.5714285714285714,0.2857142857142857,0.4285714285714285,0.346938775510204,6.346938775510204,6.346938775510204,1.0,2.0,1.0,6.0,0,1,0,1,-0.0789184913550894,0.43209437151841296,0.24538882562052067,0.37170971024216226,0.6655514133393443,0.22259272954134554,0.29487456933554734,0.5841228556416805,0.24292334515868902,0.3081945735185744,0.7243219840824757,0.1996796474573015,0.31235835871851425,0.6102565406960514,0.2378434952337399,0.3109749170773085,0.753286663908668,0.18584586588601745,0.2688385918828169,0.7576727447015711,0.18360475663795905,0.2579486822754005,0.742506225219157,0.19119073072995552,0.2813007416095604,0.7894727006443846,0.16620555558164657,0.2561703304627921,0.7433648090550868,0.1907735697135811,0.2999045360684119,0.49374322988432556,0.24996085282771965,0.3653923928059299
1.0,0.0,1.0,0.0,2.0,0.0,2.0,0.0,,,,left,2.2479153000749648,141.54616970010102,sd9,141.54616970010102,,125.3225227999501,128.82885359972715,True,5.0,['r'],True,0.4081632653061224,0.5714285714285714,0.2857142857142857,2.0,2.0,0.9885754083994552,-0.0126763486945585,succ_gain,0.0,6.0,140.74557919986546,,sd9,1,2022-05-04_11h18.28.062,threat_forest,2021.2.3,60.10904981482437,True,14.0,0.5357142857142857,0.4178571428571428,-0.326530612244898,-0.9132653061224492,1,0,1.0,0.8100032534190189,-0.0126763486945585,0.4081632653061224,0.4081632653061224,0.5714285714285714,0.2857142857142857,0.4285714285714285,0.346938775510204,5.346938775510204,5.346938775510204,1.0,2.0,-1.0,5.0,0,1,0,1,-0.0126763486945585,0.683822040156407,0.21620945755273635,0.2681818674921389,0.6655514133393443,0.22259272954134554,0.29487456933554734,0.5841228556416805,0.24292334515868902,0.3081945735185744,0.7243219840824757,0.1996796474573015,0.31235835871851425,0.6102565406960514,0.2378434952337399,0.3109749170773085,0.753286663908668,0.18584586588601745,0.2688385918828169,0.7576727447015711,0.18360475663795905,0.2579486822754005,0.742506225219157,0.19119073072995552,0.2813007416095604,0.7894727006443846,0.16620555558164657,0.2561703304627921,0.7433648090550868,0.1907735697135811,0.2999045360684119,0.6106034347581221,0.23776688021970582,0.34891091224416243
1.0,0.0,1.0,0.0,3.0,0.0,3.0,0.0,,,,right,1.3006661999970677,146.3792655998841,sd9,143.81260140007362,145.81580170011148,146.3792655998841,,True,6.0,['r'],False,0.5,0.5,0.0,0.0,2.0,0.6309297535714574,-0.1443864535610162,unsucc_cost,1.0,4.0,145.81580170011148,,sd9,1,2022-05-04_11h18.28.062,threat_forest,2021.2.3,60.10904981482437,True,14.0,0.5357142857142857,0.4178571428571428,-0.326530612244898,-0.9132653061224492,1,1,1.0,0.262876594740127,-0.1443864535610162,0.0,0.5,0.5,0.0,1.0,1.0,7.0,7.0,0.0,2.0,1.0,6.0,0,0,1,1,-0.84,0.43209437151841296,0.24538882562052067,0.37170971024216226,0.41818175526389084,0.24330577482830215,0.27812608098915076,0.5841228556416805,0.24292334515868902,0.3081945735185744,0.5207012844746447,0.24957145682109982,0.27028481847814567,0.6602538518217096,0.22431870297630555,0.2582074150879884,0.6912800656217636,0.21341193649573384,0.2955371582657761,0.8707181937138972,0.11256802084950532,0.15373860427316052,0.8528174635275158,0.12551983743001,0.1828398746775677,0.7894727006443846,0.16620555558164657,0.2561703304627921,0.24739297554373674,0.1861896911953528,0.2943566142070253,0.3788678850375708,0.23532701072472878,0.3456131631883473
1.0,0.0,1.0,0.0,4.0,0.0,4.0,0.0,,,,left,2.1779267000965774,151.5629477999173,sd9,151.5629477999173,,147.7126747998409,149.7123751998879,True,4.0,['r'],True,0.4081632653061224,0.5714285714285714,0.2857142857142857,2.0,2.0,0.9885754083994552,0.0468294460641399,unsucc_cost,0.0,2.0,149.7123751998879,,sd9,1,2022-05-04_11h18.28.062,threat_forest,2021.2.3,60.10904981482437,True,14.0,0.5357142857142857,0.4178571428571428,-0.326530612244898,-0.9132653061224492,1,0,1.0,0.77837336925967,0.0468294460641399,0.4081632653061224,0.4081632653061224,0.5714285714285714,0.2857142857142857,0.4285714285714285,0.346938775510204,4.346938775510204,4.346938775510204,1.0,2.0,-1.0,4.0,0,1,0,1,0.0468294460641399,0.683822040156407,0.21620945755273635,0.2681818674921389,0.6655514133393443,0.22259272954134554,0.29487456933554734,0.5841228556416805,0.24292334515868902,0.3081945735185744,0.7243219840824757,0.1996796474573015,0.31235835871851425,0.6102565406960514,0.2378434952337399,0.3109749170773085,0.753286663908668,0.18584586588601745,0.2688385918828169,0.7576727447015711,0.18360475663795905,0.2579486822754005,0.742506225219157,0.19119073072995552,0.2813007416095604,0.7894727006443846,0.16620555558164657,0.2561703304627921,0.7433648090550868,0.1907735697135811,0.2999045360684119,0.7060830469149632,0.2075297777742451,0.3080421787953505
1.0,0.0,1.0,0.0,5.0,0.0,5.0,0.0,,,,right,1.027335399761796,156.62938439985737,sd9,153.76271519996226,155.76246060011908,156.62938439985737,,True,2.0,['r'],False,0.5,0.5,0.0,0.0,2.0,0.6309297535714574,0.0459183673469387,succ_gain,1.0,4.0,155.76246060011908,,sd9,1,2022-05-04_11h18.28.062,threat_forest,2021.2.3,60.10904981482437,True,14.0,0.5357142857142857,0.4178571428571428,-0.326530612244898,-0.9132653061224492,1,1,1.0,0.0269684596766518,0.0459183673469387,0.5,0.5,0.5,0.0,1.0,1.0,3.0,3.0,0.0,2.0,-1.0,2.0,0,1,1,1,0.0459183673469387,0.683822040156407,0.21620945755273635,0.2681818674921389,0.6655514133393443,0.22259272954134554,0.29487456933554734,0.5841228556416805,0.24292334515868902,0.3081945735185744,0.5207012844746447,0.24957145682109982,0.27028481847814567,0.6602538518217096,0.22431870297630555,0.2582074150879884,0.6912800656217636,0.21341193649573384,0.2955371582657761,0.8707181937138972,0.11256802084950532,0.15373860427316052,0.8528174635275158,0.12551983743001,0.1828398746775677,0.7894727006443846,0.16620555558164657,0.2561703304627921,0.8253686624050547,0.14413523352474553,0.24345761150620826,0.7047257738026832,0.2080873575408926,0.3087958085090663
1.0,0.0,1.0,0.0,6.0,0.0,6.0,0.0,,,,right,1.9753311001695693,160.91426400002092,sd9,160.91426400002092,,157.6795429000631,159.6792532997206,False,4.0,['r'],True,0.4081632653061224,0.5714285714285714,0.2857142857142857,2.0,2.0,0.9885754083994552,-0.1559766763848396,wait_cost,0.0,3.0,159.6792532997206,,sd9,1,2022-05-04_11h18.28.062,threat_forest,2021.2.3,60.10904981482437,False,14.0,0.5357142857142857,0.4178571428571428,-0.326530612244898,-0.9132653061224492,1,0,0.0,0.6807360299576007,-0.1559766763848396,0.0,0.4081632653061224,0.5714285714285714,0.2857142857142857,0.4285714285714285,0.346938775510204,4.346938775510204,4.346938775510204,1.0,2.0,1.0,4.0,0,0,0,1,-0.84,0.43209437151841296,0.24538882562052067,0.37170971024216226,0.41818175526389084,0.24330577482830215,0.27812608098915076,0.5841228556416805,0.24292334515868902,0.3081945735185744,0.7243219840824757,0.1996796474573015,0.31235835871851425,0.6102565406960514,0.2378434952337399,0.3109749170773085,0.753286663908668,0.18584586588601745,0.2688385918828169,0.7576727447015711,0.18360475663795905,0.2579486822754005,0.742506225219157,0.19119073072995552,0.2813007416095604,0.7894727006443846,0.16620555558164657,0.2561703304627921,0.24739297554373674,0.1861896911953528,0.2943566142070253,0.3595208399611978,0.23026560559479256,0.3387721235250754
1.0,0.0,1.0,0.0,7.0,0.0,7.0,0.0,,,,left,1.4830363001674414,167.74643900012595,sd9,167.74643900012595,,157.6795429000631,159.6792532997206,True,3.0,['r'],True,0.4081632653061224,0.5714285714285714,0.2857142857142857,2.0,2.0,0.9885754083994552,-0.2857142857142857,succ_gain,0.0,5.0,164.91269289981574,,sd9,1,2022-05-04_11h18.28.062,threat_forest,2021.2.3,60.10904981482437,True,14.0,0.5357142857142857,0.4178571428571428,-0.326530612244898,-0.9132653061224492,1,0,1.0,0.3940915403797866,-0.2857142857142857,0.0,0.4081632653061224,0.5714285714285714,0.2857142857142857,0.4285714285714285,0.346938775510204,3.346938775510204,3.346938775510204,1.0,2.0,-1.0,3.0,0,0,0,1,-0.84,0.683822040156407,0.21620945755273635,0.2681818674921389,0.41818175526389084,0.24330577482830215,0.27812608098915076,0.5841228556416805,0.24292334515868902,0.3081945735185744,0.7243219840824757,0.1996796474573015,0.31235835871851425,0.6102565406960514,0.2378434952337399,0.3109749170773085,0.753286663908668,0.18584586588601745,0.2688385918828169,0.7576727447015711,0.18360475663795905,0.2579486822754005,0.742506225219157,0.19119073072995552,0.2813007416095604,0.7894727006443846,0.16620555558164657,0.2561703304627921,0.24739297554373674,0.1861896911953528,0.2943566142070253,0.18130815457011684,0.14843550765649546,0.22816984386674471
2.0,0.0,2.0,0.0,0.0,0.0,0.0,0.0,173.81830899976194,177.32951840013266,,left,2.2931665000505745,179.79657429968938,sd9,173.81830899976194,177.32951840013266,179.79657429968938,,False,4.0,['p'],False,0.2448979591836734,0.2857142857142857,0.1428571428571428,1.0,1.0,0.8400769154957735,0.0039960293469888,wait_cost,1.0,3.0,,,sd9,1,2022-05-04_11h18.28.062,threat_forest,2021.2.3,60.10904981482437,False,13.0,0.4761904761904761,0.5059523809523809,-1.2040816326530612,-0.7653061224489797,0,0,0.0,0.8299336135599757,0.0039960293469888,0.2448979591836734,0.2448979591836734,0.2857142857142857,0.1428571428571428,-0.5714285714285712,-0.4081632653061224,3.591836734693877,3.591836734693877,0.0,1.0,1.0,4.0,0,1,0,0,0.0039960293469888,0.43209437151841296,0.24538882562052067,0.37170971024216226,0.6655514133393443,0.22259272954134554,0.29487456933554734,0.5841228556416805,0.24292334515868902,0.3081945735185744,0.5207012844746447,0.24957145682109982,0.27028481847814567,0.635621057034996,0.23160692888871037,0.28664271139503794,0.4689863294337522,0.24903815223800826,0.33004221701845426,0.4494433752761748,0.24744402769653437,0.35160016193279775,0.4547337601249326,0.24795096752757287,0.3664017938646732,0.439023644499825,0.24628188406991622,0.3340979749865929,0.5481237545065059,0.2476841042521975,0.3687840226111794,0.6386179469002917,0.23078506479714792,0.3394742291490149
2.0,0.0,2.0,0.0,1.0,0.0,1.0,0.0,,,,right,1.6062583001330497,186.66389299975708,sd9,173.81830899976194,177.32951840013266,186.66389299975708,,True,3.0,['p'],False,0.2448979591836734,0.2857142857142857,0.1428571428571428,1.0,1.0,0.8400769154957735,0.0187494644994601,unsucc_cost,1.0,1.0,184.1128907999955,,sd9,1,2022-05-04_11h18.28.062,threat_forest,2021.2.3,60.10904981482437,True,13.0,0.4761904761904761,0.5059523809523809,-1.2040816326530612,-0.7653061224489797,0,0,1.0,0.4739074370460495,0.0187494644994601,0.2448979591836734,0.2448979591836734,0.2857142857142857,0.1428571428571428,-0.5714285714285712,-0.4081632653061224,2.591836734693877,2.591836734693877,0.0,1.0,-1.0,3.0,0,1,0,0,0.0187494644994601,0.683822040156407,0.21620945755273635,0.2681818674921389,0.6655514133393443,0.22259272954134554,0.29487456933554734,0.5841228556416805,0.24292334515868902,0.3081945735185744,0.5207012844746447,0.24957145682109982,0.27028481847814567,0.635621057034996,0.23160692888871037,0.28664271139503794,0.4689863294337522,0.24903815223800826,0.33004221701845426,0.4494433752761748,0.24744402769653437,0.35160016193279775,0.4547337601249326,0.24795096752757287,0.3664017938646732,0.439023644499825,0.24628188406991622,0.3340979749865929,0.5481237545065059,0.2476841042521975,0.3687840226111794,0.6626520939796401,0.22354429632403838,0.32968754283454965
2.0,0.0,2.0,0.0,2.0,0.0,2.0,0.0,,,,right,1.434326000045985,193.33061659988016,sd9,173.81830899976194,177.32951840013266,193.33061659988016,,True,1.0,['p'],False,0.2448979591836734,0.2857142857142857,0.1428571428571428,1.0,1.0,0.8400769154957735,0.040304492726213,figh_cost,1.0,0.0,190.29636829998344,,sd9,1,2022-05-04_11h18.28.062,threat_forest,2021.2.3,60.10904981482437,True,13.0,0.4761904761904761,0.5059523809523809,-1.2040816326530612,-0.7653061224489797,0,0,1.0,0.3606950524952819,0.040304492726213,1.0,0.2448979591836734,0.2857142857142857,0.1428571428571428,-0.5714285714285712,-0.4081632653061224,0.5918367346938775,1.0,0.0,1.0,-1.0,1.0,1,1,0,0,0.625,0.683822040156407,0.21620945755273635,0.2681818674921389,0.6655514133393443,0.22259272954134554,0.29487456933554734,0.9743929734021234,0.024951306786692256,0.16367025711232736,0.5207012844746447,0.24957145682109982,0.27028481847814567,0.635621057034996,0.23160692888871037,0.28664271139503794,0.4689863294337522,0.24903815223800826,0.33004221701845426,0.4494433752761748,0.24744402769653437,0.35160016193279775,0.4547337601249326,0.24795096752757287,0.3664017938646732,0.439023644499825,0.24628188406991622,0.3340979749865929,0.9854981529216759,0.014291543509641094,0.08630627262728703,0.6962829084676817,0.21147301984346764,0.3133718994371308
3.0,0.0,3.0,0.0,0.0,0.0,0.0,0.0,199.50478389998892,203.01319039985532,,right,0.8223347999155521,204.89692460000515,sd9,199.50478389998892,203.01319039985532,204.89692460000515,,True,4.0,['r'],False,0.3333333333333333,0.3333333333333333,0.0,0.0,2.0,0.5793801642856949,0.0326749431231451,succ_gain,1.0,6.0,,,sd9,1,2022-05-04_11h18.28.062,threat_forest,2021.2.3,60.10904981482437,True,10.0,0.3541666666666666,0.4151785714285714,-0.8958333333333335,-1.0499574829931977,1,0,1.0,-0.1956076676824088,0.0326749431231451,0.3333333333333333,0.3333333333333333,0.3333333333333333,0.0,0.3333333333333331,0.3333333333333331,4.333333333333333,4.333333333333333,0.0,2.0,-1.0,4.0,0,1,0,1,0.0326749431231451,0.683822040156407,0.21620945755273635,0.2681818674921389,0.6655514133393443,0.22259272954134554,0.29487456933554734,0.5841228556416805,0.24292334515868902,0.3081945735185744,0.5207012844746447,0.24957145682109982,0.27028481847814567,0.6602538518217096,0.22431870297630555,0.2582074150879884,0.5206194675728913,0.24957483755701051,0.33056201285076603,0.7334248389393061,0.19551284456615903,0.2754177109136358,0.6202073444497638,0.23555019434033583,0.34780922084962973,0.7894727006443846,0.16620555558164657,0.2561703304627921,0.6602885401962016,0.22430758388177072,0.34049114619865906,0.6845938479610981,0.215925111294915,0.3193893853767021
3.0,0.0,3.0,0.0,1.0,0.0,1.0,0.0,,,,right,2.333380399737507,208.66363429976627,sd9,199.50478389998892,203.01319039985532,208.66363429976627,,True,6.0,['r'],False,0.3333333333333333,0.3333333333333333,0.0,0.0,2.0,0.5793801642856949,-0.059542589226868,unsucc_cost,1.0,4.0,207.7465138998814,,sd9,1,2022-05-04_11h18.28.062,threat_forest,2021.2.3,60.10904981482437,True,10.0,0.3541666666666666,0.4151785714285714,-0.8958333333333335,-1.0499574829931977,1,0,1.0,0.8473180314998399,-0.059542589226868,0.3333333333333333,0.3333333333333333,0.3333333333333333,0.0,0.3333333333333331,0.3333333333333331,6.333333333333333,6.333333333333333,0.0,2.0,1.0,6.0,0,1,0,1,-0.059542589226868,0.43209437151841296,0.24538882562052067,0.37170971024216226,0.6655514133393443,0.22259272954134554,0.29487456933554734,0.5841228556416805,0.24292334515868902,0.3081945735185744,0.5207012844746447,0.24957145682109982,0.27028481847814567,0.6602538518217096,0.22431870297630555,0.2582074150879884,0.5206194675728913,0.24957483755701051,0.33056201285076603,0.7334248389393061,0.19551284456615903,0.2754177109136358,0.6202073444497638,0.23555019434033583,0.34780922084962973,0.7894727006443846,0.16620555558164657,0.2561703304627921,0.6602885401962016,0.22430758388177072,0.34049114619865906,0.5284377556422738,0.24919129405403034,0.3643522504030052
3.0,0.0,3.0,0.0,2.0,0.0,2.0,0.0,,,,right,1.1795191997662189,216.4472288000397,sd9,199.50478389998892,203.01319039985532,216.4472288000397,,True,4.0,['r'],False,0.3333333333333333,0.3333333333333333,0.0,0.0,2.0,0.5793801642856949,0.050074399989328,unsucc_cost,1.0,2.0,213.01338389981532,,sd9,1,2022-05-04_11h18.28.062,threat_forest,2021.2.3,60.10904981482437,True,10.0,0.3541666666666666,0.4151785714285714,-0.8958333333333335,-1.0499574829931977,1,0,1.0,0.1651068976188396,0.050074399989328,0.3333333333333333,0.3333333333333333,0.3333333333333333,0.0,0.3333333333333331,0.3333333333333331,4.333333333333333,4.333333333333333,0.0,2.0,-1.0,4.0,0,1,0,1,0.050074399989328,0.683822040156407,0.21620945755273635,0.2681818674921389,0.6655514133393443,0.22259272954134554,0.29487456933554734,0.5841228556416805,0.24292334515868902,0.3081945735185744,0.5207012844746447,0.24957145682109982,0.27028481847814567,0.6602538518217096,0.22431870297630555,0.2582074150879884,0.5206194675728913,0.24957483755701051,0.33056201285076603,0.7334248389393061,0.19551284456615903,0.2754177109136358,0.6202073444497638,0.23555019434033583,0.34780922084962973,0.7894727006443846,0.16620555558164657,0.2561703304627921,0.6602885401962016,0.22430758388177072,0.34049114619865906,0.7108874556153175,0.2055264810640975,0.30533450535297685
3.0,0.0,3.0,0.0,3.0,0.0,3.0,0.0,,,,right,2.704570699948817,223.3973372001201,sd9,223.3973372001201,,217.64696089969948,219.6468539997004,False,2.0,['r'],True,0.28125,0.375,0.25,2.0,2.0,0.9634951148421658,0.0003368236400462,wait_cost,0.0,1.0,219.6468539997004,,sd9,1,2022-05-04_11h18.28.062,threat_forest,2021.2.3,60.10904981482437,False,10.0,0.3541666666666666,0.4151785714285714,-0.8958333333333335,-1.0499574829931977,0,0,0.0,0.9949431935845594,0.0003368236400462,0.28125,0.28125,0.375,0.25,-0.25,-0.125,1.875,1.875,1.0,2.0,-1.0,2.0,0,1,0,0,0.0003368236400462,0.683822040156407,0.21620945755273635,0.2681818674921389,0.6655514133393443,0.22259272954134554,0.29487456933554734,0.5841228556416805,0.24292334515868902,0.3081945735185744,0.7243219840824757,0.1996796474573015,0.31235835871851425,0.6166599001403831,0.23639046769923586,0.30530587374872553,0.5654770971644388,0.24571274974691865,0.3268214649419099,0.5569322311437979,0.24675872105698918,0.3505948249396238,0.523648534481482,0.24944074681687817,0.3686354312189324,0.439023644499825,0.24628188406991622,0.3340979749865929,0.5955365365803655,0.24087277017822853,0.3605401852005873,0.632542207659796,0.23243256318866753,0.34170100245647084
3.0,0.0,3.0,0.0,4.0,0.0,4.0,0.0,,,,left,1.3344108001329005,229.19716579979288,sd9,229.19716579979288,,217.64696089969948,219.6468539997004,True,1.0,['r'],True,0.28125,0.375,0.25,2.0,2.0,0.9634951148421658,0.1354904174804687,unsucc_cost,0.0,0.0,228.1302517997101,,sd9,1,2022-05-04_11h18.28.062,threat_forest,2021.2.3,60.10904981482437,True,10.0,0.3541666666666666,0.4151785714285714,-0.8958333333333335,-1.0499574829931977,0,0,1.0,0.2884898462143676,0.1354904174804687,1.0,0.28125,0.375,0.25,-0.25,-0.125,0.875,1.0,1.0,2.0,-1.0,1.0,1,1,0,0,0.625,0.683822040156407,0.21620945755273635,0.2681818674921389,0.6655514133393443,0.22259272954134554,0.29487456933554734,0.9743929734021234,0.024951306786692256,0.16367025711232736,0.7243219840824757,0.1996796474573015,0.31235835871851425,0.6166599001403831,0.23639046769923586,0.30530587374872553,0.5654770971644388,0.24571274974691865,0.3268214649419099,0.5569322311437979,0.24675872105698918,0.3505948249396238,0.523648534481482,0.24944074681687817,0.3686354312189324,0.439023644499825,0.24628188406991622,0.3340979749865929,0.9854981529216759,0.014291543509641094,0.08630627262728703,0.8193618451828583,0.14800801184140003,0.22759203676538203
4.0,0.0,4.0,0.0,0.0,0.0,0.0,0.0,234.7034104997292,238.21373969968408,,left,1.268680399749428,239.2645332999528,sd9,239.2645332999528,,234.7034104997292,238.21373969968408,True,5.0,['r'],True,0.5,0.5,0.0,0.0,1.0,0.6309297535714574,0.0653299800297634,succ_gain,0.0,6.0,,,sd9,1,2022-05-04_11h18.28.062,threat_forest,2021.2.3,60.10904981482437,True,35.0,0.5357142857142857,0.4449404761904761,-0.7806122448979592,-0.8382227891156464,1,1,1.0,0.2379773049628891,0.0653299800297634,0.5,0.5,0.5,0.0,0.5,0.5,5.5,5.5,1.0,1.0,-1.0,5.0,0,1,1,1,0.0653299800297634,0.683822040156407,0.21620945755273635,0.2681818674921389,0.6655514133393443,0.22259272954134554,0.29487456933554734,0.5841228556416805,0.24292334515868902,0.3081945735185744,0.7243219840824757,0.1996796474573015,0.31235835871851425,0.6602538518217096,0.22431870297630555,0.2582074150879884,0.6912800656217636,0.21341193649573384,0.2955371582657761,0.7748465117095872,0.17445939500107172,0.2445325414721849,0.8528174635275158,0.12551983743001,0.1828398746775677,0.7894727006443846,0.16620555558164657,0.2561703304627921,0.8253686624050547,0.14413523352474553,0.24345761150620826,0.732836649535345,0.19578709463315486,0.2921706650439024
4.0,0.0,4.0,0.0,1.0,0.0,1.0,0.0,,,,left,2.605427899863571,244.4325767001137,sd9,240.5640340000391,242.5638530999422,244.4325767001137,,False,6.0,['r'],False,0.4081632653061224,0.5714285714285714,0.2857142857142857,2.0,1.0,0.9885754083994552,-0.1076532809956411,wait_cost,1.0,5.0,242.5638530999422,,sd9,1,2022-05-04_11h18.28.062,threat_forest,2021.2.3,60.10904981482437,False,35.0,0.5357142857142857,0.4449404761904761,-0.7806122448979592,-0.8382227891156464,0,0,0.0,0.9575969227000682,-0.1076532809956411,0.4081632653061224,0.4081632653061224,0.5714285714285714,0.2857142857142857,-0.1428571428571428,-0.0612244897959184,5.938775510204081,5.938775510204081,0.0,1.0,1.0,6.0,0,1,0,0,-0.1076532809956411,0.43209437151841296,0.24538882562052067,0.37170971024216226,0.6655514133393443,0.22259272954134554,0.29487456933554734,0.5841228556416805,0.24292334515868902,0.3081945735185744,0.5207012844746447,0.24957145682109982,0.27028481847814567,0.6102565406960514,0.2378434952337399,0.3109749170773085,0.753286663908668,0.18584586588601745,0.2688385918828169,0.5920873425145609,0.241519921348606,0.34290956575380604,0.742506225219157,0.19119073072995552,0.2813007416095604,0.439023644499825,0.24628188406991622,0.3340979749865929,0.7433648090550868,0.1907735697135811,0.2999045360684119,0.44249980118681714,0.24669372713644444,0.36097651700363265
4.0,0.0,4.0,0.0,2.0,0.0,2.0,0.0,,,,left,1.595095600001514,250.6308512999676,sd9,240.5640340000391,242.5638530999422,250.6308512999676,,False,5.0,['r'],False,0.4081632653061224,0.5714285714285714,0.2857142857142857,2.0,1.0,0.9885754083994552,-0.0007263192497883,wait_cost,1.0,4.0,249.063919799868,,sd9,1,2022-05-04_11h18.28.062,threat_forest,2021.2.3,60.10904981482437,False,35.0,0.5357142857142857,0.4449404761904761,-0.7806122448979592,-0.8382227891156464,0,0,0.0,0.4669336717456638,-0.0007263192497883,0.4081632653061224,0.4081632653061224,0.5714285714285714,0.2857142857142857,-0.1428571428571428,-0.0612244897959184,4.938775510204081,4.938775510204081,0.0,1.0,-1.0,5.0,0,1,0,0,-0.0007263192497883,0.683822040156407,0.21620945755273635,0.2681818674921389,0.6655514133393443,0.22259272954134554,0.29487456933554734,0.5841228556416805,0.24292334515868902,0.3081945735185744,0.5207012844746447,0.24957145682109982,0.27028481847814567,0.6102565406960514,0.2378434952337399,0.3109749170773085,0.753286663908668,0.18584586588601745,0.2688385918828169,0.5920873425145609,0.241519921348606,0.34290956575380604,0.742506225219157,0.19119073072995552,0.2813007416095604,0.439023644499825,0.24628188406991622,0.3340979749865929,0.7433648090550868,0.1907735697135811,0.2999045360684119,0.6307689454776352,0.23289948289866724,0.34233209524072133
4.0,0.0,4.0,0.0,3.0,0.0,3.0,0.0,,,,left,1.4425675002858045,256.6644007000141,sd9,256.6644007000141,,252.24772559991104,254.2472656001337,True,4.0,['r'],True,0.5,0.5,0.0,0.0,1.0,0.6309297535714574,0.1019744111722156,succ_gain,0.0,5.0,254.2472656001337,,sd9,1,2022-05-04_11h18.28.062,threat_forest,2021.2.3,60.10904981482437,True,35.0,0.5357142857142857,0.4449404761904761,-0.7806122448979592,-0.8382227891156464,1,1,1.0,0.3664245122642777,0.1019744111722156,0.5,0.5,0.5,0.0,0.5,0.5,4.5,4.5,1.0,1.0,-1.0,4.0,0,1,1,1,0.1019744111722156,0.683822040156407,0.21620945755273635,0.2681818674921389,0.6655514133393443,0.22259272954134554,0.29487456933554734,0.5841228556416805,0.24292334515868902,0.3081945735185744,0.7243219840824757,0.1996796474573015,0.31235835871851425,0.6602538518217096,0.22431870297630555,0.2582074150879884,0.6912800656217636,0.21341193649573384,0.2955371582657761,0.7748465117095872,0.17445939500107172,0.2445325414721849,0.8528174635275158,0.12551983743001,0.1828398746775677,0.7894727006443846,0.16620555558164657,0.2561703304627921,0.8253686624050547,0.14413523352474553,0.24345761150620826,0.7810438456354482,0.17101435683043834,0.25868761487787967
4.0,0.0,4.0,0.0,4.0,0.0,4.0,0.0,,,,left,1.5011655003763735,261.5143101997673,sd9,261.5143101997673,,252.24772559991104,254.2472656001337,True,5.0,['r'],True,0.5,0.5,0.0,0.0,1.0,0.6309297535714574,-0.1814478342357351,unsucc_cost,0.0,3.0,260.1308447998017,,sd9,1,2022-05-04_11h18.28.062,threat_forest,2021.2.3,60.10904981482437,True,35.0,0.5357142857142857,0.4449404761904761,-0.7806122448979592,-0.8382227891156464,1,1,1.0,0.40624180665066,-0.1814478342357351,0.0,0.5,0.5,0.0,0.5,0.5,5.5,5.5,1.0,1.0,1.0,5.0,0,0,1,1,-0.84,0.43209437151841296,0.24538882562052067,0.37170971024216226,0.41818175526389084,0.24330577482830215,0.27812608098915076,0.5841228556416805,0.24292334515868902,0.3081945735185744,0.7243219840824757,0.1996796474573015,0.31235835871851425,0.6602538518217096,0.22431870297630555,0.2582074150879884,0.6912800656217636,0.21341193649573384,0.2955371582657761,0.7748465117095872,0.17445939500107172,0.2445325414721849,0.8528174635275158,0.12551983743001,0.1828398746775677,0.7894727006443846,0.16620555558164657,0.2561703304627921,0.24739297554373674,0.1861896911953528,0.2943566142070253,0.3186370354292159,0.21710747508209652,0.32098747866441074
4.0,0.0,4.0,0.0,6.0,0.0,6.0,0.0,,,,left,1.167505099903792,277.49792280001566,sd9,277.49792280001566,,271.84785429993644,273.8476084000431,True,2.0,['r'],True,0.5,0.5,0.0,0.0,1.0,0.6309297535714574,0.0459183673469387,unsucc_cost,0.0,0.0,273.8476084000431,,sd9,1,2022-05-04_11h18.28.062,threat_forest,2021.2.3,60.10904981482437,True,35.0,0.5357142857142857,0.4449404761904761,-0.7806122448979592,-0.8382227891156464,1,1,1.0,0.1548690787773206,0.0459183673469387,0.5,0.5,0.5,0.0,0.5,0.5,2.5,2.5,1.0,1.0,-1.0,2.0,0,1,1,1,0.0459183673469387,0.683822040156407,0.21620945755273635,0.2681818674921389,0.6655514133393443,0.22259272954134554,0.29487456933554734,0.5841228556416805,0.24292334515868902,0.3081945735185744,0.7243219840824757,0.1996796474573015,0.31235835871851425,0.6602538518217096,0.22431870297630555,0.2582074150879884,0.6912800656217636,0.21341193649573384,0.2955371582657761,0.7748465117095872,0.17445939500107172,0.2445325414721849,0.8528174635275158,0.12551983743001,0.1828398746775677,0.7894727006443846,0.16620555558164657,0.2561703304627921,0.8253686624050547,0.14413523352474553,0.24345761150620826,0.7047257738026832,0.2080873575408926,0.3087958085090663
5.0,0.0,5.0,0.0,0.0,0.0,0.0,0.0,282.28620259976014,285.7978071998805,,left,1.5743570001795888,289.13205150002614,sd9,282.28620259976014,285.7978071998805,289.13205150002614,,False,5.0,['r'],False,0.25,0.25,0.0,0.0,1.0,0.5118595071429148,0.0161331298904485,wait_cost,1.0,4.0,,,sd9,1,2022-05-04_11h18.28.062,threat_forest,2021.2.3,60.10904981482437,False,20.0,0.4583333333333333,0.4970238095238095,-1.625,-1.2028061224489797,0,0,0.0,0.4538469350650739,0.0161331298904485,0.25,0.25,0.25,0.0,-0.25,-0.25,4.75,4.75,0.0,1.0,-1.0,5.0,0,1,0,0,0.0161331298904485,0.683822040156407,0.21620945755273635,0.2681818674921389,0.6655514133393443,0.22259272954134554,0.29487456933554734,0.5841228556416805,0.24292334515868902,0.3081945735185744,0.5207012844746447,0.24957145682109982,0.27028481847814567,0.6602538518217096,0.22431870297630555,0.2582074150879884,0.4306331807905763,0.24518824439276712,0.3263134657709618,0.5569322311437979,0.24675872105698918,0.3505948249396238,0.46436218320798905,0.24872994601429912,0.3675697222005057,0.439023644499825,0.24628188406991622,0.3340979749865929,0.5548518387782523,0.2469912757826446,0.367945484199409,0.6584465851083341,0.2248946796675074,0.331512732831425
5.0,0.0,5.0,0.0,1.0,0.0,1.0,0.0,,,,right,2.4371427996084094,294.264798599761,sd9,282.28620259976014,285.7978071998805,294.264798599761,,True,4.0,['r'],False,0.25,0.25,0.0,0.0,1.0,0.5118595071429148,0.0222806905508626,unsucc_cost,1.0,2.0,292.7313529998064,,sd9,1,2022-05-04_11h18.28.062,threat_forest,2021.2.3,60.10904981482437,True,20.0,0.4583333333333333,0.4970238095238095,-1.625,-1.2028061224489797,0,0,1.0,0.8908263694008846,0.0222806905508626,0.25,0.25,0.25,0.0,-0.25,-0.25,3.75,3.75,0.0,1.0,-1.0,4.0,0,1,0,0,0.0222806905508626,0.683822040156407,0.21620945755273635,0.2681818674921389,0.6655514133393443,0.22259272954134554,0.29487456933554734,0.5841228556416805,0.24292334515868902,0.3081945735185744,0.5207012844746447,0.24957145682109982,0.27028481847814567,0.6602538518217096,0.22431870297630555,0.2582074150879884,0.4306331807905763,0.24518824439276712,0.3263134657709618,0.5569322311437979,0.24675872105698918,0.3505948249396238,0.46436218320798905,0.24872994601429912,0.3675697222005057,0.439023644499825,0.24628188406991622,0.3340979749865929,0.5548518387782523,0.2469912757826446,0.367945484199409,0.6682875491365083,0.2216793008056273,0.3271667984985918
5.0,0.0,5.0,0.0,2.0,0.0,2.0,0.0,,,,left,1.7252524998039007,301.46531389979646,sd9,301.46531389979646,,296.7315961997956,298.73133579967543,True,2.0,['r'],True,0.2222222222222222,0.6666666666666666,0.6666666666666666,2.0,1.0,0.77250688571426,0.0068629153925658,figh_cost,0.0,0.0,298.73133579967543,,sd9,1,2022-05-04_11h18.28.062,threat_forest,2021.2.3,60.10904981482437,True,20.0,0.4583333333333333,0.4970238095238095,-1.625,-1.2028061224489797,0,0,1.0,0.545373416469213,0.0068629153925658,0.2222222222222222,0.2222222222222222,0.6666666666666666,0.6666666666666666,-1.0,-1.0,1.0,1.0,1.0,1.0,-1.0,2.0,0,1,0,0,0.0068629153925658,0.683822040156407,0.21620945755273635,0.2681818674921389,0.6655514133393443,0.22259272954134554,0.29487456933554734,0.5841228556416805,0.24292334515868902,0.3081945735185744,0.7243219840824757,0.1996796474573015,0.31235835871851425,0.5400003544943581,0.2483999716403257,0.35216141955231184,0.8219618910611536,0.14634054070432595,0.2305764992626227,0.31465599176549386,0.2156475986115673,0.3049551645471537,0.4124449181106893,0.24233410763535615,0.35798039335322845,0.439023644499825,0.24628188406991622,0.3340979749865929,0.5180417868124856,0.24967449392861277,0.37119301454989473,0.6433474432956382,0.22945151050060383,0.3376717854398903
6.0,0.0,6.0,0.0,0.0,0.0,0.0,0.0,308.01750809978694,311.5314577999525,,right,1.4504879000596702,313.9157294998877,sd9,308.01750809978694,311.5314577999525,313.9157294998877,,True,4.0,['r'],False,0.3333333333333333,0.3333333333333333,0.0,0.0,2.0,0.5793801642856949,0.0530374995311426,unsucc_cost,1.0,2.0,,,sd9,1,2022-05-04_11h18.28.062,threat_forest,2021.2.3,60.10904981482437,True,70.0,0.4166666666666666,0.4375,-1.0833333333333337,-1.3541666666666667,1,0,1.0,0.371899982634614,0.0530374995311426,0.3333333333333333,0.3333333333333333,0.3333333333333333,0.0,0.3333333333333331,0.3333333333333331,4.333333333333333,4.333333333333333,0.0,2.0,-1.0,4.0,0,1,0,1,0.0530374995311426,0.683822040156407,0.21620945755273635,0.2681818674921389,0.6655514133393443,0.22259272954134554,0.29487456933554734,0.5841228556416805,0.24292334515868902,0.3081945735185744,0.5207012844746447,0.24957145682109982,0.27028481847814567,0.6602538518217096,0.22431870297630555,0.2582074150879884,0.5206194675728913,0.24957483755701051,0.33056201285076603,0.7334248389393061,0.19551284456615903,0.2754177109136358,0.6202073444497638,0.23555019434033583,0.34780922084962973,0.7894727006443846,0.16620555558164657,0.2561703304627921,0.6602885401962016,0.22430758388177072,0.34049114619865906,0.7152335999035521,0.20367449747255764,0.30283134805175277
6.0,0.0,6.0,0.0,1.0,0.0,1.0,0.0,,,,right,1.5886562997475266,320.0485060000792,sd9,308.01750809978694,311.5314577999525,320.0485060000792,,True,2.0,['r'],False,0.3333333333333333,0.3333333333333333,0.0,0.0,2.0,0.5793801642856949,0.0264787085262345,unsucc_cost,1.0,0.0,317.39832319971174,,sd9,1,2022-05-04_11h18.28.062,threat_forest,2021.2.3,60.10904981482437,True,70.0,0.4166666666666666,0.4375,-1.0833333333333337,-1.3541666666666667,1,0,1.0,0.4628885644400615,0.0264787085262345,0.3333333333333333,0.3333333333333333,0.3333333333333333,0.0,0.3333333333333331,0.3333333333333331,2.333333333333333,2.333333333333333,0.0,2.0,-1.0,2.0,0,1,0,1,0.0264787085262345,0.683822040156407,0.21620945755273635,0.2681818674921389,0.6655514133393443,0.22259272954134554,0.29487456933554734,0.5841228556416805,0.24292334515868902,0.3081945735185744,0.5207012844746447,0.24957145682109982,0.27028481847814567,0.6602538518217096,0.22431870297630555,0.2582074150879884,0.5206194675728913,0.24957483755701051,0.33056201285076603,0.7334248389393061,0.19551284456615903,0.2754177109136358,0.6202073444497638,0.23555019434033583,0.34780922084962973,0.7894727006443846,0.16620555558164657,0.2561703304627921,0.6602885401962016,0.22430758388177072,0.34049114619865906,0.6749248326582332,0.21940130291948912,0.32408783653213147
7.0,0.0,7.0,0.0,0.0,0.0,0.0,0.0,324.8536791000515,328.3651085998863,,right,1.587167500052601,331.7159847998992,sd9,324.8536791000515,328.3651085998863,331.7159847998992,,True,4.0,['p'],False,0.2448979591836734,0.2857142857142857,0.1428571428571428,1.0,2.0,0.8400769154957735,0.0066793633871859,unsucc_cost,1.0,2.0,,,sd9,1,2022-05-04_11h18.28.062,threat_forest,2021.2.3,60.10904981482437,True,29.0,0.4761904761904761,0.4464285714285714,-0.8594104308390023,-0.971371882086168,0,0,1.0,0.4619509810614864,0.0066793633871859,0.2448979591836734,0.2448979591836734,0.2857142857142857,0.1428571428571428,-0.2857142857142856,-0.1632653061224489,3.836734693877551,3.836734693877551,0.0,2.0,-1.0,4.0,0,1,0,0,0.0066793633871859,0.683822040156407,0.21620945755273635,0.2681818674921389,0.6655514133393443,0.22259272954134554,0.29487456933554734,0.5841228556416805,0.24292334515868902,0.3081945735185744,0.5207012844746447,0.24957145682109982,0.27028481847814567,0.635621057034996,0.23160692888871037,0.28664271139503794,0.4689863294337522,0.24903815223800826,0.33004221701845426,0.545067539743654,0.24796891686145417,0.35237016832754137,0.4547337601249326,0.24795096752757287,0.3664017938646732,0.439023644499825,0.24628188406991622,0.3340979749865929,0.5481237545065059,0.2476841042521975,0.3687840226111794,0.6430454624255064,0.22953799567947306,0.3377886795678529
7.0,0.0,7.0,0.0,1.0,0.0,1.0,0.0,,,,left,1.2332767001353204,338.6989943999797,sd9,338.6989943999797,,333.3321072999388,335.33188149984926,True,2.0,['p'],True,0.4444444444444445,0.6666666666666666,0.3333333333333333,1.0,2.0,0.9656336071428248,0.0682254264524575,figh_cost,0.0,0.0,335.33188149984926,,sd9,1,2022-05-04_11h18.28.062,threat_forest,2021.2.3,60.10904981482437,True,29.0,0.4761904761904761,0.4464285714285714,-0.8594104308390023,-0.971371882086168,1,0,1.0,0.2096746111185686,0.0682254264524575,0.4444444444444445,0.4444444444444445,0.6666666666666666,0.3333333333333333,0.6666666666666665,0.4444444444444444,2.4444444444444446,2.4444444444444446,1.0,2.0,-1.0,2.0,0,1,0,1,0.0682254264524575,0.683822040156407,0.21620945755273635,0.2681818674921389,0.6655514133393443,0.22259272954134554,0.29487456933554734,0.5841228556416805,0.24292334515868902,0.3081945735185744,0.7243219840824757,0.1996796474573015,0.31235835871851425,0.6016595886139142,0.2396653280428498,0.318082868500819,0.8219618910611536,0.14634054070432595,0.2305764992626227,0.8114862282022468,0.15297632964033778,0.2130171305777954,0.7916209842373364,0.16495720155244714,0.24196861293414096,0.7894727006443846,0.16620555558164657,0.2561703304627921,0.7785027122968413,0.17243623924330292,0.2777106502158593,0.7368808969222305,0.19388744067331967,0.28960307605386876
8.0,0.0,8.0,0.0,0.0,0.0,0.0,0.0,343.77203289978206,347.2819986999966,,right,1.780762400012463,350.4668372999877,sd9,350.4668372999877,,343.77203289978206,347.2819986999966,False,5.0,['r'],True,0.3061224489795918,0.4285714285714285,0.2857142857142857,2.0,1.0,0.9885754083994552,-0.0051042852935925,wait_cost,0.0,4.0,,,sd9,1,2022-05-04_11h18.28.062,threat_forest,2021.2.3,60.10904981482437,False,36.0,0.4142857142857142,0.4452380952380952,-1.083673469387755,-0.9715419501133786,0,0,0.0,0.5770415872172164,-0.0051042852935925,0.3061224489795918,0.3061224489795918,0.4285714285714285,0.2857142857142857,-0.5714285714285716,-0.3673469387755101,4.63265306122449,4.63265306122449,1.0,1.0,-1.0,5.0,0,1,0,0,-0.0051042852935925,0.683822040156407,0.21620945755273635,0.2681818674921389,0.6655514133393443,0.22259272954134554,0.29487456933554734,0.5841228556416805,0.24292334515868902,0.3081945735185744,0.7243219840824757,0.1996796474573015,0.31235835871851425,0.6102565406960514,0.2378434952337399,0.3109749170773085,0.6215194008979745,0.23523303520539735,0.31667154701118205,0.44944337527617456,0.24744402769653429,0.35160016193279764,0.5704438042647821,0.24503767044070507,0.36203386551179834,0.439023644499825,0.24628188406991622,0.3340979749865929,0.6270325291029358,0.2338627365497117,0.3520558593917665,0.6234299145751873,0.23476505618796203,0.3448536204968842
8.0,0.0,8.0,0.0,1.0,0.0,1.0,0.0,,,,left,1.5117774000391364,356.8659425997175,sd9,356.8659425997175,,343.77203289978206,347.2819986999966,True,4.0,['r'],True,0.3061224489795918,0.4285714285714285,0.2857142857142857,2.0,1.0,0.9885754083994552,0.0131354906297295,succ_gain,0.0,5.0,354.2654359000735,,sd9,1,2022-05-04_11h18.28.062,threat_forest,2021.2.3,60.10904981482437,True,36.0,0.4142857142857142,0.4452380952380952,-1.083673469387755,-0.9715419501133786,0,0,1.0,0.4132860447227516,0.0131354906297295,0.3061224489795918,0.3061224489795918,0.4285714285714285,0.2857142857142857,-0.5714285714285716,-0.3673469387755101,3.63265306122449,3.63265306122449,1.0,1.0,-1.0,4.0,0,1,0,0,0.0131354906297295,0.683822040156407,0.21620945755273635,0.2681818674921389,0.6655514133393443,0.22259272954134554,0.29487456933554734,0.5841228556416805,0.24292334515868902,0.3081945735185744,0.7243219840824757,0.1996796474573015,0.31235835871851425,0.6102565406960514,0.2378434952337399,0.3109749170773085,0.6215194008979745,0.23523303520539735,0.31667154701118205,0.44944337527617456,0.24744402769653429,0.35160016193279764,0.5704438042647821,0.24503767044070507,0.36203386551179834,0.439023644499825,0.24628188406991622,0.3340979749865929,0.6270325291029358,0.2338627365497117,0.3520558593917665,0.6535973798783471,0.2264078448945067,0.3335579402529294
8.0,0.0,8.0,0.0,2.0,0.0,2.0,0.0,,,,left,1.2203047997318208,363.7164425998926,sd9,363.7164425998926,,343.77203289978206,347.2819986999966,True,5.0,['r'],True,0.3061224489795918,0.4285714285714285,0.2857142857142857,2.0,1.0,0.9885754083994552,-0.0100264508263164,succ_gain,0.0,6.0,360.39884659973904,,sd9,1,2022-05-04_11h18.28.062,threat_forest,2021.2.3,60.10904981482437,True,36.0,0.4142857142857142,0.4452380952380952,-1.083673469387755,-0.9715419501133786,0,0,1.0,0.1991006633871421,-0.0100264508263164,0.3061224489795918,0.3061224489795918,0.4285714285714285,0.2857142857142857,-0.5714285714285716,-0.3673469387755101,4.63265306122449,4.63265306122449,1.0,1.0,1.0,5.0,0,1,0,0,-0.0100264508263164,0.43209437151841296,0.24538882562052067,0.37170971024216226,0.6655514133393443,0.22259272954134554,0.29487456933554734,0.5841228556416805,0.24292334515868902,0.3081945735185744,0.7243219840824757,0.1996796474573015,0.31235835871851425,0.6102565406960514,0.2378434952337399,0.3109749170773085,0.6215194008979745,0.23523303520539735,0.31667154701118205,0.44944337527617456,0.24744402769653429,0.35160016193279764,0.5704438042647821,0.24503767044070507,0.36203386551179834,0.439023644499825,0.24628188406991622,0.3340979749865929,0.6270325291029358,0.2338627365497117,0.3520558593917665,0.6151105995869159,0.23674954986274074,0.3475358795913749
8.0,0.0,8.0,0.0,3.0,0.0,3.0,0.0,,,,right,1.1486727995797992,370.61649469984695,sd9,370.61649469984695,,343.77203289978206,347.2819986999966,False,6.0,['r'],True,0.3061224489795918,0.4285714285714285,0.2857142857142857,2.0,1.0,0.9885754083994552,-0.3354373857831346,wait_cost,0.0,5.0,366.9656181000173,,sd9,1,2022-05-04_11h18.28.062,threat_forest,2021.2.3,60.10904981482437,False,36.0,0.4142857142857142,0.4452380952380952,-1.083673469387755,-0.9715419501133786,0,0,0.0,0.1386071885816446,-0.3354373857831346,0.0,0.3061224489795918,0.4285714285714285,0.2857142857142857,-0.5714285714285716,-0.3673469387755101,5.63265306122449,5.63265306122449,1.0,1.0,1.0,6.0,0,0,0,0,-0.84,0.43209437151841296,0.24538882562052067,0.37170971024216226,0.41818175526389084,0.24330577482830215,0.27812608098915076,0.5841228556416805,0.24292334515868902,0.3081945735185744,0.7243219840824757,0.1996796474573015,0.31235835871851425,0.6102565406960514,0.2378434952337399,0.3109749170773085,0.6215194008979745,0.23523303520539735,0.31667154701118205,0.44944337527617456,0.24744402769653429,0.35160016193279764,0.5704438042647821,0.24503767044070507,0.36203386551179834,0.439023644499825,0.24628188406991622,0.3340979749865929,0.24739297554373674,0.1861896911953528,0.2943566142070253,0.13424151189982786,0.11622072838267626,0.18462806503298354
8.0,0.0,8.0,0.0,4.0,0.0,4.0,0.0,,,,left,0.9806379000656308,376.3162166001275,sd9,376.3162166001275,,343.77203289978206,347.2819986999966,True,5.0,['r'],True,0.3061224489795918,0.4285714285714285,0.2857142857142857,2.0,1.0,0.9885754083994552,-0.3695492524373348,unsucc_cost,0.0,3.0,373.7824050998315,,sd9,1,2022-05-04_11h18.28.062,threat_forest,2021.2.3,60.10904981482437,True,36.0,0.4142857142857142,0.4452380952380952,-1.083673469387755,-0.9715419501133786,0,0,1.0,-0.0195520006387209,-0.3695492524373348,0.0,0.3061224489795918,0.4285714285714285,0.2857142857142857,-0.5714285714285716,-0.3673469387755101,4.63265306122449,4.63265306122449,1.0,1.0,-1.0,5.0,0,0,0,0,-0.84,0.683822040156407,0.21620945755273635,0.2681818674921389,0.41818175526389084,0.24330577482830215,0.27812608098915076,0.5841228556416805,0.24292334515868902,0.3081945735185744,0.7243219840824757,0.1996796474573015,0.31235835871851425,0.6102565406960514,0.2378434952337399,0.3109749170773085,0.6215194008979745,0.23523303520539735,0.31667154701118205,0.44944337527617456,0.24744402769653429,0.35160016193279764,0.5704438042647821,0.24503767044070507,0.36203386551179834,0.439023644499825,0.24628188406991622,0.3340979749865929,0.24739297554373674,0.1861896911953528,0.2943566142070253,0.1082727097198661,0.09654973004978373,0.15804057077856312
8.0,0.0,8.0,0.0,5.0,0.0,5.0,0.0,,,,right,0.6312871999107301,380.81642480008304,sd9,377.31605729972944,379.3158919000998,380.81642480008304,,True,3.0,['r'],False,0.4,0.4,0.0,0.0,1.0,0.6126016192893442,0.2353061224489796,unsucc_cost,1.0,1.0,379.3158919000998,,sd9,1,2022-05-04_11h18.28.062,threat_forest,2021.2.3,60.10904981482437,True,36.0,0.4142857142857142,0.4452380952380952,-1.083673469387755,-0.9715419501133786,1,0,1.0,-0.4599943695772525,0.2353061224489796,0.4,0.4,0.4,0.0,0.2,0.2,3.2,3.2,0.0,1.0,-1.0,3.0,0,1,0,1,0.2353061224489796,0.683822040156407,0.21620945755273635,0.2681818674921389,0.6655514133393443,0.22259272954134554,0.29487456933554734,0.5841228556416805,0.24292334515868902,0.3081945735185744,0.5207012844746447,0.24957145682109982,0.27028481847814567,0.6602538518217096,0.22431870297630555,0.2582074150879884,0.5919322619612679,0.24154845921068477,0.32278822462653534,0.6969926713793266,0.21119388742283657,0.29842162123008426,0.7304694801631364,0.19688381871333374,0.28983643147452526,0.7894727006443846,0.16620555558164657,0.2561703304627921,0.734974431124678,0.194787016717634,0.3047620579867518,0.9026999285319035,0.0878327675603998,0.14625864765598542
8.0,0.0,8.0,0.0,6.0,0.0,6.0,0.0,,,,left,1.0835437001660466,386.39955159975216,sd9,386.39955159975216,,381.4661296000704,383.46592839993536,True,1.0,['r'],True,0.3061224489795918,0.4285714285714285,0.2857142857142857,2.0,1.0,0.9885754083994552,0.3061224489795917,unsucc_cost,0.0,0.0,383.46592839993536,,sd9,1,2022-05-04_11h18.28.062,threat_forest,2021.2.3,60.10904981482437,True,36.0,0.4142857142857142,0.4452380952380952,-1.083673469387755,-0.9715419501133786,0,0,1.0,0.080236873590773,0.3061224489795917,1.0,0.3061224489795918,0.4285714285714285,0.2857142857142857,-0.5714285714285716,-0.3673469387755101,0.6326530612244898,1.0,1.0,1.0,-1.0,1.0,1,1,0,0,0.625,0.683822040156407,0.21620945755273635,0.2681818674921389,0.6655514133393443,0.22259272954134554,0.29487456933554734,0.9743929734021234,0.024951306786692256,0.16367025711232736,0.7243219840824757,0.1996796474573015,0.31235835871851425,0.6102565406960514,0.2378434952337399,0.3109749170773085,0.6215194008979745,0.23523303520539735,0.31667154701118205,0.44944337527617456,0.24744402769653429,0.35160016193279764,0.5704438042647821,0.24503767044070507,0.36203386551179834,0.439023644499825,0.24628188406991622,0.3340979749865929,0.9854981529216759,0.014291543509641094,0.08630627262728703,0.9390754593888346,0.05721274096248379,0.10487235055681923
9.0,0.0,9.0,0.0,0.0,0.0,0.0,0.0,391.1577419997193,394.6660289997235,,left,1.8562949001789093,398.3351648999378,sd9,391.1577419997193,394.6660289997235,398.3351648999378,,False,5.0,['p'],False,0.16,0.2,0.2,2.0,1.0,0.8198746470064713,-0.0657281650067768,wait_cost,1.0,4.0,,,sd9,1,2022-05-04_11h18.28.062,threat_forest,2021.2.3,60.10904981482437,False,23.0,0.4333333333333333,0.4238095238095238,-1.3600000000000003,-1.2218367346938777,0,0,0.0,0.6185825119249028,-0.0657281650067768,0.16,0.16,0.2,0.2,-1.0,-0.7200000000000004,4.279999999999999,4.279999999999999,0.0,1.0,-1.0,5.0,0,1,0,0,-0.0657281650067768,0.683822040156407,0.21620945755273635,0.2681818674921389,0.6655514133393443,0.22259272954134554,0.29487456933554734,0.5841228556416805,0.24292334515868902,0.3081945735185744,0.5207012844746447,0.24957145682109982,0.27028481847814567,0.6255566081822892,0.23423553814175913,0.2968983324315202,0.37840022122517314,0.2352134938019132,0.3166526205756547,0.31465599176549386,0.2156475986115673,0.3049551645471537,0.30434901940740333,0.21172069379315536,0.31208147047907503,0.439023644499825,0.24628188406991622,0.3340979749865929,0.43547793883461944,0.2458369036229709,0.36654833405344367,0.5173756636223851,0.2496980863136817,0.3650372352758438
9.0,0.0,9.0,0.0,1.0,0.0,1.0,0.0,,,,left,1.228179500438273,403.0832910998725,sd9,403.0832910998725,,400.2165727997199,402.21617179969326,True,4.0,['p'],True,0.4444444444444445,0.6666666666666666,0.3333333333333333,1.0,1.0,0.9656336071428248,0.0699023631221528,unsucc_cost,0.0,2.0,402.21617179969326,,sd9,1,2022-05-04_11h18.28.062,threat_forest,2021.2.3,60.10904981482437,True,23.0,0.4333333333333333,0.4238095238095238,-1.3600000000000003,-1.2218367346938777,1,1,1.0,0.2055329920380556,0.0699023631221528,0.4444444444444445,0.4444444444444445,0.6666666666666666,0.3333333333333333,0.0,0.0,4.0,4.0,1.0,1.0,-1.0,4.0,0,1,1,1,0.0699023631221528,0.683822040156407,0.21620945755273635,0.2681818674921389,0.6655514133393443,0.22259272954134554,0.29487456933554734,0.5841228556416805,0.24292334515868902,0.3081945735185744,0.7243219840824757,0.1996796474573015,0.31235835871851425,0.6016595886139142,0.2396653280428498,0.318082868500819,0.8219618910611536,0.14634054070432595,0.2305764992626227,0.6374795765529296,0.23109936603082717,0.32762273042220713,0.7916209842373364,0.16495720155244714,0.24196861293414096,0.7894727006443846,0.16620555558164657,0.2561703304627921,0.7785027122968413,0.17243623924330292,0.2777106502158593,0.7392050977707892,0.19278092120046722,0.2881074946080773
9.0,0.0,9.0,0.0,2.0,0.0,2.0,0.0,,,,left,1.3558737998828292,409.63437599968165,sd9,404.3330705999397,406.3330494998954,409.63437599968165,,False,2.0,['p'],False,0.16,0.2,0.2,2.0,1.0,0.8198746470064713,-0.0144702234415484,wait_cost,1.0,1.0,406.3330494998954,,sd9,1,2022-05-04_11h18.28.062,threat_forest,2021.2.3,60.10904981482437,False,23.0,0.4333333333333333,0.4238095238095238,-1.3600000000000003,-1.2218367346938777,0,0,0.0,0.3044461172540982,-0.0144702234415484,0.16,0.16,0.2,0.2,-1.0,-0.7200000000000004,1.2799999999999996,1.2799999999999996,0.0,1.0,-1.0,2.0,0,1,0,0,-0.0144702234415484,0.683822040156407,0.21620945755273635,0.2681818674921389,0.6655514133393443,0.22259272954134554,0.29487456933554734,0.5841228556416805,0.24292334515868902,0.3081945735185744,0.5207012844746447,0.24957145682109982,0.27028481847814567,0.6255566081822892,0.23423553814175913,0.2968983324315202,0.37840022122517314,0.2352134938019132,0.3166526205756547,0.31465599176549386,0.2156475986115673,0.3049551645471537,0.30434901940740333,0.21172069379315536,0.31208147047907503,0.439023644499825,0.24628188406991622,0.3340979749865929,0.43547793883461944,0.2458369036229709,0.36654833405344367,0.6075414490667869,0.23843483673261567,0.34981372813833583
9.0,0.0,9.0,0.0,3.0,0.0,3.0,0.0,,,,left,0.7686054999940097,416.26702459994704,sd9,416.26702459994704,,411.0167403998785,413.0163838998415,True,1.0,['p'],True,0.4444444444444445,0.6666666666666666,0.3333333333333333,1.0,1.0,0.9656336071428248,0.0687739064167046,figh_cost,0.0,0.0,413.0163838998415,,sd9,1,2022-05-04_11h18.28.062,threat_forest,2021.2.3,60.10904981482437,True,23.0,0.4333333333333333,0.4238095238095238,-1.3600000000000003,-1.2218367346938777,1,1,1.0,-0.2631774450169786,0.0687739064167046,1.0,0.4444444444444445,0.6666666666666666,0.3333333333333333,0.0,0.0,1.0,1.0,1.0,1.0,-1.0,1.0,1,1,1,1,0.625,0.683822040156407,0.21620945755273635,0.2681818674921389,0.6655514133393443,0.22259272954134554,0.29487456933554734,0.9743929734021234,0.024951306786692256,0.16367025711232736,0.7243219840824757,0.1996796474573015,0.31235835871851425,0.6016595886139142,0.2396653280428498,0.318082868500819,0.8219618910611536,0.14634054070432595,0.2305764992626227,0.6374795765529296,0.23109936603082717,0.32762273042220713,0.7916209842373364,0.16495720155244714,0.24196861293414096,0.7894727006443846,0.16620555558164657,0.2561703304627921,0.9854981529216759,0.014291543509641094,0.08630627262728703,0.7376425427809781,0.19352602186059104,0.28911457920972056
10.0,0.0,10.0,0.0,0.0,0.0,0.0,0.0,421.010665900074,424.5165423997678,,right,0.7741777002811432,427.4840689999983,sd9,421.010665900074,424.5165423997678,427.4840689999983,,True,4.0,['p'],False,0.375,0.5,0.25,1.0,2.0,0.9850568223215076,0.0640175729863931,succ_gain,1.0,6.0,,,sd9,1,2022-05-04_11h18.28.062,threat_forest,2021.2.3,60.10904981482437,True,59.0,0.3611111111111111,0.3972222222222222,-1.1404320987654322,-1.250216049382716,1,0,1.0,-0.2559538448169136,0.0640175729863931,0.375,0.375,0.5,0.25,0.25,0.25,4.25,4.25,0.0,2.0,-1.0,4.0,0,1,0,1,0.0640175729863931,0.683822040156407,0.21620945755273635,0.2681818674921389,0.6655514133393443,0.22259272954134554,0.29487456933554734,0.5841228556416805,0.24292334515868902,0.3081945735185744,0.5207012844746447,0.24957145682109982,0.27028481847814567,0.6166599001403831,0.23639046769923586,0.30530587374872553,0.6912800656217636,0.21341193649573384,0.2955371582657761,0.7109827973668922,0.20548625921524094,0.29004859600419824,0.69147823498808,0.2133360855258496,0.31450343951959636,0.7894727006443846,0.16620555558164657,0.2561703304627921,0.7082135542707333,0.2066471158179484,0.3191164748447007,0.7309905745556283,0.19664335446646075,0.2933279933611055
10.0,0.0,10.0,0.0,1.0,0.0,1.0,0.0,,,,right,1.964099999982864,433.6364862998016,sd9,433.6364862998016,,428.2834099996835,430.2832511998713,False,6.0,['p'],True,0.1728395061728395,0.2222222222222222,0.2222222222222222,2.0,2.0,0.8571721972794328,-0.10870870610332,wait_cost,0.0,5.0,430.2832511998713,,sd9,1,2022-05-04_11h18.28.062,threat_forest,2021.2.3,60.10904981482437,False,59.0,0.3611111111111111,0.3972222222222222,-1.1404320987654322,-1.250216049382716,0,0,0.0,0.6750341251242937,-0.10870870610332,0.1728395061728395,0.1728395061728395,0.2222222222222222,0.2222222222222222,-0.7777777777777777,-0.5308641975308643,5.469135802469136,5.469135802469136,1.0,2.0,1.0,6.0,0,1,0,0,-0.10870870610332,0.43209437151841296,0.24538882562052067,0.37170971024216226,0.6655514133393443,0.22259272954134554,0.29487456933554734,0.5841228556416805,0.24292334515868902,0.3081945735185744,0.7243219840824757,0.1996796474573015,0.31235835871851425,0.6216125862018259,0.23521037887730345,0.3007017114020053,0.40134455794442225,0.24026710375281854,0.32154719342421556,0.38224677604136115,0.23613417824734664,0.3350087422932003,0.32539008943827213,0.2195113791336254,0.3237621039236894,0.439023644499825,0.24628188406991622,0.3340979749865929,0.4523742440822494,0.2477317873732628,0.3688417340511151,0.4406341000757237,0.24647568992618085,0.3606818159936977
10.0,0.0,10.0,0.0,2.0,0.0,2.0,0.0,,,,right,1.860493399668485,439.8503441000357,sd9,439.8503441000357,,428.2834099996835,430.2832511998713,False,5.0,['p'],True,0.1728395061728395,0.2222222222222222,0.2222222222222222,2.0,2.0,0.8571721972794328,-0.0361377939425744,wait_cost,0.0,4.0,437.6167780999094,,sd9,1,2022-05-04_11h18.28.062,threat_forest,2021.2.3,60.10904981482437,False,59.0,0.3611111111111111,0.3972222222222222,-1.1404320987654322,-1.250216049382716,0,0,0.0,0.6208417211865758,-0.0361377939425744,0.1728395061728395,0.1728395061728395,0.2222222222222222,0.2222222222222222,-0.7777777777777777,-0.5308641975308643,4.469135802469136,4.469135802469136,1.0,2.0,-1.0,5.0,0,1,0,0,-0.0361377939425744,0.683822040156407,0.21620945755273635,0.2681818674921389,0.6655514133393443,0.22259272954134554,0.29487456933554734,0.5841228556416805,0.24292334515868902,0.3081945735185744,0.7243219840824757,0.1996796474573015,0.31235835871851425,0.6216125862018259,0.23521037887730345,0.3007017114020053,0.40134455794442225,0.24026710375281854,0.32154719342421556,0.38224677604136115,0.23613417824734664,0.3350087422932003,0.32539008943827213,0.2195113791336254,0.3237621039236894,0.439023644499825,0.24628188406991622,0.3340979749865929,0.4523742440822494,0.2477317873732628,0.3688417340511151,0.5699528092489882,0.24510660447817467,0.35883134806793876
10.0,0.0,10.0,0.0,3.0,0.0,3.0,0.0,,,,right,1.3431442002765834,446.3533696997911,sd9,441.7339746998623,443.73348479997367,446.3533696997911,,True,4.0,['p'],False,0.375,0.5,0.25,1.0,2.0,0.9850568223215076,0.1164893285637173,figh_cost,1.0,1.0,443.73348479997367,,sd9,1,2022-05-04_11h18.28.062,threat_forest,2021.2.3,60.10904981482437,True,59.0,0.3611111111111111,0.3972222222222222,-1.1404320987654322,-1.250216049382716,1,0,1.0,0.2950132835393274,0.1164893285637173,0.375,0.375,0.5,0.25,0.25,0.25,4.25,4.25,0.0,2.0,-1.0,4.0,0,1,0,1,0.1164893285637173,0.683822040156407,0.21620945755273635,0.2681818674921389,0.6655514133393443,0.22259272954134554,0.29487456933554734,0.5841228556416805,0.24292334515868902,0.3081945735185744,0.5207012844746447,0.24957145682109982,0.27028481847814567,0.6166599001403831,0.23639046769923586,0.30530587374872553,0.6912800656217636,0.21341193649573384,0.2955371582657761,0.7109827973668922,0.20548625921524094,0.29004859600419824,0.69147823498808,0.2133360855258496,0.31450343951959636,0.7894727006443846,0.16620555558164657,0.2561703304627921,0.7082135542707333,0.2066471158179484,0.3191164748447007,0.798317961967166,0.16100639356775653,0.24516076376224152
10.0,0.0,10.0,0.0,4.0,0.0,4.0,0.0,,,,left,1.7488043997436762,451.6839165999554,sd9,451.6839165999554,,447.71714660013095,449.716878999956,True,1.0,['p'],True,0.1728395061728395,0.2222222222222222,0.2222222222222222,2.0,2.0,0.8571721972794328,0.0705413294937726,unsucc_cost,0.0,0.0,449.716878999956,,sd9,1,2022-05-04_11h18.28.062,threat_forest,2021.2.3,60.10904981482437,True,59.0,0.3611111111111111,0.3972222222222222,-1.1404320987654322,-1.250216049382716,0,0,1.0,0.55893235430138,0.0705413294937726,1.0,0.1728395061728395,0.2222222222222222,0.2222222222222222,-0.7777777777777777,-0.5308641975308643,0.4691358024691356,1.0,1.0,2.0,-1.0,1.0,1,1,0,0,0.625,0.683822040156407,0.21620945755273635,0.2681818674921389,0.6655514133393443,0.22259272954134554,0.29487456933554734,0.9743929734021234,0.024951306786692256,0.16367025711232736,0.7243219840824757,0.1996796474573015,0.31235835871851425,0.6216125862018259,0.23521037887730345,0.3007017114020053,0.40134455794442225,0.24026710375281854,0.32154719342421556,0.38224677604136115,0.23613417824734664,0.3350087422932003,0.32539008943827213,0.2195113791336254,0.3237621039236894,0.439023644499825,0.24628188406991622,0.3340979749865929,0.9854981529216759,0.014291543509641094,0.08630627262728703,0.7400871883995801,0.1923581419663845,0.28753606247907004
11.0,0.0,11.0,0.0,0.0,0.0,0.0,0.0,458.0247454000637,461.5337064997293,,left,1.8499841000884767,465.2842593998648,sd9,465.2842593998648,,458.0247454000637,461.5337064997293,True,4.0,['r'],True,0.4081632653061224,0.5714285714285714,0.2857142857142857,2.0,2.0,0.9885754083994552,0.0102904310319958,succ_gain,0.0,6.0,,,sd9,1,2022-05-04_11h18.28.062,threat_forest,2021.2.3,60.10904981482437,True,64.0,0.5357142857142857,0.4484126984126984,-0.326530612244898,-0.7334813555051651,1,0,1.0,0.6151770445065308,0.0102904310319958,0.4081632653061224,0.4081632653061224,0.5714285714285714,0.2857142857142857,0.4285714285714285,0.346938775510204,4.346938775510204,4.346938775510204,1.0,2.0,-1.0,4.0,0,1,0,1,0.0102904310319958,0.683822040156407,0.21620945755273635,0.2681818674921389,0.6655514133393443,0.22259272954134554,0.29487456933554734,0.5841228556416805,0.24292334515868902,0.3081945735185744,0.7243219840824757,0.1996796474573015,0.31235835871851425,0.6102565406960514,0.2378434952337399,0.3109749170773085,0.753286663908668,0.18584586588601745,0.2688385918828169,0.7576727447015711,0.18360475663795905,0.2579486822754005,0.742506225219157,0.19119073072995552,0.2813007416095604,0.7894727006443846,0.16620555558164657,0.2561703304627921,0.7433648090550868,0.1907735697135811,0.2999045360684119,0.6489652800199149,0.22780934534858838,0.33545222058582724
11.0,0.0,11.0,0.0,1.0,0.0,1.0,0.0,,,,right,1.452831500209868,469.7674700999633,sd9,469.7674700999633,,458.0247454000637,461.5337064997293,False,6.0,['r'],True,0.4081632653061224,0.5714285714285714,0.2857142857142857,2.0,2.0,0.9885754083994552,-0.0789184913550894,wait_cost,0.0,5.0,469.15052569983527,,sd9,1,2022-05-04_11h18.28.062,threat_forest,2021.2.3,60.10904981482437,False,64.0,0.5357142857142857,0.4484126984126984,-0.326530612244898,-0.7334813555051651,1,0,0.0,0.3735144110430117,-0.0789184913550894,0.4081632653061224,0.4081632653061224,0.5714285714285714,0.2857142857142857,0.4285714285714285,0.346938775510204,6.346938775510204,6.346938775510204,1.0,2.0,1.0,6.0,0,1,0,1,-0.0789184913550894,0.43209437151841296,0.24538882562052067,0.37170971024216226,0.6655514133393443,0.22259272954134554,0.29487456933554734,0.5841228556416805,0.24292334515868902,0.3081945735185744,0.7243219840824757,0.1996796474573015,0.31235835871851425,0.6102565406960514,0.2378434952337399,0.3109749170773085,0.753286663908668,0.18584586588601745,0.2688385918828169,0.7576727447015711,0.18360475663795905,0.2579486822754005,0.742506225219157,0.19119073072995552,0.2813007416095604,0.7894727006443846,0.16620555558164657,0.2561703304627921,0.7433648090550868,0.1907735697135811,0.2999045360684119,0.49374322988432556,0.24996085282771965,0.3653923928059299
11.0,0.0,11.0,0.0,2.0,0.0,2.0,0.0,,,,left,1.665412100031972,474.80124159995466,sd9,474.80124159995466,,458.0247454000637,461.5337064997293,True,5.0,['r'],True,0.4081632653061224,0.5714285714285714,0.2857142857142857,2.0,2.0,0.9885754083994552,-0.0126763486945585,succ_gain,0.0,6.0,473.250606500078,,sd9,1,2022-05-04_11h18.28.062,threat_forest,2021.2.3,60.10904981482437,True,64.0,0.5357142857142857,0.4484126984126984,-0.326530612244898,-0.7334813555051651,1,0,1.0,0.5100726003341823,-0.0126763486945585,0.4081632653061224,0.4081632653061224,0.5714285714285714,0.2857142857142857,0.4285714285714285,0.346938775510204,5.346938775510204,5.346938775510204,1.0,2.0,-1.0,5.0,0,1,0,1,-0.0126763486945585,0.683822040156407,0.21620945755273635,0.2681818674921389,0.6655514133393443,0.22259272954134554,0.29487456933554734,0.5841228556416805,0.24292334515868902,0.3081945735185744,0.7243219840824757,0.1996796474573015,0.31235835871851425,0.6102565406960514,0.2378434952337399,0.3109749170773085,0.753286663908668,0.18584586588601745,0.2688385918828169,0.7576727447015711,0.18360475663795905,0.2579486822754005,0.742506225219157,0.19119073072995552,0.2813007416095604,0.7894727006443846,0.16620555558164657,0.2561703304627921,0.7433648090550868,0.1907735697135811,0.2999045360684119,0.6106034347581221,0.23776688021970582,0.34891091224416243
11.0,0.0,11.0,0.0,3.0,0.0,3.0,0.0,,,,left,1.705410199705511,481.6343712001108,sd9,481.6343712001108,,458.0247454000637,461.5337064997293,True,6.0,['r'],True,0.4081632653061224,0.5714285714285714,0.2857142857142857,2.0,2.0,0.9885754083994552,-0.1920843462332871,unsucc_cost,0.0,4.0,478.4839471001178,,sd9,1,2022-05-04_11h18.28.062,threat_forest,2021.2.3,60.10904981482437,True,64.0,0.5357142857142857,0.4484126984126984,-0.326530612244898,-0.7334813555051651,1,0,1.0,0.5338056681367714,-0.1920843462332871,0.0,0.4081632653061224,0.5714285714285714,0.2857142857142857,0.4285714285714285,0.346938775510204,6.346938775510204,6.346938775510204,1.0,2.0,1.0,6.0,0,0,0,1,-0.84,0.43209437151841296,0.24538882562052067,0.37170971024216226,0.41818175526389084,0.24330577482830215,0.27812608098915076,0.5841228556416805,0.24292334515868902,0.3081945735185744,0.7243219840824757,0.1996796474573015,0.31235835871851425,0.6102565406960514,0.2378434952337399,0.3109749170773085,0.753286663908668,0.18584586588601745,0.2688385918828169,0.7576727447015711,0.18360475663795905,0.2579486822754005,0.742506225219157,0.19119073072995552,0.2813007416095604,0.7894727006443846,0.16620555558164657,0.2561703304627921,0.24739297554373674,0.1861896911953528,0.2943566142070253,0.3023159413539318,0.21092101295721785,0.31262580207754603
11.0,0.0,11.0,0.0,4.0,0.0,4.0,0.0,,,,right,1.1890426999889314,488.20103739993647,sd9,483.3676728000864,485.36738439975306,488.20103739993647,,True,4.0,['r'],False,0.5,0.5,0.0,0.0,2.0,0.6309297535714574,0.1014160766347355,unsucc_cost,1.0,2.0,485.36738439975306,,sd9,1,2022-05-04_11h18.28.062,threat_forest,2021.2.3,60.10904981482437,True,64.0,0.5357142857142857,0.4484126984126984,-0.326530612244898,-0.7334813555051651,1,1,1.0,0.1731485295860355,0.1014160766347355,0.5,0.5,0.5,0.0,1.0,1.0,5.0,5.0,0.0,2.0,-1.0,4.0,0,1,1,1,0.1014160766347355,0.683822040156407,0.21620945755273635,0.2681818674921389,0.6655514133393443,0.22259272954134554,0.29487456933554734,0.5841228556416805,0.24292334515868902,0.3081945735185744,0.5207012844746447,0.24957145682109982,0.27028481847814567,0.6602538518217096,0.22431870297630555,0.2582074150879884,0.6912800656217636,0.21341193649573384,0.2955371582657761,0.8707181937138972,0.11256802084950532,0.15373860427316052,0.8528174635275158,0.12551983743001,0.1828398746775677,0.7894727006443846,0.16620555558164657,0.2561703304627921,0.8253686624050547,0.14413523352474553,0.24345761150620826,0.7803585739091705,0.17139907003561614,0.2592075966276194
11.0,0.0,11.0,0.0,5.0,0.0,5.0,0.0,,,,left,1.55358469998464,494.1013318998739,sd9,494.1013318998739,,489.4176968000829,491.4176431996748,True,2.0,['r'],True,0.4081632653061224,0.5714285714285714,0.2857142857142857,2.0,2.0,0.9885754083994552,-0.0459183673469387,figh_cost,0.0,0.0,491.4176431996748,,sd9,1,2022-05-04_11h18.28.062,threat_forest,2021.2.3,60.10904981482437,True,64.0,0.5357142857142857,0.4484126984126984,-0.326530612244898,-0.7334813555051651,1,0,1.0,0.4405649704017962,-0.0459183673469387,0.4081632653061224,0.4081632653061224,0.5714285714285714,0.2857142857142857,0.4285714285714285,0.346938775510204,2.346938775510204,2.346938775510204,1.0,2.0,-1.0,2.0,0,1,0,1,-0.0459183673469387,0.683822040156407,0.21620945755273635,0.2681818674921389,0.6655514133393443,0.22259272954134554,0.29487456933554734,0.5841228556416805,0.24292334515868902,0.3081945735185744,0.7243219840824757,0.1996796474573015,0.31235835871851425,0.6102565406960514,0.2378434952337399,0.3109749170773085,0.753286663908668,0.18584586588601745,0.2688385918828169,0.7576727447015711,0.18360475663795905,0.2579486822754005,0.742506225219157,0.19119073072995552,0.2813007416095604,0.7894727006443846,0.16620555558164657,0.2561703304627921,0.7433648090550868,0.1907735697135811,0.2999045360684119,0.5526895240407846,0.2472238140563556,0.361692987144038
12.0,0.0,12.0,0.0,0.0,0.0,0.0,0.0,500.41016829991713,503.9176953998394,,left,1.7244728999212384,505.4036046997644,sd9,500.41016829991713,503.9176953998394,505.4036046997644,,False,5.0,['p'],False,0.16,0.2,0.2,2.0,1.0,0.8198746470064713,-0.0406469608296754,wait_cost,1.0,4.0,,,sd9,1,2022-05-04_11h18.28.062,threat_forest,2021.2.3,60.10904981482437,False,3.0,0.35,0.4428571428571428,-1.4225000000000003,-0.8745153061224491,0,0,0.0,0.5449214385256955,-0.0406469608296754,0.16,0.16,0.2,0.2,-1.0,-0.7200000000000004,4.279999999999999,4.279999999999999,0.0,1.0,-1.0,5.0,0,1,0,0,-0.0406469608296754,0.683822040156407,0.21620945755273635,0.2681818674921389,0.6655514133393443,0.22259272954134554,0.29487456933554734,0.5841228556416805,0.24292334515868902,0.3081945735185744,0.5207012844746447,0.24957145682109982,0.27028481847814567,0.6255566081822892,0.23423553814175913,0.2968983324315202,0.37840022122517314,0.2352134938019132,0.3166526205756547,0.31465599176549386,0.2156475986115673,0.3049551645471537,0.30434901940740333,0.21172069379315536,0.31208147047907503,0.439023644499825,0.24628188406991622,0.3340979749865929,0.43547793883461944,0.2458369036229709,0.36654833405344367,0.5620123778614591,0.24615446499196764,0.3602476455490543
12.0,0.0,12.0,0.0,1.0,0.0,1.0,0.0,,,,left,1.6517686997540295,511.5015535997227,sd9,500.41016829991713,503.9176953998394,511.5015535997227,,False,4.0,['p'],False,0.16,0.2,0.2,2.0,1.0,0.8198746470064713,-0.0315257116296388,wait_cost,1.0,3.0,509.1512368000113,,sd9,1,2022-05-04_11h18.28.062,threat_forest,2021.2.3,60.10904981482437,False,3.0,0.35,0.4428571428571428,-1.4225000000000003,-0.8745153061224491,0,0,0.0,0.5018466530407254,-0.0315257116296388,0.16,0.16,0.2,0.2,-1.0,-0.7200000000000004,3.28,3.28,0.0,1.0,-1.0,4.0,0,1,0,0,-0.0315257116296388,0.683822040156407,0.21620945755273635,0.2681818674921389,0.6655514133393443,0.22259272954134554,0.29487456933554734,0.5841228556416805,0.24292334515868902,0.3081945735185744,0.5207012844746447,0.24957145682109982,0.27028481847814567,0.6255566081822892,0.23423553814175913,0.2968983324315202,0.37840022122517314,0.2352134938019132,0.3166526205756547,0.31465599176549386,0.2156475986115673,0.3049551645471537,0.30434901940740333,0.21172069379315536,0.31208147047907503,0.439023644499825,0.24628188406991622,0.3340979749865929,0.43547793883461944,0.2458369036229709,0.36654833405344367,0.5780373769918209,0.24391016779223643,0.35721423372657
12.0,0.0,12.0,0.0,2.0,0.0,2.0,0.0,,,,left,2.038732100278139,516.0018881000578,sd9,500.41016829991713,503.9176953998394,516.0018881000578,,False,3.0,['p'],False,0.16,0.2,0.2,2.0,1.0,0.8198746470064713,-0.0265462120898438,wait_cost,1.0,2.0,515.1845744000748,,sd9,1,2022-05-04_11h18.28.062,threat_forest,2021.2.3,60.10904981482437,False,3.0,0.35,0.4428571428571428,-1.4225000000000003,-0.8745153061224491,0,0,0.0,0.7123280951613323,-0.0265462120898438,0.16,0.16,0.2,0.2,-1.0,-0.7200000000000004,2.28,2.28,0.0,1.0,-1.0,3.0,0,1,0,0,-0.0265462120898438,0.683822040156407,0.21620945755273635,0.2681818674921389,0.6655514133393443,0.22259272954134554,0.29487456933554734,0.5841228556416805,0.24292334515868902,0.3081945735185744,0.5207012844746447,0.24957145682109982,0.27028481847814567,0.6255566081822892,0.23423553814175913,0.2968983324315202,0.37840022122517314,0.2352134938019132,0.3166526205756547,0.31465599176549386,0.2156475986115673,0.3049551645471537,0.30434901940740333,0.21172069379315536,0.31208147047907503,0.439023644499825,0.24628188406991622,0.3340979749865929,0.43547793883461944,0.2458369036229709,0.36654833405344367,0.5867191613172403,0.24247978706043444,0.35528091855644833
12.0,0.0,12.0,0.0,3.0,0.0,3.0,0.0,,,,left,1.0837984001263976,523.2514960998669,sd9,523.2514960998669,,518.0681960997172,520.0679566999897,True,2.0,['p'],True,0.375,0.5,0.25,1.0,1.0,0.9850568223215076,0.0506547607421876,succ_gain,0.0,3.0,520.0679566999897,,sd9,1,2022-05-04_11h18.28.062,threat_forest,2021.2.3,60.10904981482437,True,3.0,0.35,0.4428571428571428,-1.4225000000000003,-0.8745153061224491,0,0,1.0,0.0804719079782738,0.0506547607421876,0.375,0.375,0.5,0.25,-0.25,-0.125,1.875,1.875,1.0,1.0,-1.0,2.0,0,1,0,0,0.0506547607421876,0.683822040156407,0.21620945755273635,0.2681818674921389,0.6655514133393443,0.22259272954134554,0.29487456933554734,0.5841228556416805,0.24292334515868902,0.3081945735185744,0.7243219840824757,0.1996796474573015,0.31235835871851425,0.6166599001403831,0.23639046769923586,0.30530587374872553,0.6912800656217636,0.21341193649573384,0.2955371582657761,0.5569322311437979,0.24675872105698918,0.3505948249396238,0.69147823498808,0.2133360855258496,0.31450343951959636,0.439023644499825,0.24628188406991622,0.3340979749865929,0.7082135542707333,0.2066471158179484,0.3191164748447007,0.7117417977554681,0.20516541108328243,0.3048464799931093
12.0,0.0,12.0,0.0,4.0,0.0,4.0,0.0,,,,left,1.680550099816173,530.036516000051,sd9,524.3682256001048,526.3682077000849,530.036516000051,,False,3.0,['p'],False,0.16,0.2,0.2,2.0,1.0,0.8198746470064713,-0.1062520000000001,wait_cost,1.0,2.0,526.3682077000849,,sd9,1,2022-05-04_11h18.28.062,threat_forest,2021.2.3,60.10904981482437,False,3.0,0.35,0.4428571428571428,-1.4225000000000003,-0.8745153061224491,0,0,0.0,0.5191211801850399,-0.1062520000000001,0.16,0.16,0.2,0.2,-1.0,-0.7200000000000004,2.28,2.28,0.0,1.0,1.0,3.0,0,1,0,0,-0.1062520000000001,0.43209437151841296,0.24538882562052067,0.37170971024216226,0.6655514133393443,0.22259272954134554,0.29487456933554734,0.5841228556416805,0.24292334515868902,0.3081945735185744,0.5207012844746447,0.24957145682109982,0.27028481847814567,0.6255566081822892,0.23423553814175913,0.2968983324315202,0.37840022122517314,0.2352134938019132,0.3166526205756547,0.31465599176549386,0.2156475986115673,0.3049551645471537,0.30434901940740333,0.21172069379315536,0.31208147047907503,0.439023644499825,0.24628188406991622,0.3340979749865929,0.43547793883461944,0.2458369036229709,0.36654833405344367,0.4449793812055225,0.2469727315074728,0.3613536217639574
12.0,0.0,12.0,0.0,5.0,0.0,5.0,0.0,,,,left,1.5220445999875665,536.6191126997583,sd9,524.3682256001048,526.3682077000849,536.6191126997583,,False,2.0,['p'],False,0.16,0.2,0.2,2.0,1.0,0.8198746470064713,-0.1075,wait_cost,1.0,1.0,533.7347772000358,,sd9,1,2022-05-04_11h18.28.062,threat_forest,2021.2.3,60.10904981482437,False,3.0,0.35,0.4428571428571428,-1.4225000000000003,-0.8745153061224491,0,0,0.0,0.4200545625499478,-0.1075,0.16,0.16,0.2,0.2,-1.0,-0.7200000000000004,1.2799999999999996,1.2799999999999996,0.0,1.0,-1.0,2.0,0,1,0,0,-0.1075,0.683822040156407,0.21620945755273635,0.2681818674921389,0.6655514133393443,0.22259272954134554,0.29487456933554734,0.5841228556416805,0.24292334515868902,0.3081945735185744,0.5207012844746447,0.24957145682109982,0.27028481847814567,0.6255566081822892,0.23423553814175913,0.2968983324315202,0.37840022122517314,0.2352134938019132,0.3166526205756547,0.31465599176549386,0.2156475986115673,0.3049551645471537,0.30434901940740333,0.21172069379315536,0.31208147047907503,0.439023644499825,0.24628188406991622,0.3340979749865929,0.43547793883461944,0.2458369036229709,0.36654833405344367,0.4427708960764194,0.24672482966410406,0.361018555453408
12.0,0.0,12.0,0.0,6.0,0.0,6.0,0.0,,,,left,0.8497134000062943,543.5018163998611,sd9,543.5018163998611,,538.1685029999353,540.1682759998366,True,1.0,['p'],True,0.375,0.5,0.25,1.0,1.0,0.9850568223215076,0.375,succ_gain,0.0,2.0,540.1682759998366,,sd9,1,2022-05-04_11h18.28.062,threat_forest,2021.2.3,60.10904981482437,True,3.0,0.35,0.4428571428571428,-1.4225000000000003,-0.8745153061224491,0,0,1.0,-0.1628561628177226,0.375,1.0,0.375,0.5,0.25,-0.25,-0.125,0.875,1.0,1.0,1.0,-1.0,1.0,1,1,0,0,0.625,0.683822040156407,0.21620945755273635,0.2681818674921389,0.6655514133393443,0.22259272954134554,0.29487456933554734,0.9743929734021234,0.024951306786692256,0.16367025711232736,0.7243219840824757,0.1996796474573015,0.31235835871851425,0.6166599001403831,0.23639046769923586,0.30530587374872553,0.6912800656217636,0.21341193649573384,0.2955371582657761,0.5569322311437979,0.24675872105698918,0.3505948249396238,0.69147823498808,0.2133360855258496,0.31450343951959636,0.439023644499825,0.24628188406991622,0.3340979749865929,0.9854981529216759,0.014291543509641094,0.08630627262728703,0.9619122440380633,0.03663707880772065,0.07706210472878153
12.0,0.0,12.0,0.0,7.0,0.0,7.0,0.0,,,,right,1.764441099949181,548.218648399692,sd9,548.218648399692,,538.1685029999353,540.1682759998366,False,2.0,['p'],True,0.375,0.5,0.25,1.0,1.0,0.9850568223215076,-0.625,wait_cost,0.0,1.0,546.3685030001216,,sd9,1,2022-05-04_11h18.28.062,threat_forest,2021.2.3,60.10904981482437,False,3.0,0.35,0.4428571428571428,-1.4225000000000003,-0.8745153061224491,0,0,0.0,0.5678339829861773,-0.625,0.0,0.375,0.5,0.25,-0.25,-0.125,1.875,1.875,1.0,1.0,1.0,2.0,0,0,0,0,-0.84,0.43209437151841296,0.24538882562052067,0.37170971024216226,0.41818175526389084,0.24330577482830215,0.27812608098915076,0.5841228556416805,0.24292334515868902,0.3081945735185744,0.7243219840824757,0.1996796474573015,0.31235835871851425,0.6166599001403831,0.23639046769923586,0.30530587374872553,0.6912800656217636,0.21341193649573384,0.2955371582657761,0.5569322311437979,0.24675872105698918,0.3505948249396238,0.69147823498808,0.2133360855258496,0.31450343951959636,0.439023644499825,0.24628188406991622,0.3340979749865929,0.24739297554373674,0.1861896911953528,0.2943566142070253,0.01908118423530004,0.01871709264347858,0.05284129391287107
13.0,0.0,13.0,0.0,0.0,0.0,0.0,0.0,553.9893990997225,557.5018865000457,,left,1.1316339997574687,560.8026501000859,sd9,560.8026501000859,,553.9893990997225,557.5018865000457,True,5.0,['r'],True,0.3333333333333333,0.3333333333333333,0.0,0.0,1.0,0.5793801642856949,0.037608671236214,succ_gain,0.0,6.0,,,sd9,1,2022-05-04_11h18.28.062,threat_forest,2021.2.3,60.10904981482437,True,28.0,0.3666666666666667,0.3583333333333333,-1.3400000000000003,-1.3812500000000003,1,0,1.0,0.1236626057322183,0.037608671236214,0.3333333333333333,0.3333333333333333,0.3333333333333333,0.0,-2.220446049250313e-16,-2.220446049250313e-16,5.0,5.0,1.0,1.0,-1.0,5.0,0,1,0,1,0.037608671236214,0.683822040156407,0.21620945755273635,0.2681818674921389,0.6655514133393443,0.22259272954134554,0.29487456933554734,0.5841228556416805,0.24292334515868902,0.3081945735185744,0.7243219840824757,0.1996796474573015,0.31235835871851425,0.6602538518217096,0.22431870297630555,0.2582074150879884,0.5206194675728913,0.24957483755701051,0.33056201285076603,0.6374795765529296,0.23109936603082715,0.32762273042220713,0.6202073444497638,0.23555019434033583,0.34780922084962973,0.7894727006443846,0.16620555558164657,0.2561703304627921,0.6602885401962016,0.22430758388177072,0.34049114619865906,0.692180578394727,0.21306662528786816,0.3155258305635426
13.0,0.0,13.0,0.0,1.0,0.0,1.0,0.0,,,,left,1.7171459002420306,564.6859812997282,sd9,564.6859812997282,,553.9893990997225,557.5018865000457,True,6.0,['r'],True,0.3333333333333333,0.3333333333333333,0.0,0.0,1.0,0.5793801642856949,-0.0910187846364884,unsucc_cost,0.0,4.0,563.952033800073,,sd9,1,2022-05-04_11h18.28.062,threat_forest,2021.2.3,60.10904981482437,True,28.0,0.3666666666666667,0.3583333333333333,-1.3400000000000003,-1.3812500000000003,1,0,1.0,0.5406635522377166,-0.0910187846364884,0.3333333333333333,0.3333333333333333,0.3333333333333333,0.0,-2.220446049250313e-16,-2.220446049250313e-16,6.0,6.0,1.0,1.0,1.0,6.0,0,1,0,1,-0.0910187846364884,0.43209437151841296,0.24538882562052067,0.37170971024216226,0.6655514133393443,0.22259272954134554,0.29487456933554734,0.5841228556416805,0.24292334515868902,0.3081945735185744,0.7243219840824757,0.1996796474573015,0.31235835871851425,0.6602538518217096,0.22431870297630555,0.2582074150879884,0.5206194675728913,0.24957483755701051,0.33056201285076603,0.6374795765529296,0.23109936603082715,0.32762273042220713,0.6202073444497638,0.23555019434033583,0.34780922084962973,0.7894727006443846,0.16620555558164657,0.2561703304627921,0.6602885401962016,0.22430758388177072,0.34049114619865906,0.47208576080265413,0.24922079525003338,0.3643921244788378
13.0,0.0,13.0,0.0,2.0,0.0,2.0,0.0,,,,left,1.253990299999714,572.1023160000332,sd9,572.1023160000332,,553.9893990997225,557.5018865000457,True,4.0,['r'],True,0.3333333333333333,0.3333333333333333,0.0,0.0,1.0,0.5793801642856949,0.0591944197530864,succ_gain,0.0,5.0,568.43534119986,,sd9,1,2022-05-04_11h18.28.062,threat_forest,2021.2.3,60.10904981482437,True,28.0,0.3666666666666667,0.3583333333333333,-1.3400000000000003,-1.3812500000000003,1,0,1.0,0.2263307069333746,0.0591944197530864,0.3333333333333333,0.3333333333333333,0.3333333333333333,0.0,-2.220446049250313e-16,-2.220446049250313e-16,4.0,4.0,1.0,1.0,-1.0,4.0,0,1,0,1,0.0591944197530864,0.683822040156407,0.21620945755273635,0.2681818674921389,0.6655514133393443,0.22259272954134554,0.29487456933554734,0.5841228556416805,0.24292334515868902,0.3081945735185744,0.7243219840824757,0.1996796474573015,0.31235835871851425,0.6602538518217096,0.22431870297630555,0.2582074150879884,0.5206194675728913,0.24957483755701051,0.33056201285076603,0.6374795765529296,0.23109936603082715,0.32762273042220713,0.6202073444497638,0.23555019434033583,0.34780922084962973,0.7894727006443846,0.16620555558164657,0.2561703304627921,0.6602885401962016,0.22430758388177072,0.34049114619865906,0.7241373212457994,0.19976246122475733,0.2975438054725053
13.0,0.0,13.0,0.0,3.0,0.0,3.0,0.0,,,,left,1.7638560002669692,577.1690142001025,sd9,577.1690142001025,,553.9893990997225,557.5018865000457,True,5.0,['r'],True,0.3333333333333333,0.3333333333333333,0.0,0.0,1.0,0.5793801642856949,0.0806148148148148,unsucc_cost,0.0,3.0,575.3854191000573,,sd9,1,2022-05-04_11h18.28.062,threat_forest,2021.2.3,60.10904981482437,True,28.0,0.3666666666666667,0.3583333333333333,-1.3400000000000003,-1.3812500000000003,1,0,1.0,0.5675023217507674,0.0806148148148148,0.3333333333333333,0.3333333333333333,0.3333333333333333,0.0,-2.220446049250313e-16,-2.220446049250313e-16,5.0,5.0,1.0,1.0,1.0,5.0,0,1,0,1,0.0806148148148148,0.43209437151841296,0.24538882562052067,0.37170971024216226,0.6655514133393443,0.22259272954134554,0.29487456933554734,0.5841228556416805,0.24292334515868902,0.3081945735185744,0.7243219840824757,0.1996796474573015,0.31235835871851425,0.6602538518217096,0.22431870297630555,0.2582074150879884,0.5206194675728913,0.24957483755701051,0.33056201285076603,0.6374795765529296,0.23109936603082715,0.32762273042220713,0.6202073444497638,0.23555019434033583,0.34780922084962973,0.7894727006443846,0.16620555558164657,0.2561703304627921,0.6602885401962016,0.22430758388177072,0.34049114619865906,0.7537357586818336,0.18561816476615434,0.2784262500509738
13.0,0.0,13.0,0.0,4.0,0.0,4.0,0.0,,,,left,0.9256730997003616,582.6360824001022,sd9,582.6360824001022,,553.9893990997225,557.5018865000457,True,3.0,['r'],True,0.3333333333333333,0.3333333333333333,0.0,0.0,1.0,0.5793801642856949,0.0825777777777777,succ_gain,0.0,4.0,580.952361300122,,sd9,1,2022-05-04_11h18.28.062,threat_forest,2021.2.3,60.10904981482437,True,28.0,0.3666666666666667,0.3583333333333333,-1.3400000000000003,-1.3812500000000003,1,0,1.0,-0.0772341307453109,0.0825777777777777,0.3333333333333333,0.3333333333333333,0.3333333333333333,0.0,-2.220446049250313e-16,-2.220446049250313e-16,3.0,3.0,1.0,1.0,-1.0,3.0,0,1,0,1,0.0825777777777777,0.683822040156407,0.21620945755273635,0.2681818674921389,0.6655514133393443,0.22259272954134554,0.29487456933554734,0.5841228556416805,0.24292334515868902,0.3081945735185744,0.7243219840824757,0.1996796474573015,0.31235835871851425,0.6602538518217096,0.22431870297630555,0.2582074150879884,0.5206194675728913,0.24957483755701051,0.33056201285076603,0.6374795765529296,0.23109936603082715,0.32762273042220713,0.6202073444497638,0.23555019434033583,0.34780922084962973,0.7894727006443846,0.16620555558164657,0.2561703304627921,0.6602885401962016,0.22430758388177072,0.34049114619865906,0.7563384641375083,0.1842905918036234,0.2766318907654772
13.0,0.0,13.0,0.0,5.0,0.0,5.0,0.0,,,,left,1.7314968002028763,588.5192014998756,sd9,583.5857715997845,585.5856230999343,588.5192014998756,,False,4.0,['r'],False,0.24,0.4,0.4,2.0,1.0,0.9801625908629508,-0.5337333333333334,wait_cost,1.0,3.0,585.5856230999343,,sd9,1,2022-05-04_11h18.28.062,threat_forest,2021.2.3,60.10904981482437,False,28.0,0.3666666666666667,0.3583333333333333,-1.3400000000000003,-1.3812500000000003,0,0,0.0,0.5489862368672237,-0.5337333333333334,0.0,0.24,0.4,0.4,-1.0,-0.6800000000000002,3.32,3.32,0.0,1.0,1.0,4.0,0,0,0,0,-0.84,0.43209437151841296,0.24538882562052067,0.37170971024216226,0.41818175526389084,0.24330577482830215,0.27812608098915076,0.5841228556416805,0.24292334515868902,0.3081945735185744,0.5207012844746447,0.24957145682109982,0.27028481847814567,0.5895188564229434,0.24198637434472844,0.32713852074452443,0.5919322619612679,0.24154845921068477,0.32278822462653534,0.31465599176549386,0.2156475986115673,0.3049551645471537,0.4455221197056556,0.24703216055863506,0.36502421962806925,0.439023644499825,0.24628188406991622,0.3340979749865929,0.24739297554373674,0.1861896911953528,0.2943566142070253,0.03607153945583376,0.03477038349711999,0.07453906293875914
13.0,0.0,13.0,0.0,6.0,0.0,6.0,0.0,,,,left,1.4110662997700274,594.4362276000902,sd9,583.5857715997845,585.5856230999343,594.4362276000902,,False,3.0,['r'],False,0.24,0.4,0.4,2.0,1.0,0.9801625908629508,-0.6568,wait_cost,1.0,2.0,592.2689910996705,,sd9,1,2022-05-04_11h18.28.062,threat_forest,2021.2.3,60.10904981482437,False,28.0,0.3666666666666667,0.3583333333333333,-1.3400000000000003,-1.3812500000000003,0,0,0.0,0.3443456595556071,-0.6568,0.0,0.24,0.4,0.4,-1.0,-0.6800000000000002,2.32,2.32,0.0,1.0,-1.0,3.0,0,0,0,0,-0.84,0.683822040156407,0.21620945755273635,0.2681818674921389,0.41818175526389084,0.24330577482830215,0.27812608098915076,0.5841228556416805,0.24292334515868902,0.3081945735185744,0.5207012844746447,0.24957145682109982,0.27028481847814567,0.5895188564229434,0.24198637434472844,0.32713852074452443,0.5919322619612679,0.24154845921068477,0.32278822462653534,0.31465599176549386,0.2156475986115673,0.3049551645471537,0.4455221197056556,0.24703216055863506,0.36502421962806925,0.439023644499825,0.24628188406991622,0.3340979749865929,0.24739297554373674,0.1861896911953528,0.2943566142070253,0.015250795031077896,0.01501820828199795,0.04784184929677411
13.0,0.0,13.0,0.0,7.0,0.0,7.0,0.0,,,,left,1.1715535996481776,601.3695733998902,sd9,583.5857715997845,585.5856230999343,601.3695733998902,,False,2.0,['r'],False,0.24,0.4,0.4,2.0,1.0,0.9801625908629508,-0.76,wait_cost,1.0,1.0,597.8691638996825,,sd9,1,2022-05-04_11h18.28.062,threat_forest,2021.2.3,60.10904981482437,False,28.0,0.3666666666666667,0.3583333333333333,-1.3400000000000003,-1.3812500000000003,0,0,0.0,0.1583307309264836,-0.76,0.0,0.24,0.4,0.4,-1.0,-0.6800000000000002,1.3199999999999998,1.3199999999999998,0.0,1.0,-1.0,2.0,0,0,0,0,-0.84,0.683822040156407,0.21620945755273635,0.2681818674921389,0.41818175526389084,0.24330577482830215,0.27812608098915076,0.5841228556416805,0.24292334515868902,0.3081945735185744,0.5207012844746447,0.24957145682109982,0.27028481847814567,0.5895188564229434,0.24198637434472844,0.32713852074452443,0.5919322619612679,0.24154845921068477,0.32278822462653534,0.31465599176549386,0.2156475986115673,0.3049551645471537,0.4455221197056556,0.24703216055863506,0.36502421962806925,0.439023644499825,0.24628188406991622,0.3340979749865929,0.24739297554373674,0.1861896911953528,0.2943566142070253,0.007336154350182932,0.007282335189533228,0.03738597522682864
14.0,0.0,14.0,0.0,0.0,0.0,0.0,0.0,606.4545621001162,609.9692509998567,,right,2.5652258996851742,611.4532158998773,sd9,611.4532158998773,,606.4545621001162,609.9692509998567,False,5.0,['r'],True,0.3333333333333333,0.3333333333333333,0.0,0.0,2.0,0.5793801642856949,0.0474629650798488,wait_cost,0.0,4.0,,,sd9,1,2022-05-04_11h18.28.062,threat_forest,2021.2.3,60.10904981482437,False,68.0,0.5,0.4333333333333333,-1.2222222222222223,-1.281111111111111,1,0,0.0,0.942046544797493,0.0474629650798488,0.3333333333333333,0.3333333333333333,0.3333333333333333,0.0,0.3333333333333331,0.3333333333333331,5.333333333333333,5.333333333333333,1.0,2.0,-1.0,5.0,0,1,0,1,0.0474629650798488,0.683822040156407,0.21620945755273635,0.2681818674921389,0.6655514133393443,0.22259272954134554,0.29487456933554734,0.5841228556416805,0.24292334515868902,0.3081945735185744,0.7243219840824757,0.1996796474573015,0.31235835871851425,0.6602538518217096,0.22431870297630555,0.2582074150879884,0.5206194675728913,0.24957483755701051,0.33056201285076603,0.7334248389393061,0.19551284456615903,0.2754177109136358,0.6202073444497638,0.23555019434033583,0.34780922084962973,0.7894727006443846,0.16620555558164657,0.2561703304627921,0.6602885401962016,0.22430758388177072,0.34049114619865906,0.7070246775072544,0.20714078290301727,0.3075164099081418
14.0,0.0,14.0,0.0,1.0,0.0,1.0,0.0,,,,left,0.8431450999341905,616.7864171997644,sd9,616.7864171997644,,606.4545621001162,609.9692509998567,True,4.0,['r'],True,0.3333333333333333,0.3333333333333333,0.0,0.0,2.0,0.5793801642856949,0.0916280864197529,unsucc_cost,0.0,2.0,616.0360999996774,,sd9,1,2022-05-04_11h18.28.062,threat_forest,2021.2.3,60.10904981482437,True,68.0,0.5,0.4333333333333333,-1.2222222222222223,-1.281111111111111,1,0,1.0,-0.1706162125009409,0.0916280864197529,0.3333333333333333,0.3333333333333333,0.3333333333333333,0.0,0.3333333333333331,0.3333333333333331,4.333333333333333,4.333333333333333,1.0,2.0,-1.0,4.0,0,1,0,1,0.0916280864197529,0.683822040156407,0.21620945755273635,0.2681818674921389,0.6655514133393443,0.22259272954134554,0.29487456933554734,0.5841228556416805,0.24292334515868902,0.3081945735185744,0.7243219840824757,0.1996796474573015,0.31235835871851425,0.6602538518217096,0.22431870297630555,0.2582074150879884,0.5206194675728913,0.24957483755701051,0.33056201285076603,0.7334248389393061,0.19551284456615903,0.2754177109136358,0.6202073444497638,0.23555019434033583,0.34780922084962973,0.7894727006443846,0.16620555558164657,0.2561703304627921,0.6602885401962016,0.22430758388177072,0.34049114619865906,0.7680955801023563,0.17812475992958102,0.2682980982069823
14.0,0.0,14.0,0.0,2.0,0.0,2.0,0.0,,,,right,2.2595456996932626,621.0365610998124,sd9,617.6529414998367,619.6528711998835,621.0365610998124,,True,2.0,['r'],False,0.2222222222222222,0.6666666666666666,0.6666666666666666,2.0,2.0,0.77250688571426,-0.0090020576131686,figh_cost,1.0,0.0,619.6528711998835,,sd9,1,2022-05-04_11h18.28.062,threat_forest,2021.2.3,60.10904981482437,True,68.0,0.5,0.4333333333333333,-1.2222222222222223,-1.281111111111111,0,0,1.0,0.815163775242562,-0.0090020576131686,0.2222222222222222,0.2222222222222222,0.6666666666666666,0.6666666666666666,-0.3333333333333335,-0.7777777777777779,1.222222222222222,1.222222222222222,0.0,2.0,-1.0,2.0,0,1,0,0,-0.0090020576131686,0.683822040156407,0.21620945755273635,0.2681818674921389,0.6655514133393443,0.22259272954134554,0.29487456933554734,0.5841228556416805,0.24292334515868902,0.3081945735185744,0.5207012844746447,0.24957145682109982,0.27028481847814567,0.5400003544943581,0.2483999716403257,0.35216141955231184,0.8219618910611536,0.14634054070432595,0.2305764992626227,0.5291703281767925,0.24914909195405824,0.3541014716749083,0.4124449181106893,0.24233410763535615,0.35798039335322845,0.439023644499825,0.24628188406991622,0.3340979749865929,0.5180417868124856,0.24967449392861277,0.37119301454989473,0.6168477380987518,0.23634660610120545,0.34699125726141616
15.0,0.0,15.0,0.0,0.0,0.0,0.0,0.0,628.6436366997659,632.1529184998944,,right,2.0190340001136065,635.1540640001185,sd9,635.1540640001185,,628.6436366997659,632.1529184998944,False,5.0,['r'],True,0.25,0.25,0.0,0.0,1.0,0.5118595071429148,0.0173976500804358,wait_cost,0.0,4.0,,,sd9,1,2022-05-04_11h18.28.062,threat_forest,2021.2.3,60.10904981482437,False,32.0,0.2678571428571428,0.3839285714285714,-1.461734693877551,-1.3419784580498866,1,0,0.0,0.7026191792649884,0.0173976500804358,0.25,0.25,0.25,0.0,-0.25,-0.25,4.75,4.75,1.0,1.0,-1.0,5.0,0,1,0,1,0.0173976500804358,0.683822040156407,0.21620945755273635,0.2681818674921389,0.6655514133393443,0.22259272954134554,0.29487456933554734,0.5841228556416805,0.24292334515868902,0.3081945735185744,0.7243219840824757,0.1996796474573015,0.31235835871851425,0.6602538518217096,0.22431870297630555,0.2582074150879884,0.4306331807905763,0.24518824439276712,0.3263134657709618,0.5569322311437979,0.24675872105698918,0.3505948249396238,0.46436218320798905,0.24872994601429912,0.3675697222005057,0.7894727006443846,0.16620555558164657,0.2561703304627921,0.5548518387782523,0.2469912757826446,0.367945484199409,0.6604823430994545,0.22424541755330898,0.3306351844508734
