miniblock.thisRepN,miniblock.thisTrialN,miniblock.thisN,miniblock.thisIndex,day.thisRepN,day.thisTrialN,day.thisN,day.thisIndex,forest.started,fixation_forest.started,fixation_forest.stopped,key_resp.keys,key_resp.rt,key_resp.started,Subject_ID,weather_left.started,weather_left.stopped,weather_right.started,weather_right.stopped,foraging T/F,in_LP,p/r heuristic,good_weather.T/F,p_succ_correct,p_succ_uncorrected,r_threat,n_oponents,gain_if_succ,weather_entropy,OP_value_difference,action_outcome,forest_side_L=0_R=1,out_LP,fixation_day.started,fixation_day.stopped,participant,session,date,expName,psychopyVersion,frameRate,foraging T/F NaNs,fora_NR,forest_mean_p,mvt_cutoff_p,forest_mean_ev,mvt_cutoff_ev,mvt_policy_eg,mvt_policy_p,fora_response,logRT,optimal policy,$\mathit{p}$ success cor + cap,$\mathit{p}$ success cor,$\mathit{p}$ success,risk threat encounter,expected gain naive,expected gain correct,expected state no bounds,expected state with bounds,weather type,gain magnitude,win stay lose shift,continuous energy state,binary energy state,$\mathit{p}$ success based MVT,expected gain based MVT,weather type fit,weather type_uncertain,weather type_uncertain_fit,risk threat encounter fit,risk threat encounter_uncertain,risk threat encounter_uncertain_fit,win stay lose shift fit,win stay lose shift_uncertain,win stay lose shift_uncertain_fit,$\mathit{p}$ success fit,$\mathit{p}$ success_uncertain,$\mathit{p}$ success_uncertain_fit,expected gain naive fit,expected gain naive_uncertain,expected gain naive_uncertain_fit,expected gain based MVT fit,expected gain based MVT_uncertain,expected gain based MVT_uncertain_fit,$\mathit{p}$ success cor fit,$\mathit{p}$ success cor_uncertain,$\mathit{p}$ success cor_uncertain_fit,binary energy state fit,binary energy state_uncertain,binary energy state_uncertain_fit,$\mathit{p}$ success cor + cap fit,$\mathit{p}$ success cor + cap_uncertain,$\mathit{p}$ success cor + cap_uncertain_fit,optimal policy fit,optimal policy_uncertain,optimal policy_uncertain_fit
0.0,0.0,0.0,0.0,0.0,0.0,0.0,0.0,51.753421899979,55.26262749999296,None,left,2.230377099942416,57.26937460002955,uk5,57.26937460002955,None,51.753421899979,55.26262749999296,True,4.0,['p'],True,0.2448979591836734,0.2857142857142857,0.1428571428571428,1.0,1.0,0.8400769154957735,0.0043475630520346,unsucc_cost,0.0,2.0,,,uk5,1,2022-04-08_15h17.55.971,threat_forest,2021.2.3,60.134532979497365,True,69.0,0.3928571428571428,0.3928571428571428,-1.2665816326530612,-1.2665816326530612,0,0,1,0.8021706742888987,0.0043475630520346,0.2448979591836734,0.2448979591836734,0.2857142857142857,0.8571428571428572,-1.5714285714285712,-1.4081632653061225,2.591836734693877,2.591836734693877,1.0,1.0,,4.0,0,0,0,0.3316073180597653,0.22164390466897493,0.48574740465302596,0.41498995055924404,0.24277329149408025,0.5191304271179367,,,,0.36069218207488646,0.23059333186494346,0.5518141190266985,0.3056463765554031,0.21222666905395582,0.5417165348344425,0.2974374526803986,0.20896841442339426,0.5040505223923721,0.32433373724007214,0.21914136412795998,0.5308289051568233,0.2624734799421321,0.19358115226919928,0.5512492101857411,0.16671940198106738,0.13892404298414265,0.5140185730043995,0.23360827852370245,0.1790354507288947,0.5302299947363848
0.0,0.0,0.0,0.0,1.0,0.0,1.0,0.0,,,,left,2.665066199959256,64.05943499994464,uk5,64.05943499994464,None,51.753421899979,55.26262749999296,True,2.0,['p'],True,0.2448979591836734,0.2857142857142857,0.1428571428571428,1.0,1.0,0.8400769154957735,-0.0014266957065605,unsucc_cost,0.0,0.0,61.53556460002437,None,uk5,1,2022-04-08_15h17.55.971,threat_forest,2021.2.3,60.134532979497365,True,69.0,0.3928571428571428,0.3928571428571428,-1.2665816326530612,-1.2665816326530612,0,0,1,0.9802288978193272,-0.0014266957065605,0.2448979591836734,0.2448979591836734,0.2857142857142857,0.8571428571428572,-1.5714285714285712,-1.4081632653061225,0.5918367346938775,0.5918367346938775,1.0,1.0,-1.0,2.0,0,0,0,0.3316073180597653,0.22164390466897493,0.48574740465302596,0.41498995055924404,0.24277329149408025,0.5191304271179367,0.4419422673305264,0.24662929967727992,0.5075100217710463,0.36069218207488646,0.23059333186494346,0.5518141190266985,0.3056463765554031,0.21222666905395582,0.5417165348344425,0.2974374526803986,0.20896841442339426,0.5040505223923721,0.32433373724007214,0.21914136412795998,0.5308289051568233,0.2624734799421321,0.19358115226919928,0.5512492101857411,0.16671940198106738,0.13892404298414265,0.5140185730043995,0.21364084953215035,0.16799843694333144,0.5197371331705976
1.0,0.0,1.0,0.0,2.0,0.0,2.0,0.0,,,,right,1.8765027000335976,91.76277349994052,uk5,72.38952520000748,75.88887030002661,91.76277349994052,None,True,2.0,['r'],False,0.2222222222222222,0.6666666666666666,0.6666666666666666,2.0,1.0,0.77250688571426,-0.0102184070644718,succ_gain,1.0,3.0,89.95840699994005,None,uk5,1,2022-04-08_15h17.55.971,threat_forest,2021.2.3,60.134532979497365,True,30.0,0.5833333333333333,0.488095238095238,-1.25,-1.2582908163265305,0,0,1,0.6294097784587286,-0.0102184070644718,0.2222222222222222,0.2222222222222222,0.6666666666666666,0.3333333333333333,-2.0,-2.0,0.0,0.0,0.0,1.0,-1.0,2.0,0,0,0,0.462437014802632,0.2485890221430623,0.5356740408202136,0.20964890120293767,0.16569623942733858,0.43833785237196354,0.4419422673305264,0.24662929967727992,0.5075100217710463,0.4411412052451589,0.2465356422800075,0.4544499321614126,0.2501429170359393,0.1875714380926905,0.5859013956419024,0.2974374526803986,0.20896841442339426,0.5040505223923721,0.30971648943464863,0.21379218560692584,0.5399983398456987,0.2624734799421321,0.19358115226919928,0.5512492101857411,0.14429658120453326,0.12347507785721681,0.49474195640148017,0.18568150297565195,0.15120388242835492,0.5037705919477151
1.0,0.0,1.0,0.0,3.0,0.0,3.0,0.0,,,,left,2.9228598999325186,96.36082419997548,uk5,72.38952520000748,75.88887030002661,96.36082419997548,None,False,3.0,['r'],False,0.2222222222222222,0.6666666666666666,0.6666666666666666,2.0,1.0,0.77250688571426,-0.0581490054869684,wait_cost,1.0,2.0,95.68696840002669,None,uk5,1,2022-04-08_15h17.55.971,threat_forest,2021.2.3,60.134532979497365,False,30.0,0.5833333333333333,0.488095238095238,-1.25,-1.2582908163265305,0,0,0,1.0725625547486426,-0.0581490054869684,0.2222222222222222,0.2222222222222222,0.6666666666666666,0.3333333333333333,-2.0,-2.0,1.0,1.0,0.0,1.0,1.0,3.0,0,0,0,0.462437014802632,0.2485890221430623,0.5356740408202136,0.20964890120293767,0.16569623942733858,0.43833785237196354,0.10908643887399,0.09718658772778126,0.5143741952112367,0.4411412052451589,0.2465356422800075,0.4544499321614126,0.2501429170359393,0.1875714380926905,0.5859013956419024,0.2974374526803986,0.20896841442339426,0.5040505223923721,0.30971648943464863,0.21379218560692584,0.5399983398456987,0.2624734799421321,0.19358115226919928,0.5512492101857411,0.14429658120453326,0.12347507785721681,0.49474195640148017,0.08065499545587601,0.07414976716388864,0.4305154361371982
1.0,0.0,1.0,0.0,4.0,0.0,4.0,0.0,,,,right,1.8597737000091,104.98717239999678,uk5,72.38952520000748,75.88887030002661,104.98717239999678,None,True,2.0,['r'],False,0.2222222222222222,0.6666666666666666,0.6666666666666666,2.0,1.0,0.77250688571426,-0.0320216049382716,figh_cost,1.0,0.0,101.31508530001156,None,uk5,1,2022-04-08_15h17.55.971,threat_forest,2021.2.3,60.134532979497365,True,30.0,0.5833333333333333,0.488095238095238,-1.25,-1.2582908163265305,0,0,1,0.6204548136613469,-0.0320216049382716,0.2222222222222222,0.2222222222222222,0.6666666666666666,0.3333333333333333,-2.0,-2.0,0.0,0.0,0.0,1.0,-1.0,2.0,0,0,0,0.462437014802632,0.2485890221430623,0.5356740408202136,0.20964890120293767,0.16569623942733858,0.43833785237196354,0.4419422673305264,0.24662929967727992,0.5075100217710463,0.4411412052451589,0.2465356422800075,0.4544499321614126,0.2501429170359393,0.1875714380926905,0.5859013956419024,0.2974374526803986,0.20896841442339426,0.5040505223923721,0.30971648943464863,0.21379218560692584,0.5399983398456987,0.2624734799421321,0.19358115226919928,0.5512492101857411,0.14429658120453326,0.12347507785721681,0.49474195640148017,0.12866512097352567,0.11211040761839368,0.4666045226398131
2.0,0.0,2.0,0.0,0.0,0.0,0.0,0.0,112.294044499984,115.79657649993896,None,right,2.244588400004432,119.00167869997676,uk5,119.00167869997676,None,112.294044499984,115.79657649993896,False,4.0,['p'],True,0.16,0.2,0.2,2.0,2.0,0.8198746470064713,0.0025632255999997,wait_cost,0.0,3.0,,,uk5,1,2022-04-08_15h17.55.971,threat_forest,2021.2.3,60.134532979497365,False,65.0,0.3,0.4416666666666666,-1.5000000000000002,-1.375,0,0,0,0.8085221636299826,0.0025632255999997,0.16,0.16,0.2,0.8,-1.8000000000000005,-1.5600000000000005,2.4399999999999995,2.4399999999999995,1.0,2.0,-1.0,4.0,0,0,0,0.3316073180597653,0.22164390466897493,0.48574740465302596,0.38919815297566573,0.237722950695996,0.5138366331094614,0.4419422673305264,0.24662929967727992,0.5075100217710463,0.3434577954845525,0.2254945382054438,0.5829538902220937,0.2751906257941102,0.19946074526915622,0.5645944614860395,0.2974374526803986,0.20896841442339426,0.5040505223923721,0.27156106093298926,0.19781565111793856,0.5673849355585322,0.2624734799421321,0.19358115226919928,0.5512492101857411,0.0954130723852161,0.08630941800322962,0.4483680944687372,0.22730247517647065,0.17563605995512058,0.5269982023792996
2.0,0.0,2.0,0.0,1.0,0.0,1.0,0.0,,,,right,2.670764600043185,126.91694789996836,uk5,126.91694789996836,None,112.294044499984,115.79657649993896,False,3.0,['p'],True,0.16,0.2,0.2,2.0,2.0,0.8198746470064713,0.0162975999999998,wait_cost,0.0,2.0,123.27801220002584,None,uk5,1,2022-04-08_15h17.55.971,threat_forest,2021.2.3,60.134532979497365,False,65.0,0.3,0.4416666666666666,-1.5000000000000002,-1.375,0,0,0,0.9823647984743114,0.0162975999999998,0.16,0.16,0.2,0.8,-1.8000000000000005,-1.5600000000000005,1.4399999999999995,1.4399999999999995,1.0,2.0,-1.0,3.0,0,0,0,0.3316073180597653,0.22164390466897493,0.48574740465302596,0.38919815297566573,0.237722950695996,0.5138366331094614,0.4419422673305264,0.24662929967727992,0.5075100217710463,0.3434577954845525,0.2254945382054438,0.5829538902220937,0.2751906257941102,0.19946074526915622,0.5645944614860395,0.2974374526803986,0.20896841442339426,0.5040505223923721,0.27156106093298926,0.19781565111793856,0.5673849355585322,0.2624734799421321,0.19358115226919928,0.5512492101857411,0.0954130723852161,0.08630941800322962,0.4483680944687372,0.27890349775859097,0.2011163366966146,0.5512222381285493
2.0,0.0,2.0,0.0,3.0,0.0,3.0,0.0,,,,left,0.5656504000071436,140.66957809997257,uk5,140.66957809997257,None,112.294044499984,115.79657649993896,True,1.0,['p'],True,0.16,0.2,0.2,2.0,2.0,0.8198746470064713,0.0479999999999999,unsucc_cost,0.0,0.0,138.4463715000311,None,uk5,1,2022-04-08_15h17.55.971,threat_forest,2021.2.3,60.134532979497365,True,65.0,0.3,0.4416666666666666,-1.5000000000000002,-1.375,0,0,1,-0.5697790594462171,0.0479999999999999,1.0,0.16,0.2,0.8,-1.8000000000000005,-1.5600000000000005,-0.5600000000000003,0.0,1.0,2.0,-1.0,1.0,1,0,0,0.3316073180597653,0.22164390466897493,0.48574740465302596,0.38919815297566573,0.237722950695996,0.5138366331094614,0.4419422673305264,0.24662929967727992,0.5075100217710463,0.3434577954845525,0.2254945382054438,0.5829538902220937,0.2751906257941102,0.19946074526915622,0.5645944614860395,0.2974374526803986,0.20896841442339426,0.5040505223923721,0.27156106093298926,0.19781565111793856,0.5673849355585322,0.9999833219516507,1.6677770192003558e-05,0.31530532144651047,0.9834563137416354,0.016269992703349213,0.36097562918046466,0.42112886320863074,0.24377934378123714,0.5917818528954253
3.0,0.0,3.0,0.0,0.0,0.0,0.0,0.0,146.5111040000338,150.0078456000192,None,left,1.6081309000728652,152.1672877999954,uk5,152.1672877999954,None,146.5111040000338,150.0078456000192,True,4.0,['r'],True,0.3333333333333333,0.3333333333333333,0.0,0.0,2.0,0.5793801642856949,0.0326749431231451,succ_gain,0.0,6.0,,,uk5,1,2022-04-08_15h17.55.971,threat_forest,2021.2.3,60.134532979497365,True,10.0,0.3541666666666666,0.3270833333333333,-0.8958333333333335,-1.197916666666667,1,1,1,0.4750725729614762,0.0326749431231451,0.3333333333333333,0.3333333333333333,0.3333333333333333,1.0,-0.6666666666666669,-0.6666666666666669,3.333333333333333,3.333333333333333,1.0,2.0,-1.0,4.0,0,1,1,0.3316073180597653,0.22164390466897493,0.48574740465302596,0.48123343420966636,0.24964781600843708,0.5263363401721655,0.4419422673305264,0.24662929967727992,0.5075100217710463,0.3704276855595349,0.23321101533054125,0.5358271876809253,0.44148277588808715,0.24657573448223616,0.4801592662288755,0.5029406394759635,0.2499913526394724,0.5153860017158963,0.3844735993524095,0.2366536507534124,0.5008097596312953,0.2624734799421321,0.19358115226919928,0.5512492101857411,0.2804604991158672,0.20180240755154585,0.5924757457940442,0.34897697032268066,0.22719204450708355,0.5760123487147168
3.0,0.0,3.0,0.0,1.0,0.0,1.0,0.0,,,,right,2.85388830001466,159.56218939996324,uk5,153.799662000034,155.81406799994875,159.56218939996324,None,True,6.0,['r'],False,0.28125,0.375,0.25,2.0,2.0,0.9634951148421658,-0.1073108765070514,figh_cost,1.0,3.0,155.81406799994875,None,uk5,1,2022-04-08_15h17.55.971,threat_forest,2021.2.3,60.134532979497365,True,10.0,0.3541666666666666,0.3270833333333333,-0.8958333333333335,-1.197916666666667,1,0,1,1.048682380242011,-0.1073108765070514,0.28125,0.28125,0.375,0.75,-1.25,-1.125,4.875,4.875,0.0,2.0,1.0,6.0,0,0,1,0.462437014802632,0.2485890221430623,0.5356740408202136,0.367122893929938,0.2323436746824455,0.5081980474636627,0.10908643887399,0.09718658772778126,0.5143741952112367,0.37903382900915933,0.2353671854758147,0.5226588483704961,0.35147103906936694,0.2279391477648665,0.5135580606399612,0.5029406394759635,0.2499913526394724,0.5153860017158963,0.34848957827364285,0.22704459210830139,0.5172813795859206,0.2624734799421321,0.19358115226919928,0.5512492101857411,0.20834468813172988,0.1649371790590221,0.5464767504056194,0.0318861000820235,0.03086937670358268,0.3893688765299943
3.0,0.0,3.0,0.0,3.0,0.0,3.0,0.0,,,,left,0.6333327000029385,175.2704851999879,uk5,175.2704851999879,None,169.97487879998516,171.9823519999627,True,2.0,['r'],True,0.3333333333333333,0.3333333333333333,0.0,0.0,2.0,0.5793801642856949,0.0278132403338395,unsucc_cost,0.0,0.0,171.9823519999627,None,uk5,1,2022-04-08_15h17.55.971,threat_forest,2021.2.3,60.134532979497365,True,10.0,0.3541666666666666,0.3270833333333333,-0.8958333333333335,-1.197916666666667,1,1,1,-0.4567594024915751,0.0278132403338395,0.3333333333333333,0.3333333333333333,0.3333333333333333,1.0,-0.6666666666666669,-0.6666666666666669,1.333333333333333,1.333333333333333,1.0,2.0,-1.0,2.0,0,1,1,0.3316073180597653,0.22164390466897493,0.48574740465302596,0.48123343420966636,0.24964781600843708,0.5263363401721655,0.4419422673305264,0.24662929967727992,0.5075100217710463,0.3704276855595349,0.23321101533054125,0.5358271876809253,0.44148277588808715,0.24657573448223616,0.4801592662288755,0.5029406394759635,0.2499913526394724,0.5153860017158963,0.3844735993524095,0.2366536507534124,0.5008097596312953,0.2624734799421321,0.19358115226919928,0.5512492101857411,0.2804604991158672,0.20180240755154585,0.5924757457940442,0.327299797181496,0.2201746399464476,0.5693409196455431
4.0,0.0,4.0,0.0,0.0,0.0,0.0,0.0,179.15082300000358,182.6442023999989,None,right,2.275460799923166,184.3391433999641,uk5,184.3391433999641,None,179.15082300000358,182.6442023999989,False,5.0,['r'],True,0.4285714285714285,0.4285714285714285,0.0,0.0,2.0,0.6216097450797565,0.0526055132283747,wait_cost,0.0,4.0,,,uk5,1,2022-04-08_15h17.55.971,threat_forest,2021.2.3,60.134532979497365,False,52.0,0.4365079365079364,0.3953373015873015,-0.5626102292768962,-0.7292217813051148,1,1,0,0.8221825813093265,0.0526055132283747,0.4285714285714285,0.4285714285714285,0.4285714285714285,1.0,-0.285714285714286,-0.285714285714286,4.7142857142857135,4.7142857142857135,1.0,2.0,-1.0,5.0,0,1,1,0.3316073180597653,0.22164390466897493,0.48574740465302596,0.48123343420966636,0.24964781600843708,0.5263363401721655,0.4419422673305264,0.24662929967727992,0.5075100217710463,0.390211054738548,0.2379463874983779,0.5069069340525514,0.5028350537817481,0.24999196247005456,0.47403701337448334,0.5029406394759635,0.2499913526394724,0.5153860017158963,0.4533799220504659,0.24782656833197936,0.4816574098605772,0.2624734799421321,0.19358115226919928,0.5512492101857411,0.44423289694919527,0.2468900302173209,0.6487343241858374,0.443649847441279,0.24682466030660893,0.5946770277448513
4.0,0.0,4.0,0.0,2.0,0.0,2.0,0.0,,,,right,1.6807470000348983,198.5723158000037,uk5,194.5949382999679,196.6091565999668,198.5723158000037,None,True,3.0,['r'],False,0.345679012345679,0.4444444444444444,0.2222222222222222,2.0,2.0,0.9685033186841367,0.0990173518329796,figh_cost,1.0,0.0,196.6091565999668,None,uk5,1,2022-04-08_15h17.55.971,threat_forest,2021.2.3,60.134532979497365,True,52.0,0.4365079365079364,0.3953373015873015,-0.5626102292768962,-0.7292217813051148,0,0,1,0.519238337468732,0.0990173518329796,0.345679012345679,0.345679012345679,0.4444444444444444,0.7777777777777778,-0.888888888888889,-0.8395061728395062,2.1604938271604937,2.1604938271604937,0.0,2.0,-1.0,3.0,0,0,0,0.462437014802632,0.2485890221430623,0.5356740408202136,0.37932473208645673,0.23543747971399456,0.511440990305385,0.4419422673305264,0.24662929967727992,0.5075100217710463,0.39354568045254124,0.23866747784968753,0.502503031864991,0.40638489477810263,0.24123621207429305,0.48972827228458565,0.2974374526803986,0.20896841442339426,0.5040505223923721,0.3932091638404837,0.23859571731235132,0.4974807152923157,0.2624734799421321,0.19358115226919928,0.5512492101857411,0.29962559816901974,0.20985009909087685,0.602517341659379,0.6678626363494512,0.22182213531781186,0.5709071893991076
5.0,0.0,5.0,0.0,0.0,0.0,0.0,0.0,205.99632030003704,209.4972697000485,None,right,1.466617799946107,213.2596289999783,uk5,213.2596289999783,None,205.99632030003704,209.4972697000485,False,5.0,['r'],True,0.25,0.5,0.5,2.0,1.0,0.9463946303571862,-0.0116810922923564,wait_cost,0.0,4.0,,,uk5,1,2022-04-08_15h17.55.971,threat_forest,2021.2.3,60.134532979497365,False,43.0,0.4166666666666666,0.4265873015873015,-1.375,-0.968805114638448,0,0,0,0.3829589334824781,-0.0116810922923564,0.25,0.25,0.5,0.5,-2.0,-1.75,3.25,3.25,1.0,1.0,-1.0,5.0,0,0,0,0.3316073180597653,0.22164390466897493,0.48574740465302596,0.26618650981897973,0.19533125180936992,0.46940142951681685,0.4419422673305264,0.24662929967727992,0.5075100217710463,0.40529334607037965,0.24103064970145519,0.48807047473996623,0.2501429170359393,0.1875714380926905,0.5859013956419024,0.2974374526803986,0.20896841442339426,0.5040505223923721,0.3276717198470536,0.22030296385952763,0.5288377185042668,0.2624734799421321,0.19358115226919928,0.5512492101857411,0.17213309179646766,0.1425032905050565,0.5184846185693126,0.18131446769567516,0.14843953149990913,0.501142530392752
5.0,0.0,5.0,0.0,2.0,0.0,2.0,0.0,,,,left,2.2160843999590725,226.0672335999552,uk5,214.74957139999609,216.75711999996565,226.0672335999552,None,False,3.0,['r'],False,0.3333333333333333,0.3333333333333333,0.0,0.0,1.0,0.5793801642856949,0.0478897408693415,wait_cost,1.0,2.0,223.9003957000096,None,uk5,1,2022-04-08_15h17.55.971,threat_forest,2021.2.3,60.134532979497365,False,43.0,0.4166666666666666,0.4265873015873015,-1.375,-0.968805114638448,0,0,0,0.7957418547838905,0.0478897408693415,0.3333333333333333,0.3333333333333333,0.3333333333333333,1.0,-1.0000000000000002,-1.0000000000000002,2.0,2.0,0.0,1.0,-1.0,3.0,0,0,0,0.462437014802632,0.2485890221430623,0.5356740408202136,0.48123343420966636,0.24964781600843708,0.5263363401721655,0.4419422673305264,0.24662929967727992,0.5075100217710463,0.3704276855595349,0.23321101533054125,0.5358271876809253,0.3891652530288564,0.23771565886384255,0.49603748730728797,0.2974374526803986,0.20896841442339426,0.5040505223923721,0.3844735993524095,0.2366536507534124,0.5008097596312953,0.2624734799421321,0.19358115226919928,0.5512492101857411,0.2804604991158672,0.20180240755154585,0.5924757457940442,0.4205933129561768,0.24369457805272432,0.5917012663280722
5.0,0.0,5.0,0.0,3.0,0.0,3.0,0.0,,,,left,2.7842953999061137,233.7262821999612,uk5,214.74957139999609,216.75711999996565,233.7262821999612,None,False,2.0,['r'],False,0.3333333333333333,0.3333333333333333,0.0,0.0,1.0,0.5793801642856949,0.0266203703703703,wait_cost,1.0,1.0,230.32762470003212,None,uk5,1,2022-04-08_15h17.55.971,threat_forest,2021.2.3,60.134532979497365,False,43.0,0.4166666666666666,0.4265873015873015,-1.375,-0.968805114638448,0,0,0,1.0239948431314148,0.0266203703703703,0.3333333333333333,0.3333333333333333,0.3333333333333333,1.0,-1.0000000000000002,-1.0000000000000002,0.9999999999999998,0.9999999999999998,0.0,1.0,-1.0,2.0,0,0,0,0.462437014802632,0.2485890221430623,0.5356740408202136,0.48123343420966636,0.24964781600843708,0.5263363401721655,0.4419422673305264,0.24662929967727992,0.5075100217710463,0.3704276855595349,0.23321101533054125,0.5358271876809253,0.3891652530288564,0.23771565886384255,0.49603748730728797,0.2974374526803986,0.20896841442339426,0.5040505223923721,0.3844735993524095,0.2366536507534124,0.5008097596312953,0.2624734799421321,0.19358115226919928,0.5512492101857411,0.2804604991158672,0.20180240755154585,0.5924757457940442,0.32208755073264533,0.21834716039569096,0.5676035393801059
5.0,0.0,5.0,0.0,4.0,0.0,4.0,0.0,,,,left,2.1230023000389338,240.3763230999466,uk5,240.3763230999466,None,236.5387703999877,238.55298729997594,True,1.0,['r'],True,0.25,0.5,0.5,2.0,1.0,0.9463946303571862,0.078125,unsucc_cost,0.0,0.0,238.552987299976,None,uk5,1,2022-04-08_15h17.55.971,threat_forest,2021.2.3,60.134532979497365,True,43.0,0.4166666666666666,0.4265873015873015,-1.375,-0.968805114638448,0,0,1,0.7528312661114571,0.078125,1.0,0.25,0.5,0.5,-2.0,-1.75,-0.75,0.0,1.0,1.0,-1.0,1.0,1,0,0,0.3316073180597653,0.22164390466897493,0.48574740465302596,0.26618650981897973,0.19533125180936992,0.46940142951681685,0.4419422673305264,0.24662929967727992,0.5075100217710463,0.40529334607037965,0.24103064970145519,0.48807047473996623,0.2501429170359393,0.1875714380926905,0.5859013956419024,0.2974374526803986,0.20896841442339426,0.5040505223923721,0.3276717198470536,0.22030296385952763,0.5288377185042668,0.9999833219516507,1.6677770192003558e-05,0.31530532144651047,0.9834563137416354,0.016269992703349213,0.36097562918046466,0.5700832074645149,0.24508834403148577,0.5930263161789093
6.0,0.0,6.0,0.0,0.0,0.0,0.0,0.0,246.5316539000487,250.03427699999884,None,left,1.873886200017296,250.75236389995555,uk5,246.5316539000487,250.03427699999884,250.75236389995555,None,False,5.0,['p'],False,0.21875,0.25,0.125,1.0,1.0,0.7908280489481783,-0.003347083026002,wait_cost,1.0,4.0,,,uk5,1,2022-04-08_15h17.55.971,threat_forest,2021.2.3,60.134532979497365,False,61.0,0.325,0.3708333333333333,-1.354375,-1.3646875,0,0,0,0.628014456261195,-0.003347083026002,0.21875,0.21875,0.25,0.875,-1.625,-1.46875,3.53125,3.53125,0.0,1.0,-1.0,5.0,0,0,0,0.462437014802632,0.2485890221430623,0.5356740408202136,0.42315365345702755,0.24409463902299744,0.5205154706053681,0.4419422673305264,0.24662929967727992,0.5075100217710463,0.3534644793337362,0.228527341183067,0.5644317069154707,0.2983400843274816,0.20933327841095276,0.5469018061881583,0.2974374526803986,0.20896841442339426,0.5040505223923721,0.3075104892673644,0.21294778825791058,0.5414457857129116,0.2624734799421321,0.19358115226919928,0.5512492101857411,0.14109357617959445,0.12118617894044743,0.49188595753690245,0.2072820904818435,0.16431622544732036,0.5162364638560286
6.0,0.0,6.0,0.0,1.0,0.0,1.0,0.0,,,,left,1.2235708999214694,257.4764622000512,uk5,257.4764622000512,None,252.6570439999923,254.6717336999718,True,4.0,['p'],True,0.32,0.4,0.2,1.0,1.0,0.9455672104350704,0.0367450763052585,unsucc_cost,0.0,2.0,254.6717336999718,None,uk5,1,2022-04-08_15h17.55.971,threat_forest,2021.2.3,60.134532979497365,True,61.0,0.325,0.3708333333333333,-1.354375,-1.3646875,1,0,1,0.2017735506658354,0.0367450763052585,0.32,0.32,0.4,0.8,-1.4,-1.24,2.76,2.76,1.0,1.0,-1.0,4.0,0,0,1,0.3316073180597653,0.22164390466897493,0.48574740465302596,0.38919815297566573,0.237722950695996,0.5138366331094614,0.4419422673305264,0.24662929967727992,0.5075100217710463,0.38423469390766185,0.23659839390534726,0.5151395111802071,0.3296798242739255,0.22099103774063908,0.5260098310077879,0.5029406394759635,0.2499913526394724,0.5153860017158963,0.3751223113319159,0.23440556287291703,0.504663378446595,0.2624734799421321,0.19358115226919928,0.5512492101857411,0.26062483899674227,0.1926995322946644,0.5811175328089379,0.36762262732631673,0.23247623120401278,0.5810360118699789
6.0,0.0,6.0,0.0,2.0,0.0,2.0,0.0,,,,right,2.1243031000485644,263.4065699999919,uk5,263.4065699999919,None,252.6570439999923,254.6717336999718,False,2.0,['p'],True,0.32,0.4,0.2,1.0,1.0,0.9455672104350704,0.0225587820034484,wait_cost,0.0,1.0,260.7325295000337,None,uk5,1,2022-04-08_15h17.55.971,threat_forest,2021.2.3,60.134532979497365,False,61.0,0.325,0.3708333333333333,-1.354375,-1.3646875,1,0,0,0.7534437956697388,0.0225587820034484,0.32,0.32,0.4,0.8,-1.4,-1.24,0.76,0.76,1.0,1.0,-1.0,2.0,0,0,1,0.3316073180597653,0.22164390466897493,0.48574740465302596,0.38919815297566573,0.237722950695996,0.5138366331094614,0.4419422673305264,0.24662929967727992,0.5075100217710463,0.38423469390766185,0.23659839390534726,0.5151395111802071,0.3296798242739255,0.22099103774063908,0.5260098310077879,0.5029406394759635,0.2499913526394724,0.5153860017158963,0.3751223113319159,0.23440556287291703,0.504663378446595,0.2624734799421321,0.19358115226919928,0.5512492101857411,0.26062483899674227,0.1926995322946644,0.5811175328089379,0.3046749072222914,0.21184810813137953,0.5614249065503241
6.0,0.0,6.0,0.0,3.0,0.0,3.0,0.0,,,,left,1.9050788000458847,270.24405540002044,uk5,270.24405540002044,None,252.6570439999923,254.6717336999718,True,1.0,['p'],True,0.32,0.4,0.2,1.0,1.0,0.9455672104350704,0.0364120585156251,succ_gain,0.0,2.0,267.5764564999845,None,uk5,1,2022-04-08_15h17.55.971,threat_forest,2021.2.3,60.134532979497365,True,61.0,0.325,0.3708333333333333,-1.354375,-1.3646875,1,0,1,0.6445233725766452,0.0364120585156251,1.0,0.32,0.4,0.8,-1.4,-1.24,-0.24,0.0,1.0,1.0,-1.0,1.0,1,0,1,0.3316073180597653,0.22164390466897493,0.48574740465302596,0.38919815297566573,0.237722950695996,0.5138366331094614,0.4419422673305264,0.24662929967727992,0.5075100217710463,0.38423469390766185,0.23659839390534726,0.5151395111802071,0.3296798242739255,0.22099103774063908,0.5260098310077879,0.5029406394759635,0.2499913526394724,0.5153860017158963,0.3751223113319159,0.23440556287291703,0.504663378446595,0.9999833219516507,1.6677770192003558e-05,0.31530532144651047,0.9834563137416354,0.016269992703349213,0.36097562918046466,0.36608118519077276,0.23206575104009192,0.5806457693986722
6.0,0.0,6.0,0.0,4.0,0.0,4.0,0.0,,,,left,2.6530718998983502,274.7153233999852,uk5,272.1724034999497,274.1869512000121,274.7153233999852,None,False,2.0,['p'],False,0.21875,0.25,0.125,1.0,1.0,0.7908280489481783,0.0130215454101562,wait_cost,1.0,1.0,274.1869512000121,None,uk5,1,2022-04-08_15h17.55.971,threat_forest,2021.2.3,60.134532979497365,False,61.0,0.325,0.3708333333333333,-1.354375,-1.3646875,0,0,0,0.9757181761447,0.0130215454101562,0.21875,0.21875,0.25,0.875,-1.625,-1.46875,0.53125,0.53125,0.0,1.0,1.0,2.0,0,0,0,0.462437014802632,0.2485890221430623,0.5356740408202136,0.42315365345702755,0.24409463902299744,0.5205154706053681,0.10908643887399,0.09718658772778126,0.5143741952112367,0.3534644793337362,0.228527341183067,0.5644317069154707,0.2983400843274816,0.20933327841095276,0.5469018061881583,0.2974374526803986,0.20896841442339426,0.5040505223923721,0.3075104892673644,0.21294778825791058,0.5414457857129116,0.2624734799421321,0.19358115226919928,0.5512492101857411,0.14109357617959445,0.12118617894044743,0.49188595753690245,0.26596491509460496,0.19522757903332455,0.5456238108586482
6.0,0.0,6.0,0.0,5.0,0.0,5.0,0.0,,,,left,0.5583721000002697,281.85601300001144,uk5,281.85601300001144,None,277.4010673000012,279.4151902999729,True,1.0,['p'],True,0.32,0.4,0.2,1.0,1.0,0.9455672104350704,0.0943,figh_cost,0.0,0.0,279.4151902999729,None,uk5,1,2022-04-08_15h17.55.971,threat_forest,2021.2.3,60.134532979497365,True,61.0,0.325,0.3708333333333333,-1.354375,-1.3646875,1,0,1,-0.5827296929651238,0.0943,1.0,0.32,0.4,0.8,-1.4,-1.24,-0.24,0.0,1.0,1.0,-1.0,1.0,1,0,1,0.3316073180597653,0.22164390466897493,0.48574740465302596,0.38919815297566573,0.237722950695996,0.5138366331094614,0.4419422673305264,0.24662929967727992,0.5075100217710463,0.38423469390766185,0.23659839390534726,0.5151395111802071,0.3296798242739255,0.22099103774063908,0.5260098310077879,0.5029406394759635,0.2499913526394724,0.5153860017158963,0.3751223113319159,0.23440556287291703,0.504663378446595,0.9999833219516507,1.6677770192003558e-05,0.31530532144651047,0.9834563137416354,0.016269992703349213,0.36097562918046466,0.6466911907456964,0.22848169455760967,0.5772384158114329
7.0,0.0,7.0,0.0,0.0,0.0,0.0,0.0,285.0828769999789,288.5873060999438,None,right,2.34386020002421,290.80080800002906,uk5,285.0828769999789,288.5873060999438,290.80080800002906,None,True,5.0,['p'],False,0.1728395061728395,0.2222222222222222,0.2222222222222222,2.0,2.0,0.8571721972794328,-0.0270759260606772,unsucc_cost,1.0,3.0,,,uk5,1,2022-04-08_15h17.55.971,threat_forest,2021.2.3,60.134532979497365,True,59.0,0.3611111111111111,0.3430555555555555,-1.1404320987654322,-1.247403549382716,0,0,1,0.8517992283082367,-0.0270759260606772,0.1728395061728395,0.1728395061728395,0.2222222222222222,0.7777777777777778,-1.7777777777777777,-1.5308641975308643,3.469135802469136,3.469135802469136,0.0,2.0,-1.0,5.0,0,0,0,0.462437014802632,0.2485890221430623,0.5356740408202136,0.37932473208645673,0.23543747971399456,0.511440990305385,0.4419422673305264,0.24662929967727992,0.5075100217710463,0.34788868975286585,0.2268621492949001,0.5746015035098742,0.27806780198098063,0.20074609948244676,0.5622909666580354,0.2974374526803986,0.20896841442339426,0.5040505223923721,0.2791893781053271,0.20124266925848783,0.5615104225106329,0.2624734799421321,0.19358115226919928,0.5512492101857411,0.104103270947044,0.09326577992517035,0.45704797176917106,0.14012457028105002,0.1204896750846011,0.4745706713874594
7.0,0.0,7.0,0.0,1.0,0.0,1.0,0.0,,,,left,1.1247734999051318,295.7594388000434,uk5,295.7594388000434,None,293.1693357999902,295.1839144999394,True,3.0,['p'],True,0.375,0.5,0.25,1.0,2.0,0.9850568223215076,0.0855498346369919,unsucc_cost,0.0,1.0,295.1839144999394,None,uk5,1,2022-04-08_15h17.55.971,threat_forest,2021.2.3,60.134532979497365,True,59.0,0.3611111111111111,0.3430555555555555,-1.1404320987654322,-1.247403549382716,1,1,1,0.1175816819684295,0.0855498346369919,0.375,0.375,0.5,0.75,-0.75,-0.75,2.25,2.25,1.0,2.0,-1.0,3.0,0,1,1,0.3316073180597653,0.22164390466897493,0.48574740465302596,0.367122893929938,0.2323436746824455,0.5081980474636627,0.4419422673305264,0.24662929967727992,0.5075100217710463,0.40529334607037965,0.24103064970145519,0.48807047473996623,0.4282326791141666,0.24484945165286984,0.4832529531892488,0.5029406394759635,0.2499913526394724,0.5153860017158963,0.41422248195004613,0.24264221739718989,0.49054430101850627,0.2624734799421321,0.19358115226919928,0.5512492101857411,0.3479697099661619,0.22688679091222705,0.6237750617541624,0.6059101816302144,0.238783033427055,0.5870318730634968
7.0,0.0,7.0,0.0,2.0,0.0,2.0,0.0,,,,left,0.7085676999995485,300.91784110001754,uk5,300.91784110001754,None,293.1693357999902,295.1839144999394,True,1.0,['p'],True,0.375,0.5,0.25,1.0,2.0,0.9850568223215076,0.1390093416583739,succ_gain,0.0,3.0,298.9303109999746,None,uk5,1,2022-04-08_15h17.55.971,threat_forest,2021.2.3,60.134532979497365,True,59.0,0.3611111111111111,0.3430555555555555,-1.1404320987654322,-1.247403549382716,1,1,1,-0.3445096704297334,0.1390093416583739,1.0,0.375,0.5,0.75,-0.75,-0.75,0.25,0.25,1.0,2.0,-1.0,1.0,1,1,1,0.3316073180597653,0.22164390466897493,0.48574740465302596,0.367122893929938,0.2323436746824455,0.5081980474636627,0.4419422673305264,0.24662929967727992,0.5075100217710463,0.40529334607037965,0.24103064970145519,0.48807047473996623,0.4282326791141666,0.24484945165286984,0.4832529531892488,0.5029406394759635,0.2499913526394724,0.5153860017158963,0.41422248195004613,0.24264221739718989,0.49054430101850627,0.9999833219516507,1.6677770192003558e-05,0.31530532144651047,0.9834563137416354,0.016269992703349213,0.36097562918046466,0.8169016305722675,0.1495733565406381,0.5022204550400651
7.0,0.0,7.0,0.0,3.0,0.0,3.0,0.0,,,,right,2.290270800003782,306.0629237999674,uk5,306.0629237999674,None,293.1693357999902,295.1839144999394,False,3.0,['p'],True,0.375,0.5,0.25,1.0,2.0,0.9850568223215076,0.0924634024249083,wait_cost,0.0,2.0,303.64254979998805,None,uk5,1,2022-04-08_15h17.55.971,threat_forest,2021.2.3,60.134532979497365,False,59.0,0.3611111111111111,0.3430555555555555,-1.1404320987654322,-1.247403549382716,1,1,0,0.8286700638515414,0.0924634024249083,0.375,0.375,0.5,0.75,-0.75,-0.75,2.25,2.25,1.0,2.0,1.0,3.0,0,1,1,0.3316073180597653,0.22164390466897493,0.48574740465302596,0.367122893929938,0.2323436746824455,0.5081980474636627,0.10908643887399,0.09718658772778126,0.5143741952112367,0.40529334607037965,0.24103064970145519,0.48807047473996623,0.4282326791141666,0.24484945165286984,0.4832529531892488,0.5029406394759635,0.2499913526394724,0.5153860017158963,0.41422248195004613,0.24264221739718989,0.49054430101850627,0.2624734799421321,0.19358115226919928,0.5512492101857411,0.3479697099661619,0.22688679091222705,0.6237750617541624,0.6382846209933302,0.23087736359673103,0.5795159724108297
7.0,0.0,7.0,0.0,4.0,0.0,4.0,0.0,,,,right,2.0921582999872044,311.57252040004823,uk5,311.57252040004823,None,293.1693357999902,295.1839144999394,False,2.0,['p'],True,0.375,0.5,0.25,1.0,2.0,0.9850568223215076,0.1010802469135803,wait_cost,0.0,1.0,310.38638509996235,None,uk5,1,2022-04-08_15h17.55.971,threat_forest,2021.2.3,60.134532979497365,False,59.0,0.3611111111111111,0.3430555555555555,-1.1404320987654322,-1.247403549382716,1,1,0,0.7381962125498509,0.1010802469135803,0.375,0.375,0.5,0.75,-0.75,-0.75,1.25,1.25,1.0,2.0,-1.0,2.0,0,1,1,0.3316073180597653,0.22164390466897493,0.48574740465302596,0.367122893929938,0.2323436746824455,0.5081980474636627,0.4419422673305264,0.24662929967727992,0.5075100217710463,0.40529334607037965,0.24103064970145519,0.48807047473996623,0.4282326791141666,0.24484945165286984,0.4832529531892488,0.5029406394759635,0.2499913526394724,0.5153860017158963,0.41422248195004613,0.24264221739718989,0.49054430101850627,0.2624734799421321,0.19358115226919928,0.5512492101857411,0.3479697099661619,0.22688679091222705,0.6237750617541624,0.6769178524317068,0.2187000734909528,0.5679390529823612
7.0,0.0,7.0,0.0,5.0,0.0,5.0,0.0,,,,right,2.0640728999860585,317.29308430000674,uk5,313.6845558000496,315.6978410000447,317.29308430000674,None,True,1.0,['p'],False,0.1728395061728395,0.2222222222222222,0.2222222222222222,2.0,2.0,0.8571721972794328,0.1728395061728395,unsucc_cost,1.0,0.0,315.6978410000447,None,uk5,1,2022-04-08_15h17.55.971,threat_forest,2021.2.3,60.134532979497365,True,59.0,0.3611111111111111,0.3430555555555555,-1.1404320987654322,-1.247403549382716,0,0,1,0.7246811667562755,0.1728395061728395,1.0,0.1728395061728395,0.2222222222222222,0.7777777777777778,-1.7777777777777777,-1.5308641975308643,-0.5308641975308643,0.0,0.0,2.0,-1.0,1.0,1,0,0,0.462437014802632,0.2485890221430623,0.5356740408202136,0.37932473208645673,0.23543747971399456,0.511440990305385,0.4419422673305264,0.24662929967727992,0.5075100217710463,0.34788868975286585,0.2268621492949001,0.5746015035098742,0.27806780198098063,0.20074609948244676,0.5622909666580354,0.2974374526803986,0.20896841442339426,0.5040505223923721,0.2791893781053271,0.20124266925848783,0.5615104225106329,0.9999833219516507,1.6677770192003558e-05,0.31530532144651047,0.9834563137416354,0.016269992703349213,0.36097562918046466,0.8974920032395006,0.09200010736064876,0.44748571018286515
8.0,0.0,8.0,0.0,0.0,0.0,0.0,0.0,322.4729726000224,325.97152939997613,None,left,2.694907500059344,328.82835149997845,uk5,322.4729726000224,325.97152939997613,328.82835149997845,None,False,5.0,['r'],False,0.5,0.5,0.0,0.0,2.0,0.6309297535714574,0.0630973775,wait_cost,1.0,4.0,,,uk5,1,2022-04-08_15h17.55.971,threat_forest,2021.2.3,60.134532979497365,False,67.0,0.55,0.4555555555555556,-0.4800000000000001,-0.8102160493827162,1,1,0,0.9913638809739026,0.0630973775,0.5,0.5,0.5,1.0,0.0,0.0,5.0,5.0,0.0,2.0,-1.0,5.0,0,1,1,0.462437014802632,0.2485890221430623,0.5356740408202136,0.48123343420966636,0.24964781600843708,0.5263363401721655,0.4419422673305264,0.24662929967727992,0.5075100217710463,0.40529334607037965,0.24103064970145519,0.48807047473996623,0.5488946012734485,0.24760931796631044,0.4783069719855784,0.5029406394759635,0.2499913526394724,0.5153860017158963,0.5064148530952257,0.24995884965976667,0.4780023038855995,0.2624734799421321,0.19358115226919928,0.5512492101857411,0.5780157852482363,0.24391353725210108,0.6450203722647585,0.4956800708972012,0.24998133821254684,0.5976780735819156
8.0,0.0,8.0,0.0,1.0,0.0,1.0,0.0,,,,right,2.2029972000746056,337.2133429000387,uk5,322.4729726000224,325.97152939997613,337.2133429000387,None,True,4.0,['r'],False,0.5,0.5,0.0,0.0,2.0,0.6309297535714574,0.126394,succ_gain,1.0,6.0,333.564747299999,None,uk5,1,2022-04-08_15h17.55.971,threat_forest,2021.2.3,60.134532979497365,True,67.0,0.55,0.4555555555555556,-0.4800000000000001,-0.8102160493827162,1,1,1,0.7898187968591649,0.126394,0.5,0.5,0.5,1.0,0.0,0.0,4.0,4.0,0.0,2.0,-1.0,4.0,0,1,1,0.462437014802632,0.2485890221430623,0.5356740408202136,0.48123343420966636,0.24964781600843708,0.5263363401721655,0.4419422673305264,0.24662929967727992,0.5075100217710463,0.40529334607037965,0.24103064970145519,0.48807047473996623,0.5488946012734485,0.24760931796631044,0.4783069719855784,0.5029406394759635,0.2499913526394724,0.5153860017158963,0.5064148530952257,0.24995884965976667,0.4780023038855995,0.2624734799421321,0.19358115226919928,0.5512492101857411,0.5780157852482363,0.24391353725210108,0.6450203722647585,0.7762762354050251,0.17367144175042715,0.5251304447365179
8.0,0.0,8.0,0.0,2.0,0.0,2.0,0.0,,,,right,1.8985496000386768,343.551552799996,uk5,343.551552799996,None,339.4425691999495,341.45736640004907,False,6.0,['r'],True,0.36,0.6,0.4,2.0,2.0,0.9801625908629508,-0.004455,wait_cost,0.0,5.0,341.45736640004907,None,uk5,1,2022-04-08_15h17.55.971,threat_forest,2021.2.3,60.134532979497365,False,67.0,0.55,0.4555555555555556,-0.4800000000000001,-0.8102160493827162,0,0,0,0.6410902262576765,-0.004455,0.36,0.36,0.6,0.6,-0.8000000000000003,-0.9600000000000002,5.04,5.04,1.0,2.0,1.0,6.0,0,0,0,0.3316073180597653,0.22164390466897493,0.48574740465302596,0.30443508944939524,0.21175436576133397,0.48661622465943266,0.10908643887399,0.09718658772778126,0.5143741952112367,0.42670635977543286,0.24462804230263172,0.46610018333742365,0.42033049505691855,0.24365276998212435,0.48539753715748657,0.2974374526803986,0.20896841442339426,0.5040505223923721,0.4034283266503258,0.24067391190644377,0.493918323510779,0.2624734799421321,0.19358115226919928,0.5512492101857411,0.32276613302917045,0.2185881563985663,0.613420349025296,0.20367766042560145,0.1621930710691549,0.5142179862672785
8.0,0.0,8.0,0.0,4.0,0.0,4.0,0.0,,,,right,1.89989959995728,359.02195880003273,uk5,359.02195880003273,None,353.57903090002947,355.59403549996205,False,4.0,['r'],True,0.36,0.6,0.4,2.0,2.0,0.9801625908629508,0.0536,wait_cost,0.0,3.0,355.59403549996205,None,uk5,1,2022-04-08_15h17.55.971,threat_forest,2021.2.3,60.134532979497365,False,67.0,0.55,0.4555555555555556,-0.4800000000000001,-0.8102160493827162,0,0,0,0.6418010426484531,0.0536,0.36,0.36,0.6,0.6,-0.8000000000000003,-0.9600000000000002,3.04,3.04,1.0,2.0,-1.0,4.0,0,0,0,0.3316073180597653,0.22164390466897493,0.48574740465302596,0.30443508944939524,0.21175436576133397,0.48661622465943266,0.4419422673305264,0.24662929967727992,0.5075100217710463,0.42670635977543286,0.24462804230263172,0.46610018333742365,0.42033049505691855,0.24365276998212435,0.48539753715748657,0.2974374526803986,0.20896841442339426,0.5040505223923721,0.4034283266503258,0.24067391190644377,0.493918323510779,0.2624734799421321,0.19358115226919928,0.5512492101857411,0.32276613302917045,0.2185881563985663,0.613420349025296,0.4485467649990664,0.24735256460793867,0.5951789050516534
8.0,0.0,8.0,0.0,5.0,0.0,5.0,0.0,,,,right,1.112260999972932,363.6945310999872,uk5,360.941226099967,362.9538736999966,363.6945310999872,None,True,3.0,['r'],False,0.5,0.5,0.0,0.0,2.0,0.6309297535714574,0.25,unsucc_cost,1.0,1.0,362.9538736999966,None,uk5,1,2022-04-08_15h17.55.971,threat_forest,2021.2.3,60.134532979497365,True,67.0,0.55,0.4555555555555556,-0.4800000000000001,-0.8102160493827162,1,1,1,0.1063948804936643,0.25,0.5,0.5,0.5,1.0,0.0,0.0,3.0,3.0,0.0,2.0,-1.0,3.0,0,1,1,0.462437014802632,0.2485890221430623,0.5356740408202136,0.48123343420966636,0.24964781600843708,0.5263363401721655,0.4419422673305264,0.24662929967727992,0.5075100217710463,0.40529334607037965,0.24103064970145519,0.48807047473996623,0.5488946012734485,0.24760931796631044,0.4783069719855784,0.5029406394759635,0.2499913526394724,0.5153860017158963,0.5064148530952257,0.24995884965976667,0.4780023038855995,0.2624734799421321,0.19358115226919928,0.5512492101857411,0.5780157852482363,0.24391353725210108,0.6450203722647585,0.976044714446511,0.02338142984753976,0.38225010407043625
8.0,0.0,8.0,0.0,6.0,0.0,6.0,0.0,,,,left,1.444084900082089,369.2911985999672,uk5,369.2911985999672,None,364.8355640999507,366.85038910002913,True,1.0,['r'],True,0.36,0.6,0.4,2.0,2.0,0.9801625908629508,0.36,figh_cost,0.0,0.0,366.85038910002913,None,uk5,1,2022-04-08_15h17.55.971,threat_forest,2021.2.3,60.134532979497365,True,67.0,0.55,0.4555555555555556,-0.4800000000000001,-0.8102160493827162,0,0,1,0.3674758338129708,0.36,1.0,0.36,0.6,0.6,-0.8000000000000003,-0.9600000000000002,0.0399999999999998,0.0399999999999998,1.0,2.0,-1.0,1.0,1,0,0,0.3316073180597653,0.22164390466897493,0.48574740465302596,0.30443508944939524,0.21175436576133397,0.48661622465943266,0.4419422673305264,0.24662929967727992,0.5075100217710463,0.42670635977543286,0.24462804230263172,0.46610018333742365,0.42033049505691855,0.24365276998212435,0.48539753715748657,0.2974374526803986,0.20896841442339426,0.5040505223923721,0.4034283266503258,0.24067391190644377,0.493918323510779,0.9999833219516507,1.6677770192003558e-05,0.31530532144651047,0.9834563137416354,0.016269992703349213,0.36097562918046466,0.9972664090071989,0.002726118473085305,0.3626131508998354
9.0,0.0,9.0,0.0,0.0,0.0,0.0,0.0,376.08773270004895,379.59028550004587,None,left,1.970197599963285,382.44240189995617,uk5,382.44240189995617,None,376.08773270004895,379.59028550004587,True,4.0,['r'],True,0.3333333333333333,0.3333333333333333,0.0,0.0,2.0,0.5793801642856949,0.0326749431231451,succ_gain,0.0,6.0,,,uk5,1,2022-04-08_15h17.55.971,threat_forest,2021.2.3,60.134532979497365,True,40.0,0.3541666666666666,0.4520833333333333,-0.8958333333333335,-0.6879166666666667,1,0,1,0.678133842269623,0.0326749431231451,0.3333333333333333,0.3333333333333333,0.3333333333333333,1.0,-0.6666666666666669,-0.6666666666666669,3.333333333333333,3.333333333333333,1.0,2.0,-1.0,4.0,0,0,1,0.3316073180597653,0.22164390466897493,0.48574740465302596,0.48123343420966636,0.24964781600843708,0.5263363401721655,0.4419422673305264,0.24662929967727992,0.5075100217710463,0.3704276855595349,0.23321101533054125,0.5358271876809253,0.44148277588808715,0.24657573448223616,0.4801592662288755,0.5029406394759635,0.2499913526394724,0.5153860017158963,0.3844735993524095,0.2366536507534124,0.5008097596312953,0.2624734799421321,0.19358115226919928,0.5512492101857411,0.2804604991158672,0.20180240755154585,0.5924757457940442,0.34897697032268066,0.22719204450708355,0.5760123487147168
9.0,0.0,9.0,0.0,1.0,0.0,1.0,0.0,,,,left,1.4426869999151677,387.1216812999919,uk5,384.4337889000308,386.4486246999586,387.1216812999919,None,False,6.0,['r'],False,0.28125,0.375,0.25,2.0,2.0,0.9634951148421658,-0.1073108765070514,wait_cost,1.0,5.0,386.4486246999586,None,uk5,1,2022-04-08_15h17.55.971,threat_forest,2021.2.3,60.134532979497365,False,40.0,0.3541666666666666,0.4520833333333333,-0.8958333333333335,-0.6879166666666667,0,0,0,0.3665073469878164,-0.1073108765070514,0.28125,0.28125,0.375,0.75,-1.25,-1.125,4.875,4.875,0.0,2.0,1.0,6.0,0,0,0,0.462437014802632,0.2485890221430623,0.5356740408202136,0.367122893929938,0.2323436746824455,0.5081980474636627,0.10908643887399,0.09718658772778126,0.5143741952112367,0.37903382900915933,0.2353671854758147,0.5226588483704961,0.35147103906936694,0.2279391477648665,0.5135580606399612,0.2974374526803986,0.20896841442339426,0.5040505223923721,0.34848957827364285,0.22704459210830139,0.5172813795859206,0.2624734799421321,0.19358115226919928,0.5512492101857411,0.20834468813172988,0.1649371790590221,0.5464767504056194,0.0318861000820235,0.03086937670358268,0.3893688765299943
9.0,0.0,9.0,0.0,2.0,0.0,2.0,0.0,,,,left,1.254926300025545,394.34984229994006,uk5,384.4337889000308,386.4486246999586,394.34984229994006,None,False,5.0,['r'],False,0.28125,0.375,0.25,2.0,2.0,0.9634951148421658,-0.0090943703910818,wait_cost,1.0,4.0,390.61117589997593,None,uk5,1,2022-04-08_15h17.55.971,threat_forest,2021.2.3,60.134532979497365,False,40.0,0.3541666666666666,0.4520833333333333,-0.8958333333333335,-0.6879166666666667,0,0,0,0.2270768457801152,-0.0090943703910818,0.28125,0.28125,0.375,0.75,-1.25,-1.125,3.875,3.875,0.0,2.0,-1.0,5.0,0,0,0,0.462437014802632,0.2485890221430623,0.5356740408202136,0.367122893929938,0.2323436746824455,0.5081980474636627,0.4419422673305264,0.24662929967727992,0.5075100217710463,0.37903382900915933,0.2353671854758147,0.5226588483704961,0.35147103906936694,0.2279391477648665,0.5135580606399612,0.2974374526803986,0.20896841442339426,0.5040505223923721,0.34848957827364285,0.22704459210830139,0.5172813795859206,0.2624734799421321,0.19358115226919928,0.5512492101857411,0.20834468813172988,0.1649371790590221,0.5464767504056194,0.18909231567856893,0.1533364118298854,0.5057979823478702
9.0,0.0,9.0,0.0,3.0,0.0,3.0,0.0,,,,left,1.579255299991928,398.1937720000278,uk5,384.4337889000308,386.4486246999586,398.1937720000278,None,False,4.0,['r'],False,0.28125,0.375,0.25,2.0,2.0,0.9634951148421658,-0.0133382655956126,wait_cost,1.0,3.0,397.638081699959,None,uk5,1,2022-04-08_15h17.55.971,threat_forest,2021.2.3,60.134532979497365,False,40.0,0.3541666666666666,0.4520833333333333,-0.8958333333333335,-0.6879166666666667,0,0,0,0.4569534068093588,-0.0133382655956126,0.28125,0.28125,0.375,0.75,-1.25,-1.125,2.875,2.875,0.0,2.0,-1.0,4.0,0,0,0,0.462437014802632,0.2485890221430623,0.5356740408202136,0.367122893929938,0.2323436746824455,0.5081980474636627,0.4419422673305264,0.24662929967727992,0.5075100217710463,0.37903382900915933,0.2353671854758147,0.5226588483704961,0.35147103906936694,0.2279391477648665,0.5135580606399612,0.2974374526803986,0.20896841442339426,0.5040505223923721,0.34848957827364285,0.22704459210830139,0.5172813795859206,0.2624734799421321,0.19358115226919928,0.5512492101857411,0.20834468813172988,0.1649371790590221,0.5464767504056194,0.17646386320803392,0.14532436818973024,0.49818095237866256
9.0,0.0,9.0,0.0,4.0,0.0,4.0,0.0,,,,left,2.4606102000689134,404.6070681000128,uk5,404.6070681000128,None,399.80318940000143,401.8173709999537,True,3.0,['r'],True,0.3333333333333333,0.3333333333333333,0.0,0.0,2.0,0.5793801642856949,0.2178819444444443,succ_gain,0.0,5.0,401.8173709999537,None,uk5,1,2022-04-08_15h17.55.971,threat_forest,2021.2.3,60.134532979497365,True,40.0,0.3541666666666666,0.4520833333333333,-0.8958333333333335,-0.6879166666666667,1,0,1,0.9004093679937535,0.2178819444444443,0.3333333333333333,0.3333333333333333,0.3333333333333333,1.0,-0.6666666666666669,-0.6666666666666669,2.333333333333333,2.333333333333333,1.0,2.0,-1.0,3.0,0,0,1,0.3316073180597653,0.22164390466897493,0.48574740465302596,0.48123343420966636,0.24964781600843708,0.5263363401721655,0.4419422673305264,0.24662929967727992,0.5075100217710463,0.3704276855595349,0.23321101533054125,0.5358271876809253,0.44148277588808715,0.24657573448223616,0.4801592662288755,0.5029406394759635,0.2499913526394724,0.5153860017158963,0.3844735993524095,0.2366536507534124,0.5008097596312953,0.2624734799421321,0.19358115226919928,0.5512492101857411,0.2804604991158672,0.20180240755154585,0.5924757457940442,0.9555222971120804,0.04249943683373358,0.4004255457811533
9.0,0.0,9.0,0.0,5.0,0.0,5.0,0.0,,,,left,1.0254473000532016,410.69424199999776,uk5,407.1271876000101,409.1269820999587,410.69424199999776,None,False,5.0,['r'],False,0.28125,0.375,0.25,2.0,2.0,0.9634951148421658,-0.169921875,wait_cost,1.0,4.0,409.1269820999587,None,uk5,1,2022-04-08_15h17.55.971,threat_forest,2021.2.3,60.134532979497365,False,40.0,0.3541666666666666,0.4520833333333333,-0.8958333333333335,-0.6879166666666667,0,0,0,0.0251289076956253,-0.169921875,0.0,0.28125,0.375,0.75,-1.25,-1.125,3.875,3.875,0.0,2.0,1.0,5.0,0,0,0,0.462437014802632,0.2485890221430623,0.5356740408202136,0.367122893929938,0.2323436746824455,0.5081980474636627,0.10908643887399,0.09718658772778126,0.5143741952112367,0.37903382900915933,0.2353671854758147,0.5226588483704961,0.35147103906936694,0.2279391477648665,0.5135580606399612,0.2974374526803986,0.20896841442339426,0.5040505223923721,0.34848957827364285,0.22704459210830139,0.5172813795859206,0.2624734799421321,0.19358115226919928,0.5512492101857411,0.030596297382578668,0.029660163969055475,0.37768336303938677,0.009369397547585855,0.009281611937181149,0.3688454422379286
9.0,0.0,9.0,0.0,6.0,0.0,6.0,0.0,,,,left,1.1682599000632763,416.8938112000469,uk5,407.1271876000101,409.1269820999587,416.8938112000469,None,False,4.0,['r'],False,0.28125,0.375,0.25,2.0,2.0,0.9634951148421658,-0.1731770833333333,wait_cost,1.0,3.0,413.7562410000246,None,uk5,1,2022-04-08_15h17.55.971,threat_forest,2021.2.3,60.134532979497365,False,40.0,0.3541666666666666,0.4520833333333333,-0.8958333333333335,-0.6879166666666667,0,0,0,0.1555153768302227,-0.1731770833333333,0.0,0.28125,0.375,0.75,-1.25,-1.125,2.875,2.875,0.0,2.0,-1.0,4.0,0,0,0,0.462437014802632,0.2485890221430623,0.5356740408202136,0.367122893929938,0.2323436746824455,0.5081980474636627,0.4419422673305264,0.24662929967727992,0.5075100217710463,0.37903382900915933,0.2353671854758147,0.5226588483704961,0.35147103906936694,0.2279391477648665,0.5135580606399612,0.2974374526803986,0.20896841442339426,0.5040505223923721,0.34848957827364285,0.22704459210830139,0.5172813795859206,0.2624734799421321,0.19358115226919928,0.5512492101857411,0.030596297382578668,0.029660163969055475,0.37768336303938677,0.008786070818260617,0.008708875777837128,0.36830094339517294
9.0,0.0,9.0,0.0,7.0,0.0,7.0,0.0,,,,left,1.5567744000582024,422.6733323000372,uk5,407.1271876000101,409.1269820999587,422.6733323000372,None,False,3.0,['r'],False,0.28125,0.375,0.25,2.0,2.0,0.9634951148421658,-0.25,wait_cost,1.0,2.0,420.1000476999907,None,uk5,1,2022-04-08_15h17.55.971,threat_forest,2021.2.3,60.134532979497365,False,40.0,0.3541666666666666,0.4520833333333333,-0.8958333333333335,-0.6879166666666667,0,0,0,0.4426159883641192,-0.25,0.0,0.28125,0.375,0.75,-1.25,-1.125,1.875,1.875,0.0,2.0,-1.0,3.0,0,0,0,0.462437014802632,0.2485890221430623,0.5356740408202136,0.367122893929938,0.2323436746824455,0.5081980474636627,0.4419422673305264,0.24662929967727992,0.5075100217710463,0.37903382900915933,0.2353671854758147,0.5226588483704961,0.35147103906936694,0.2279391477648665,0.5135580606399612,0.2974374526803986,0.20896841442339426,0.5040505223923721,0.34848957827364285,0.22704459210830139,0.5172813795859206,0.2624734799421321,0.19358115226919928,0.5512492101857411,0.030596297382578668,0.029660163969055475,0.37768336303938677,0.0019139094687555703,0.0019102464193009785,0.36183750336671816
10.0,0.0,10.0,0.0,0.0,0.0,0.0,0.0,429.04672949993983,432.5441050999798,None,left,1.9539586999453604,435.155037199962,uk5,429.04672949993983,432.5441050999798,435.155037199962,None,False,5.0,['p'],False,0.4166666666666667,0.5,0.1666666666666666,1.0,2.0,0.9358932809493992,0.0277169847623575,wait_cost,1.0,4.0,,,uk5,1,2022-04-08_15h17.55.971,threat_forest,2021.2.3,60.134532979497365,False,22.0,0.4166666666666666,0.3854166666666666,-0.7129629629629629,-0.8043981481481481,1,1,0,0.669857417238243,0.0277169847623575,0.4166666666666667,0.4166666666666667,0.5,0.8333333333333334,-0.4999999999999998,-0.4999999999999998,4.5,4.5,0.0,2.0,-1.0,5.0,0,1,1,0.462437014802632,0.2485890221430623,0.5356740408202136,0.40417792103698036,0.2408181291832048,0.5170810156146901,0.4419422673305264,0.24662929967727992,0.5075100217710463,0.40529334607037965,0.24103064970145519,0.48807047473996623,0.4682157964070346,0.2489897644019609,0.4758330615319633,0.5029406394759635,0.2499913526394724,0.5153860017158963,0.4446105259031303,0.24693200615927222,0.48319084707631454,0.2624734799421321,0.19358115226919928,0.5512492101857411,0.4221941504950927,0.2439462497828197,0.645061189685705,0.32687760189033466,0.22002863527275857,0.5692021133652628
10.0,0.0,10.0,0.0,1.0,0.0,1.0,0.0,,,,right,1.7937747000250963,441.3284247999545,uk5,441.3284247999545,None,437.13488599995617,439.14933020004537,False,4.0,['p'],True,0.2962962962962963,0.3333333333333333,0.1111111111111111,1.0,2.0,0.8325252476189534,0.0174761721107346,wait_cost,0.0,3.0,439.14933020004537,None,uk5,1,2022-04-08_15h17.55.971,threat_forest,2021.2.3,60.134532979497365,False,22.0,0.4166666666666666,0.3854166666666666,-0.7129629629629629,-0.8043981481481481,0,0,0,0.5843221704798222,0.0174761721107346,0.2962962962962963,0.2962962962962963,0.3333333333333333,0.8888888888888888,-1.0000000000000002,-0.925925925925926,3.074074074074074,3.074074074074074,1.0,2.0,-1.0,4.0,0,0,0,0.3316073180597653,0.22164390466897493,0.48574740465302596,0.42953258157129404,0.24503434293999368,0.5215004732347792,0.4419422673305264,0.24662929967727992,0.5075100217710463,0.3704276855595349,0.23321101533054125,0.5358271876809253,0.3891652530288564,0.23771565886384255,0.49603748730728797,0.2974374526803986,0.20896841442339426,0.5040505223923721,0.35872932597423013,0.23004259666030466,0.5121422714353048,0.2624734799421321,0.19358115226919928,0.5512492101857411,0.22767785335887394,0.17584064844876904,0.5600816745763326,0.28365147597365964,0.20319331615162403,0.5531968173326547
10.0,0.0,10.0,0.0,2.0,0.0,2.0,0.0,,,,right,1.6813469999469817,447.6036976999603,uk5,443.149057499948,445.16036229999736,447.6036976999603,None,True,3.0,['p'],False,0.4166666666666667,0.5,0.1666666666666666,1.0,2.0,0.9358932809493992,0.1425273693510899,figh_cost,1.0,0.0,445.16036229999736,None,uk5,1,2022-04-08_15h17.55.971,threat_forest,2021.2.3,60.134532979497365,True,22.0,0.4166666666666666,0.3854166666666666,-0.7129629629629629,-0.8043981481481481,1,1,1,0.519595257839463,0.1425273693510899,0.4166666666666667,0.4166666666666667,0.5,0.8333333333333334,-0.4999999999999998,-0.4999999999999998,2.5,2.5,0.0,2.0,-1.0,3.0,0,1,1,0.462437014802632,0.2485890221430623,0.5356740408202136,0.40417792103698036,0.2408181291832048,0.5170810156146901,0.4419422673305264,0.24662929967727992,0.5075100217710463,0.40529334607037965,0.24103064970145519,0.48807047473996623,0.4682157964070346,0.2489897644019609,0.4758330615319633,0.5029406394759635,0.2499913526394724,0.5153860017158963,0.4446105259031303,0.24693200615927222,0.48319084707631454,0.2624734799421321,0.19358115226919928,0.5512492101857411,0.4221941504950927,0.2439462497828197,0.645061189685705,0.8271558018126337,0.14296908134033268,0.49594178702663827
11.0,0.0,11.0,0.0,0.0,0.0,0.0,0.0,454.1399920999538,457.6346023000078,None,right,1.9132539000129327,458.37687689997256,uk5,458.37687689997256,None,454.1399920999538,457.6346023000078,False,5.0,['p'],True,0.4444444444444445,0.6666666666666666,0.3333333333333333,1.0,1.0,0.9656336071428248,0.0492535467687539,wait_cost,0.0,4.0,,,uk5,1,2022-04-08_15h17.55.971,threat_forest,2021.2.3,60.134532979497365,False,39.0,0.4333333333333333,0.425,-1.2000000000000002,-0.9564814814814816,0,1,0,0.6488054051288827,0.0492535467687539,0.4444444444444445,0.4444444444444445,0.6666666666666666,0.6666666666666667,-1.0,-1.0,4.0,4.0,1.0,1.0,-1.0,5.0,0,1,0,0.3316073180597653,0.22164390466897493,0.48574740465302596,0.331574529606228,0.22163286092263665,0.4969709156770159,0.4419422673305264,0.24662929967727992,0.5075100217710463,0.4411412052451589,0.2465356422800075,0.4544499321614126,0.3891652530288564,0.23771565886384252,0.496037487307288,0.2974374526803986,0.20896841442339426,0.5040505223923721,0.46511667334733453,0.2487831535216434,0.48001765426324966,0.2624734799421321,0.19358115226919928,0.5512492101857411,0.4739476157796338,0.2493212732764344,0.6517679345237466,0.4272303478812456,0.24470457773051546,0.592661470510694
11.0,0.0,11.0,0.0,1.0,0.0,1.0,0.0,,,,left,2.12559389998205,464.1722333000507,uk5,460.3133646999486,462.3277899000095,464.1722333000507,None,False,4.0,['p'],False,0.2,0.2,0.0,0.0,1.0,0.4554859150035951,-0.0236723026638894,wait_cost,1.0,3.0,462.3277899000095,None,uk5,1,2022-04-08_15h17.55.971,threat_forest,2021.2.3,60.134532979497365,False,39.0,0.4333333333333333,0.425,-1.2000000000000002,-0.9564814814814816,0,0,0,0.7540512456729591,-0.0236723026638894,0.2,0.2,0.2,1.0,-1.4,-1.4,2.6,2.6,0.0,1.0,-1.0,4.0,0,0,0,0.462437014802632,0.2485890221430623,0.5356740408202136,0.48123343420966636,0.24964781600843708,0.5263363401721655,0.4419422673305264,0.24662929967727992,0.5075100217710463,0.3434577954845525,0.2254945382054438,0.5829538902220937,0.3296798242739255,0.22099103774063908,0.5260098310077879,0.2974374526803986,0.20896841442339426,0.5040505223923721,0.29575111711307867,0.20828239383944472,0.5494430939443999,0.2624734799421321,0.19358115226919928,0.5512492101857411,0.12481223359898674,0.10923413994301874,0.4769726690749446,0.14849826875860722,0.12644653293430372,0.4802338413352727
11.0,0.0,11.0,0.0,2.0,0.0,2.0,0.0,,,,left,1.9799342999467624,469.04495070001576,uk5,460.3133646999486,462.3277899000095,469.04495070001576,None,False,3.0,['p'],False,0.2,0.2,0.0,0.0,1.0,0.4554859150035951,-0.0178719250114312,wait_cost,1.0,2.0,468.3389439999592,None,uk5,1,2022-04-08_15h17.55.971,threat_forest,2021.2.3,60.134532979497365,False,39.0,0.4333333333333333,0.425,-1.2000000000000002,-0.9564814814814816,0,0,0,0.6830636623108448,-0.0178719250114312,0.2,0.2,0.2,1.0,-1.4,-1.4,1.6,1.6,0.0,1.0,-1.0,3.0,0,0,0,0.462437014802632,0.2485890221430623,0.5356740408202136,0.48123343420966636,0.24964781600843708,0.5263363401721655,0.4419422673305264,0.24662929967727992,0.5075100217710463,0.3434577954845525,0.2254945382054438,0.5829538902220937,0.3296798242739255,0.22099103774063908,0.5260098310077879,0.2974374526803986,0.20896841442339426,0.5040505223923721,0.29575111711307867,0.20828239383944472,0.5494430939443999,0.2624734799421321,0.19358115226919928,0.5512492101857411,0.12481223359898674,0.10923413994301874,0.4769726690749446,0.16371557126676736,0.1369127829915634,0.49018407924359053
11.0,0.0,11.0,0.0,3.0,0.0,3.0,0.0,,,,left,2.93013490003068,474.1578931999393,uk5,460.3133646999486,462.3277899000095,474.1578931999393,None,False,2.0,['p'],False,0.2,0.2,0.0,0.0,1.0,0.4554859150035951,-0.0379958847736625,wait_cost,1.0,1.0,473.0696802999592,None,uk5,1,2022-04-08_15h17.55.971,threat_forest,2021.2.3,60.134532979497365,False,39.0,0.4333333333333333,0.425,-1.2000000000000002,-0.9564814814814816,0,0,0,1.0750484629352255,-0.0379958847736625,0.2,0.2,0.2,1.0,-1.4,-1.4,0.5999999999999999,0.5999999999999999,0.0,1.0,-1.0,2.0,0,0,0,0.462437014802632,0.2485890221430623,0.5356740408202136,0.48123343420966636,0.24964781600843708,0.5263363401721655,0.4419422673305264,0.24662929967727992,0.5075100217710463,0.3434577954845525,0.2254945382054438,0.5829538902220937,0.3296798242739255,0.22099103774063908,0.5260098310077879,0.2974374526803986,0.20896841442339426,0.5040505223923721,0.29575111711307867,0.20828239383944472,0.5494430939443999,0.2624734799421321,0.19358115226919928,0.5512492101857411,0.12481223359898674,0.10923413994301874,0.4769726690749446,0.11589728841348872,0.10246510695188936,0.4574347592762476
11.0,0.0,11.0,0.0,4.0,0.0,4.0,0.0,,,,left,1.4707529000006616,480.2705445999745,uk5,480.2705445999745,None,477.1163330000127,479.1287159000058,True,1.0,['p'],True,0.4444444444444445,0.6666666666666666,0.3333333333333333,1.0,1.0,0.9656336071428248,0.1703703703703702,succ_gain,0.0,2.0,479.1287159000058,None,uk5,1,2022-04-08_15h17.55.971,threat_forest,2021.2.3,60.134532979497365,True,39.0,0.4333333333333333,0.425,-1.2000000000000002,-0.9564814814814816,0,1,1,0.385774446544038,0.1703703703703702,1.0,0.4444444444444445,0.6666666666666666,0.6666666666666667,-1.0,-1.0,0.0,0.0,1.0,1.0,-1.0,1.0,1,1,0,0.3316073180597653,0.22164390466897493,0.48574740465302596,0.331574529606228,0.22163286092263665,0.4969709156770159,0.4419422673305264,0.24662929967727992,0.5075100217710463,0.4411412052451589,0.2465356422800075,0.4544499321614126,0.3891652530288564,0.23771565886384252,0.496037487307288,0.2974374526803986,0.20896841442339426,0.5040505223923721,0.46511667334733453,0.2487831535216434,0.48001765426324966,0.9999833219516507,1.6677770192003558e-05,0.31530532144651047,0.9834563137416354,0.016269992703349213,0.36097562918046466,0.8928757832365413,0.0956486189462743,0.45095434107641497
11.0,0.0,11.0,0.0,5.0,0.0,5.0,0.0,,,,left,2.2414523999905214,484.98320160002913,uk5,481.7643296000315,483.7742865999462,484.98320160002913,None,False,2.0,['p'],False,0.2,0.2,0.0,0.0,1.0,0.4554859150035951,-0.1222222222222222,wait_cost,1.0,1.0,483.7742865999462,None,uk5,1,2022-04-08_15h17.55.971,threat_forest,2021.2.3,60.134532979497365,False,39.0,0.4333333333333333,0.425,-1.2000000000000002,-0.9564814814814816,0,0,0,0.8071240486040341,-0.1222222222222222,0.2,0.2,0.2,1.0,-1.4,-1.4,0.5999999999999999,0.5999999999999999,0.0,1.0,1.0,2.0,0,0,0,0.462437014802632,0.2485890221430623,0.5356740408202136,0.48123343420966636,0.24964781600843708,0.5263363401721655,0.10908643887399,0.09718658772778126,0.5143741952112367,0.3434577954845525,0.2254945382054438,0.5829538902220937,0.3296798242739255,0.22099103774063908,0.5260098310077879,0.2974374526803986,0.20896841442339426,0.5040505223923721,0.29575111711307867,0.20828239383944472,0.5494430939443999,0.2624734799421321,0.19358115226919928,0.5512492101857411,0.12481223359898674,0.10923413994301874,0.4769726690749446,0.023884920069556666,0.023314430662827557,0.3821864081121033
11.0,0.0,11.0,0.0,6.0,0.0,6.0,0.0,,,,right,0.9963991999393328,490.4074161000317,uk5,481.7643296000315,483.7742865999462,490.4074161000317,None,True,1.0,['p'],False,0.2,0.2,0.0,0.0,1.0,0.4554859150035951,0.1999999999999999,unsucc_cost,1.0,0.0,489.2689281000057,None,uk5,1,2022-04-08_15h17.55.971,threat_forest,2021.2.3,60.134532979497365,True,39.0,0.4333333333333333,0.425,-1.2000000000000002,-0.9564814814814816,0,0,1,-0.0036072985457259,0.1999999999999999,1.0,0.2,0.2,1.0,-1.4,-1.4,-0.4000000000000001,0.0,0.0,1.0,-1.0,1.0,1,0,0,0.462437014802632,0.2485890221430623,0.5356740408202136,0.48123343420966636,0.24964781600843708,0.5263363401721655,0.4419422673305264,0.24662929967727992,0.5075100217710463,0.3434577954845525,0.2254945382054438,0.5829538902220937,0.3296798242739255,0.22099103774063908,0.5260098310077879,0.2974374526803986,0.20896841442339426,0.5040505223923721,0.29575111711307867,0.20828239383944472,0.5494430939443999,0.9999833219516507,1.6677770192003558e-05,0.31530532144651047,0.9834563137416354,0.016269992703349213,0.36097562918046466,0.9376678427355549,0.058446859435205466,0.4155867208000003
12.0,0.0,12.0,0.0,0.0,0.0,0.0,0.0,494.1028190000216,497.607175800018,None,left,2.43271119997371,499.66553480003495,uk5,494.1028190000216,497.607175800018,499.66553480003495,None,False,4.0,['p'],False,0.4444444444444445,0.6666666666666666,0.3333333333333333,1.0,2.0,0.9656336071428248,0.064046602155505,wait_cost,1.0,3.0,,,uk5,1,2022-04-08_15h17.55.971,threat_forest,2021.2.3,60.134532979497365,False,1.0,0.4833333333333333,0.4583333333333333,-0.7877777777777778,-0.993888888888889,1,0,0,0.8890063555530905,0.064046602155505,0.4444444444444445,0.4444444444444445,0.6666666666666666,0.6666666666666667,-0.3333333333333335,-0.5555555555555556,3.4444444444444446,3.4444444444444446,0.0,2.0,-1.0,4.0,0,0,1,0.462437014802632,0.2485890221430623,0.5356740408202136,0.331574529606228,0.22163286092263665,0.4969709156770159,0.4419422673305264,0.24662929967727992,0.5075100217710463,0.4411412052451589,0.2465356422800075,0.4544499321614126,0.4951325258085575,0.2499763076949956,0.474065068437445,0.5029406394759635,0.2499913526394724,0.5153860017158963,0.46511667334733453,0.2487831535216434,0.48001765426324966,0.2624734799421321,0.19358115226919928,0.5512492101857411,0.4739476157796338,0.2493212732764344,0.6517679345237466,0.5004090057426627,0.24999983271430246,0.5976956562587538
12.0,0.0,12.0,0.0,1.0,0.0,1.0,0.0,,,,left,2.585043499944732,507.8355926000513,uk5,507.8355926000513,None,502.12425939994864,504.1383919999935,True,3.0,['p'],True,0.27,0.3,0.1,1.0,2.0,0.7963326591781347,0.0431681748711396,unsucc_cost,0.0,1.0,504.1383919999935,None,uk5,1,2022-04-08_15h17.55.971,threat_forest,2021.2.3,60.134532979497365,True,1.0,0.4833333333333333,0.4583333333333333,-0.7877777777777778,-0.993888888888889,0,0,1,0.949742335650424,0.0431681748711396,0.27,0.27,0.3,0.9,-1.1,-1.02,1.98,1.98,1.0,2.0,-1.0,3.0,0,0,0,0.3316073180597653,0.22164390466897493,0.48574740465302596,0.4346527352814124,0.24572973499379877,0.5222293868735125,0.4419422673305264,0.24662929967727992,0.5075100217710463,0.3636012473459366,0.23139538027441564,0.5469157831405107,0.3738991918741284,0.23409858619000212,0.5025196757270676,0.2974374526803986,0.20896841442339426,0.5040505223923721,0.34092319543887756,0.22469457025062245,0.5213097312022825,0.2624734799421321,0.19358115226919928,0.5512492101857411,0.19469811026589415,0.15679075612478388,0.5363119613535137,0.3978504314521809,0.23956546564549436,0.5877757294282895
12.0,0.0,12.0,0.0,2.0,0.0,2.0,0.0,,,,left,1.723080400028266,514.0369959999807,uk5,514.0369959999807,None,502.12425939994864,504.1383919999935,True,1.0,['p'],True,0.27,0.3,0.1,1.0,2.0,0.7963326591781347,0.1195719834516461,succ_gain,0.0,3.0,512.4640407999977,None,uk5,1,2022-04-08_15h17.55.971,threat_forest,2021.2.3,60.134532979497365,True,1.0,0.4833333333333333,0.4583333333333333,-0.7877777777777778,-0.993888888888889,0,0,1,0.5441136192709688,0.1195719834516461,1.0,0.27,0.3,0.9,-1.1,-1.02,-0.02,0.0,1.0,2.0,-1.0,1.0,1,0,0,0.3316073180597653,0.22164390466897493,0.48574740465302596,0.4346527352814124,0.24572973499379877,0.5222293868735125,0.4419422673305264,0.24662929967727992,0.5075100217710463,0.3636012473459366,0.23139538027441564,0.5469157831405107,0.3738991918741284,0.23409858619000212,0.5025196757270676,0.2974374526803986,0.20896841442339426,0.5040505223923721,0.34092319543887756,0.22469457025062245,0.5213097312022825,0.9999833219516507,1.6677770192003558e-05,0.31530532144651047,0.9834563137416354,0.016269992703349213,0.36097562918046466,0.7517835006842627,0.18660506878317792,0.5374264118010594
12.0,0.0,12.0,0.0,3.0,0.0,3.0,0.0,,,,right,1.6398393999552354,519.8841146000195,uk5,519.8841146000195,None,502.12425939994864,504.1383919999935,False,3.0,['p'],True,0.27,0.3,0.1,1.0,2.0,0.7963326591781347,-0.0161841808487654,wait_cost,0.0,2.0,517.7921879000496,None,uk5,1,2022-04-08_15h17.55.971,threat_forest,2021.2.3,60.134532979497365,False,1.0,0.4833333333333333,0.4583333333333333,-0.7877777777777778,-0.993888888888889,0,0,0,0.4945983101843956,-0.0161841808487654,0.27,0.27,0.3,0.9,-1.1,-1.02,1.98,1.98,1.0,2.0,1.0,3.0,0,0,0,0.3316073180597653,0.22164390466897493,0.48574740465302596,0.4346527352814124,0.24572973499379877,0.5222293868735125,0.10908643887399,0.09718658772778126,0.5143741952112367,0.3636012473459366,0.23139538027441564,0.5469157831405107,0.3738991918741284,0.23409858619000212,0.5025196757270676,0.2974374526803986,0.20896841442339426,0.5040505223923721,0.34092319543887756,0.22469457025062245,0.5213097312022825,0.2624734799421321,0.19358115226919928,0.5512492101857411,0.19469811026589415,0.15679075612478388,0.5363119613535137,0.1683726483793205,0.1400232996570542,0.49314123970412754
12.0,0.0,12.0,0.0,4.0,0.0,4.0,0.0,,,,left,2.359948000055738,527.211620099959,uk5,521.5558338999981,523.5702879000455,527.211620099959,None,False,2.0,['p'],False,0.4444444444444445,0.6666666666666666,0.3333333333333333,1.0,2.0,0.9656336071428248,0.0872222222222222,wait_cost,1.0,1.0,523.5702879000455,None,uk5,1,2022-04-08_15h17.55.971,threat_forest,2021.2.3,60.134532979497365,False,1.0,0.4833333333333333,0.4583333333333333,-0.7877777777777778,-0.993888888888889,1,0,0,0.858639584920082,0.0872222222222222,0.4444444444444445,0.4444444444444445,0.6666666666666666,0.6666666666666667,-0.3333333333333335,-0.5555555555555556,1.4444444444444444,1.4444444444444444,0.0,2.0,-1.0,2.0,0,0,1,0.462437014802632,0.2485890221430623,0.5356740408202136,0.331574529606228,0.22163286092263665,0.4969709156770159,0.4419422673305264,0.24662929967727992,0.5075100217710463,0.4411412052451589,0.2465356422800075,0.4544499321614126,0.4951325258085575,0.2499763076949956,0.474065068437445,0.5029406394759635,0.2499913526394724,0.5153860017158963,0.46511667334733453,0.2487831535216434,0.48001765426324966,0.2624734799421321,0.19358115226919928,0.5512492101857411,0.4739476157796338,0.2493212732764344,0.6517679345237466,0.6138394716704361,0.23704057468979595,0.5853753218740735
12.0,0.0,12.0,0.0,5.0,0.0,5.0,0.0,,,,left,1.6483166000107303,534.0763294999488,uk5,534.0763294999488,None,529.5978221000405,531.6124459999846,True,1.0,['p'],True,0.27,0.3,0.1,1.0,2.0,0.7963326591781347,0.27,unsucc_cost,0.0,0.0,531.6124459999846,None,uk5,1,2022-04-08_15h17.55.971,threat_forest,2021.2.3,60.134532979497365,True,1.0,0.4833333333333333,0.4583333333333333,-0.7877777777777778,-0.993888888888889,0,0,1,0.4997545246931952,0.27,1.0,0.27,0.3,0.9,-1.1,-1.02,-0.02,0.0,1.0,2.0,-1.0,1.0,1,0,0,0.3316073180597653,0.22164390466897493,0.48574740465302596,0.4346527352814124,0.24572973499379877,0.5222293868735125,0.4419422673305264,0.24662929967727992,0.5075100217710463,0.3636012473459366,0.23139538027441564,0.5469157831405107,0.3738991918741284,0.23409858619000212,0.5025196757270676,0.2974374526803986,0.20896841442339426,0.5040505223923721,0.34092319543887756,0.22469457025062245,0.5213097312022825,0.9999833219516507,1.6677770192003558e-05,0.31530532144651047,0.9834563137416354,0.016269992703349213,0.36097562918046466,0.9837915264441915,0.015945758940799123,0.37518103022591176
13.0,0.0,13.0,0.0,0.0,0.0,0.0,0.0,541.3103304000106,544.8085945999483,None,right,1.12652359995991,547.3473978999536,uk5,541.3103304000106,544.8085945999483,547.3473978999536,None,True,5.0,['r'],False,0.5714285714285714,0.5714285714285714,0.0,0.0,2.0,0.6216097450797566,0.0534306849458431,succ_gain,1.0,6.0,,,uk5,1,2022-04-08_15h17.55.971,threat_forest,2021.2.3,60.134532979497365,True,19.0,0.5982142857142857,0.5407738095238095,-0.0446428571428572,-0.4162103174603175,1,1,1,0.1191364304797812,0.0534306849458431,0.5714285714285714,0.5714285714285714,0.5714285714285714,1.0,0.2857142857142856,0.2857142857142856,5.285714285714286,5.285714285714286,0.0,2.0,-1.0,5.0,0,1,1,0.462437014802632,0.2485890221430623,0.5356740408202136,0.48123343420966636,0.24964781600843708,0.5263363401721655,0.4419422673305264,0.24662929967727992,0.5075100217710463,0.4205565425972897,0.24368873707590372,0.4718367853253178,0.5941312730743853,0.2411393034293955,0.48990194313733754,0.5029406394759635,0.2499913526394724,0.5153860017158963,0.5593058076415904,0.2464828211799787,0.4839608292922118,0.2624734799421321,0.19358115226919928,0.5512492101857411,0.7012520002199829,0.209497632407456,0.602077547468261,0.4477123148809838,0.24726599798489463,0.5950966063783468
13.0,0.0,13.0,0.0,1.0,0.0,1.0,0.0,,,,right,1.70838399999775,552.090900399955,uk5,552.090900399955,None,548.4974697999423,550.4946407000534,False,6.0,['r'],True,0.46875,0.625,0.25,2.0,2.0,0.9634951148421658,-0.055384245573103,wait_cost,0.0,5.0,550.4946407000534,None,uk5,1,2022-04-08_15h17.55.971,threat_forest,2021.2.3,60.134532979497365,False,19.0,0.5982142857142857,0.5407738095238095,-0.0446428571428572,-0.4162103174603175,1,0,0,0.5355478944518248,-0.055384245573103,0.46875,0.46875,0.625,0.75,-0.25,-0.375,5.625,5.625,1.0,2.0,1.0,6.0,0,0,1,0.3316073180597653,0.22164390466897493,0.48574740465302596,0.367122893929938,0.2323436746824455,0.5081980474636627,0.10908643887399,0.09718658772778126,0.5143741952112367,0.4321061718822123,0.24539042810351225,0.4614440781903155,0.5086112666964449,0.24992584608588267,0.47415550114027705,0.5029406394759635,0.2499913526394724,0.5153860017158963,0.48315922460809296,0.2497163882841993,0.4784179254131103,0.2624734799421321,0.19358115226919928,0.5512492101857411,0.5197350065369545,0.24961052951698634,0.6521288571877122,0.08483590504644803,0.07763877426139808,0.43383242651045506
13.0,0.0,13.0,0.0,2.0,0.0,2.0,0.0,,,,left,2.519510700018145,559.2470307999756,uk5,559.2470307999756,None,548.4974697999423,550.4946407000534,True,5.0,['r'],True,0.46875,0.625,0.25,2.0,2.0,0.9634951148421658,-0.0065486695065082,succ_gain,0.0,6.0,555.8238303000107,None,uk5,1,2022-04-08_15h17.55.971,threat_forest,2021.2.3,60.134532979497365,True,19.0,0.5982142857142857,0.5407738095238095,-0.0446428571428572,-0.4162103174603175,1,0,1,0.9240647160110794,-0.0065486695065082,0.46875,0.46875,0.625,0.75,-0.25,-0.375,4.625,4.625,1.0,2.0,-1.0,5.0,0,0,1,0.3316073180597653,0.22164390466897493,0.48574740465302596,0.367122893929938,0.2323436746824455,0.5081980474636627,0.4419422673305264,0.24662929967727992,0.5075100217710463,0.4321061718822123,0.24539042810351225,0.4614440781903155,0.5086112666964449,0.24992584608588267,0.47415550114027705,0.5029406394759635,0.2499913526394724,0.5153860017158963,0.48315922460809296,0.2497163882841993,0.4784179254131103,0.2624734799421321,0.19358115226919928,0.5512492101857411,0.5197350065369545,0.24961052951698634,0.6521288571877122,0.1969941293699231,0.1581874423637091,0.5104098450157777
13.0,0.0,13.0,0.0,3.0,0.0,3.0,0.0,,,,left,1.6883499999530611,565.1290402000304,uk5,561.7890950000146,563.7828867000062,565.1290402000304,None,False,6.0,['r'],False,0.5714285714285714,0.5714285714285714,0.0,0.0,2.0,0.6216097450797566,-0.0948016553161443,wait_cost,1.0,5.0,563.7828867000062,None,uk5,1,2022-04-08_15h17.55.971,threat_forest,2021.2.3,60.134532979497365,False,19.0,0.5982142857142857,0.5407738095238095,-0.0446428571428572,-0.4162103174603175,1,1,0,0.5237517206243227,-0.0948016553161443,0.0,0.5714285714285714,0.5714285714285714,1.0,0.2857142857142856,0.2857142857142856,6.285714285714286,6.0,0.0,2.0,1.0,6.0,0,1,1,0.462437014802632,0.2485890221430623,0.5356740408202136,0.48123343420966636,0.24964781600843708,0.5263363401721655,0.10908643887399,0.09718658772778126,0.5143741952112367,0.4205565425972897,0.24368873707590372,0.4718367853253178,0.5941312730743853,0.2411393034293955,0.48990194313733754,0.5029406394759635,0.2499913526394724,0.5153860017158963,0.5593058076415904,0.2464828211799787,0.4839608292922118,0.2624734799421321,0.19358115226919928,0.5512492101857411,0.030596297382578668,0.029660163969055475,0.37768336303938677,0.04054723358842123,0.038903155436747244,0.3970065699980885
13.0,0.0,13.0,0.0,4.0,0.0,4.0,0.0,,,,left,1.811622399953194,570.8495307000121,uk5,561.7890950000146,563.7828867000062,570.8495307000121,None,False,5.0,['r'],False,0.5714285714285714,0.5714285714285714,0.0,0.0,2.0,0.6216097450797566,-0.1265680518859329,wait_cost,1.0,4.0,568.8612132000271,None,uk5,1,2022-04-08_15h17.55.971,threat_forest,2021.2.3,60.134532979497365,False,19.0,0.5982142857142857,0.5407738095238095,-0.0446428571428572,-0.4162103174603175,1,1,0,0.5942227973580749,-0.1265680518859329,0.0,0.5714285714285714,0.5714285714285714,1.0,0.2857142857142856,0.2857142857142856,5.285714285714286,5.285714285714286,0.0,2.0,-1.0,5.0,0,1,1,0.462437014802632,0.2485890221430623,0.5356740408202136,0.48123343420966636,0.24964781600843708,0.5263363401721655,0.4419422673305264,0.24662929967727992,0.5075100217710463,0.4205565425972897,0.24368873707590372,0.4718367853253178,0.5941312730743853,0.2411393034293955,0.48990194313733754,0.5029406394759635,0.2499913526394724,0.5153860017158963,0.5593058076415904,0.2464828211799787,0.4839608292922118,0.2624734799421321,0.19358115226919928,0.5512492101857411,0.030596297382578668,0.029660163969055475,0.37768336303938677,0.021946923310628738,0.021465255867826123,0.38042840223190105
13.0,0.0,13.0,0.0,5.0,0.0,5.0,0.0,,,,right,1.0885845999000594,578.5232014999492,uk5,578.5232014999492,None,572.6915873000398,574.7058672000421,False,4.0,['r'],True,0.46875,0.625,0.25,2.0,2.0,0.9634951148421658,-0.2477329799107143,wait_cost,0.0,3.0,574.7058672000421,None,uk5,1,2022-04-08_15h17.55.971,threat_forest,2021.2.3,60.134532979497365,False,19.0,0.5982142857142857,0.5407738095238095,-0.0446428571428572,-0.4162103174603175,1,0,0,0.0848783202157653,-0.2477329799107143,0.0,0.46875,0.625,0.75,-0.25,-0.375,3.625,3.625,1.0,2.0,-1.0,4.0,0,0,1,0.3316073180597653,0.22164390466897493,0.48574740465302596,0.367122893929938,0.2323436746824455,0.5081980474636627,0.4419422673305264,0.24662929967727992,0.5075100217710463,0.4321061718822123,0.24539042810351225,0.4614440781903155,0.5086112666964449,0.24992584608588267,0.47415550114027705,0.5029406394759635,0.2499913526394724,0.5153860017158963,0.48315922460809296,0.2497163882841993,0.4784179254131103,0.2624734799421321,0.19358115226919928,0.5512492101857411,0.030596297382578668,0.029660163969055475,0.37768336303938677,0.0020021803751721127,0.001998171648917389,0.3619210936639154
13.0,0.0,13.0,0.0,6.0,0.0,6.0,0.0,,,,right,2.286082500009797,584.8707018999849,uk5,584.8707018999849,None,572.6915873000398,574.7058672000421,False,3.0,['r'],True,0.46875,0.625,0.25,2.0,2.0,0.9634951148421658,-0.3849748883928571,wait_cost,0.0,2.0,581.6495937999571,None,uk5,1,2022-04-08_15h17.55.971,threat_forest,2021.2.3,60.134532979497365,False,19.0,0.5982142857142857,0.5407738095238095,-0.0446428571428572,-0.4162103174603175,1,0,0,0.8268396539645487,-0.3849748883928571,0.0,0.46875,0.625,0.75,-0.25,-0.375,2.625,2.625,1.0,2.0,-1.0,3.0,0,0,1,0.3316073180597653,0.22164390466897493,0.48574740465302596,0.367122893929938,0.2323436746824455,0.5081980474636627,0.4419422673305264,0.24662929967727992,0.5075100217710463,0.4321061718822123,0.24539042810351225,0.4614440781903155,0.5086112666964449,0.24992584608588267,0.47415550114027705,0.5029406394759635,0.2499913526394724,0.5153860017158963,0.48315922460809296,0.2497163882841993,0.4784179254131103,0.2624734799421321,0.19358115226919928,0.5512492101857411,0.030596297382578668,0.029660163969055475,0.37768336303938677,0.00013017846223041892,0.00013016151579839033,0.3601451810745931
13.0,0.0,13.0,0.0,7.0,0.0,7.0,0.0,,,,right,1.4711445000721142,591.6988978999434,uk5,591.6988978999434,None,572.6915873000398,574.7058672000421,False,2.0,['r'],True,0.46875,0.625,0.25,2.0,2.0,0.9634951148421658,-0.53125,wait_cost,0.0,1.0,589.1923569999635,None,uk5,1,2022-04-08_15h17.55.971,threat_forest,2021.2.3,60.134532979497365,False,19.0,0.5982142857142857,0.5407738095238095,-0.0446428571428572,-0.4162103174603175,1,0,0,0.3860406693387254,-0.53125,0.0,0.46875,0.625,0.75,-0.25,-0.375,1.625,1.625,1.0,2.0,-1.0,2.0,0,0,1,0.3316073180597653,0.22164390466897493,0.48574740465302596,0.367122893929938,0.2323436746824455,0.5081980474636627,0.4419422673305264,0.24662929967727992,0.5075100217710463,0.4321061718822123,0.24539042810351225,0.4614440781903155,0.5086112666964449,0.24992584608588267,0.47415550114027705,0.5029406394759635,0.2499913526394724,0.5153860017158963,0.48315922460809296,0.2497163882841993,0.4784179254131103,0.2624734799421321,0.19358115226919928,0.5512492101857411,0.030596297382578668,0.029660163969055475,0.37768336303938677,7.057252398006856e-06,7.0572025931954515e-06,0.36002814611009
14.0,0.0,14.0,0.0,0.0,0.0,0.0,0.0,597.5639337999746,601.0643265999388,None,right,2.1255487999878824,603.7733307000017,uk5,603.7733307000017,None,597.5639337999746,601.0643265999388,False,5.0,['p'],True,0.2448979591836734,0.2857142857142857,0.1428571428571428,1.0,2.0,0.8400769154957735,-0.0256214500174809,wait_cost,0.0,4.0,,,uk5,1,2022-04-08_15h17.55.971,threat_forest,2021.2.3,60.134532979497365,False,29.0,0.4761904761904761,0.5372023809523809,-0.8594104308390023,-0.4520266439909297,0,0,0,0.7540300278511393,-0.0256214500174809,0.2448979591836734,0.2448979591836734,0.2857142857142857,0.8571428571428572,-1.2857142857142856,-1.163265306122449,3.836734693877551,3.836734693877551,1.0,2.0,-1.0,5.0,0,0,0,0.3316073180597653,0.22164390466897493,0.48574740465302596,0.41498995055924404,0.24277329149408025,0.5191304271179367,0.4419422673305264,0.24662929967727992,0.5075100217710463,0.36069218207488646,0.23059333186494346,0.5518141190266985,0.34622203948900493,0.2263523388610789,0.5164017951258415,0.2974374526803986,0.20896841442339426,0.5040505223923721,0.32433373724007214,0.21914136412795998,0.5308289051568233,0.2624734799421321,0.19358115226919928,0.5512492101857411,0.16671940198106738,0.13892404298414265,0.5140185730043995,0.14365350610316382,0.1230171762874321,0.4769735604971347
14.0,0.0,14.0,0.0,1.0,0.0,1.0,0.0,,,,right,1.9176618000492447,611.6664521000348,uk5,611.6664521000348,None,597.5639337999746,601.0643265999388,False,4.0,['p'],True,0.2448979591836734,0.2857142857142857,0.1428571428571428,1.0,2.0,0.8400769154957735,0.0222867135326239,wait_cost,0.0,3.0,607.9419409999391,None,uk5,1,2022-04-08_15h17.55.971,threat_forest,2021.2.3,60.134532979497365,False,29.0,0.4761904761904761,0.5372023809523809,-0.8594104308390023,-0.4520266439909297,0,0,0,0.6511066314291444,0.0222867135326239,0.2448979591836734,0.2448979591836734,0.2857142857142857,0.8571428571428572,-1.2857142857142856,-1.163265306122449,2.836734693877551,2.836734693877551,1.0,2.0,-1.0,4.0,0,0,0,0.3316073180597653,0.22164390466897493,0.48574740465302596,0.41498995055924404,0.24277329149408025,0.5191304271179367,0.4419422673305264,0.24662929967727992,0.5075100217710463,0.36069218207488646,0.23059333186494346,0.5518141190266985,0.34622203948900493,0.2263523388610789,0.5164017951258415,0.2974374526803986,0.20896841442339426,0.5040505223923721,0.32433373724007214,0.21914136412795998,0.5308289051568233,0.2624734799421321,0.19358115226919928,0.5512492101857411,0.16671940198106738,0.13892404298414265,0.5140185730043995,0.30352752991681725,0.21139856849941283,0.5609975303398557
14.0,0.0,14.0,0.0,3.0,0.0,3.0,0.0,,,,right,1.6628943999530748,623.56741899997,uk5,623.56741899997,None,620.1472549999598,622.1617675999878,False,2.0,['p'],True,0.2448979591836734,0.2857142857142857,0.1428571428571428,1.0,2.0,0.8400769154957735,-0.0235423495484888,wait_cost,0.0,1.0,622.1617675999878,None,uk5,1,2022-04-08_15h17.55.971,threat_forest,2021.2.3,60.134532979497365,False,29.0,0.4761904761904761,0.5372023809523809,-0.8594104308390023,-0.4520266439909297,0,0,0,0.5085596984670419,-0.0235423495484888,0.2448979591836734,0.2448979591836734,0.2857142857142857,0.8571428571428572,-1.2857142857142856,-1.163265306122449,0.8367346938775511,0.8367346938775511,1.0,2.0,-1.0,2.0,0,0,0,0.3316073180597653,0.22164390466897493,0.48574740465302596,0.41498995055924404,0.24277329149408025,0.5191304271179367,0.4419422673305264,0.24662929967727992,0.5075100217710463,0.36069218207488646,0.23059333186494346,0.5518141190266985,0.34622203948900493,0.2263523388610789,0.5164017951258415,0.2974374526803986,0.20896841442339426,0.5040505223923721,0.32433373724007214,0.21914136412795998,0.5308289051568233,0.2624734799421321,0.19358115226919928,0.5512492101857411,0.16671940198106738,0.13892404298414265,0.5140185730043995,0.14882602659408692,0.12667684040230306,0.4804527940725108
14.0,0.0,14.0,0.0,4.0,0.0,4.0,0.0,,,,left,0.9884437998989596,628.7607051000232,uk5,628.7607051000232,None,620.1472549999598,622.1617675999878,True,1.0,['p'],True,0.2448979591836734,0.2857142857142857,0.1428571428571428,1.0,2.0,0.8400769154957735,0.1196276557733094,unsucc_cost,0.0,0.0,627.2563357000472,None,uk5,1,2022-04-08_15h17.55.971,threat_forest,2021.2.3,60.134532979497365,True,29.0,0.4761904761904761,0.5372023809523809,-0.8594104308390023,-0.4520266439909297,0,0,1,-0.0116234919088443,0.1196276557733094,1.0,0.2448979591836734,0.2857142857142857,0.8571428571428572,-1.2857142857142856,-1.163265306122449,-0.1632653061224489,0.0,1.0,2.0,-1.0,1.0,1,0,0,0.3316073180597653,0.22164390466897493,0.48574740465302596,0.41498995055924404,0.24277329149408025,0.5191304271179367,0.4419422673305264,0.24662929967727992,0.5075100217710463,0.36069218207488646,0.23059333186494346,0.5518141190266985,0.34622203948900493,0.2263523388610789,0.5164017951258415,0.2974374526803986,0.20896841442339426,0.5040505223923721,0.32433373724007214,0.21914136412795998,0.5308289051568233,0.9999833219516507,1.6677770192003558e-05,0.31530532144651047,0.9834563137416354,0.016269992703349213,0.36097562918046466,0.7519904698353072,0.18650080311218112,0.5373272866868675
15.0,0.0,15.0,0.0,0.0,0.0,0.0,0.0,634.014540300006,637.5043496999424,None,right,2.091650899965316,639.198748899973,uk5,639.198748899973,None,634.014540300006,637.5043496999424,False,4.0,['p'],True,0.24,0.3,0.2,2.0,1.0,0.9003120349047065,0.0028177647265513,wait_cost,0.0,3.0,,,uk5,1,2022-04-08_15h17.55.971,threat_forest,2021.2.3,60.134532979497365,False,9.0,0.4,0.4380952380952381,-1.3025,-1.0809552154195012,0,0,0,0.7379536584561405,0.0028177647265513,0.24,0.24,0.3,0.8,-1.7,-1.48,2.52,2.52,1.0,1.0,-1.0,4.0,0,0,0,0.3316073180597653,0.22164390466897493,0.48574740465302596,0.38919815297566573,0.237722950695996,0.5138366331094614,0.4419422673305264,0.24662929967727992,0.5075100217710463,0.3636012473459366,0.23139538027441564,0.5469157831405107,0.28828215054885814,0.20517555222378364,0.5543529046241946,0.2974374526803986,0.20896841442339426,0.5040505223923721,0.3211459872747812,0.2180112421320873,0.5327661334229707,0.2624734799421321,0.19358115226919928,0.5512492101857411,0.16165122326638054,0.13552010528286335,0.5097712722001908,0.22819461442822647,0.17612183237417958,0.527460025010375
15.0,0.0,15.0,0.0,1.0,0.0,1.0,0.0,,,,right,1.6926220000023022,644.6331070000306,uk5,644.6331070000306,None,634.014540300006,637.5043496999424,False,3.0,['p'],True,0.24,0.3,0.2,2.0,1.0,0.9003120349047065,0.0143436775355859,wait_cost,0.0,2.0,643.3082793999929,None,uk5,1,2022-04-08_15h17.55.971,threat_forest,2021.2.3,60.134532979497365,False,9.0,0.4,0.4380952380952381,-1.3025,-1.0809552154195012,0,0,0,0.5262788059256919,0.0143436775355859,0.24,0.24,0.3,0.8,-1.7,-1.48,1.52,1.52,1.0,1.0,-1.0,3.0,0,0,0,0.3316073180597653,0.22164390466897493,0.48574740465302596,0.38919815297566573,0.237722950695996,0.5138366331094614,0.4419422673305264,0.24662929967727992,0.5075100217710463,0.3636012473459366,0.23139538027441564,0.5469157831405107,0.28828215054885814,0.20517555222378364,0.5543529046241946,0.2974374526803986,0.20896841442339426,0.5040505223923721,0.3211459872747812,0.2180112421320873,0.5327661334229707,0.2624734799421321,0.19358115226919928,0.5512492101857411,0.16165122326638054,0.13552010528286335,0.5097712722001908,0.2711402825705306,0.19762322973810342,0.5479013500276312
15.0,0.0,15.0,0.0,2.0,0.0,2.0,0.0,,,,right,1.7972825999604538,652.0785529999994,uk5,646.3560574000003,648.3706337000476,652.0785529999994,None,True,2.0,['p'],False,0.375,0.5,0.25,1.0,1.0,0.9850568223215076,0.0323046653466796,succ_gain,1.0,3.0,648.3706337000476,None,uk5,1,2022-04-08_15h17.55.971,threat_forest,2021.2.3,60.134532979497365,True,9.0,0.4,0.4380952380952381,-1.3025,-1.0809552154195012,0,0,1,0.5862758575185362,0.0323046653466796,0.375,0.375,0.5,0.75,-1.25,-1.125,0.875,0.875,0.0,1.0,-1.0,2.0,0,0,0,0.462437014802632,0.2485890221430623,0.5356740408202136,0.367122893929938,0.2323436746824455,0.5081980474636627,0.4419422673305264,0.24662929967727992,0.5075100217710463,0.40529334607037965,0.24103064970145519,0.48807047473996623,0.35147103906936694,0.2279391477648665,0.5135580606399612,0.2974374526803986,0.20896841442339426,0.5040505223923721,0.41422248195004613,0.24264221739718989,0.49054430101850627,0.2624734799421321,0.19358115226919928,0.5512492101857411,0.3479697099661619,0.22688679091222705,0.6237750617541624,0.34730241581394045,0.22668344778374125,0.575528827074305
15.0,0.0,15.0,0.0,3.0,0.0,3.0,0.0,,,,right,2.1015589999733493,657.1888324000174,uk5,657.1888324000174,None,653.8989120000042,655.9130961999763,False,3.0,['p'],True,0.24,0.3,0.2,2.0,1.0,0.9003120349047065,0.037756659375,wait_cost,0.0,2.0,655.9130961999763,None,uk5,1,2022-04-08_15h17.55.971,threat_forest,2021.2.3,60.134532979497365,False,9.0,0.4,0.4380952380952381,-1.3025,-1.0809552154195012,0,0,0,0.7426794502406444,0.037756659375,0.24,0.24,0.3,0.8,-1.7,-1.48,1.52,1.52,1.0,1.0,1.0,3.0,0,0,0,0.3316073180597653,0.22164390466897493,0.48574740465302596,0.38919815297566573,0.237722950695996,0.5138366331094614,0.10908643887399,0.09718658772778126,0.5143741952112367,0.3636012473459366,0.23139538027441564,0.5469157831405107,0.28828215054885814,0.20517555222378364,0.5543529046241946,0.2974374526803986,0.20896841442339426,0.5040505223923721,0.3211459872747812,0.2180112421320873,0.5327661334229707,0.2624734799421321,0.19358115226919928,0.5512492101857411,0.16165122326638054,0.13552010528286335,0.5097712722001908,0.372321460767458,0.2336981906194442,0.5821977256482024
15.0,0.0,15.0,0.0,4.0,0.0,4.0,0.0,,,,right,1.3189368000021204,663.5657110000029,uk5,659.3106571000535,661.3249790000264,663.5657110000029,None,True,2.0,['p'],False,0.375,0.5,0.25,1.0,1.0,0.9850568223215076,0.06428671875,unsucc_cost,1.0,0.0,661.3249790000264,None,uk5,1,2022-04-08_15h17.55.971,threat_forest,2021.2.3,60.134532979497365,True,9.0,0.4,0.4380952380952381,-1.3025,-1.0809552154195012,0,0,1,0.2768259575016335,0.06428671875,0.375,0.375,0.5,0.75,-1.25,-1.125,0.875,0.875,0.0,1.0,-1.0,2.0,0,0,0,0.462437014802632,0.2485890221430623,0.5356740408202136,0.367122893929938,0.2323436746824455,0.5081980474636627,0.4419422673305264,0.24662929967727992,0.5075100217710463,0.40529334607037965,0.24103064970145519,0.48807047473996623,0.35147103906936694,0.2279391477648665,0.5135580606399612,0.2974374526803986,0.20896841442339426,0.5040505223923721,0.41422248195004613,0.24264221739718989,0.49054430101850627,0.2624734799421321,0.19358115226919928,0.5512492101857411,0.3479697099661619,0.22688679091222705,0.6237750617541624,0.5016052625070988,0.24999742313228326,0.5976933654751188
16.0,0.0,16.0,0.0,0.0,0.0,0.0,0.0,669.8017117000418,673.2936634999933,None,left,2.066677700029686,676.0761918999488,uk5,669.8017117000418,673.2936634999933,676.0761918999488,None,False,4.0,['p'],False,0.375,0.5,0.25,1.0,1.0,0.9850568223215076,0.033201148802433,wait_cost,1.0,3.0,,,uk5,1,2022-04-08_15h17.55.971,threat_forest,2021.2.3,60.134532979497365,False,11.0,0.35,0.375,-1.3425000000000002,-1.3225000000000002,1,0,0,0.7259423420927269,0.033201148802433,0.375,0.375,0.5,0.75,-1.25,-1.125,2.875,2.875,0.0,1.0,-1.0,4.0,0,0,1,0.462437014802632,0.2485890221430623,0.5356740408202136,0.367122893929938,0.2323436746824455,0.5081980474636627,0.4419422673305264,0.24662929967727992,0.5075100217710463,0.40529334607037965,0.24103064970145519,0.48807047473996623,0.35147103906936694,0.2279391477648665,0.5135580606399612,0.5029406394759635,0.2499913526394724,0.5153860017158963,0.41422248195004613,0.24264221739718989,0.49054430101850627,0.2624734799421321,0.19358115226919928,0.5512492101857411,0.3479697099661619,0.22688679091222705,0.6237750617541624,0.3513631172303279,0.22790707708051477,0.5766921284045688
16.0,0.0,16.0,0.0,1.0,0.0,1.0,0.0,,,,right,1.387997700017877,681.1426662999438,uk5,669.8017117000418,673.2936634999933,681.1426662999438,None,True,3.0,['p'],False,0.375,0.5,0.25,1.0,1.0,0.9850568223215076,0.0399199646186828,unsucc_cost,1.0,1.0,680.1741250000196,None,uk5,1,2022-04-08_15h17.55.971,threat_forest,2021.2.3,60.134532979497365,True,11.0,0.35,0.375,-1.3425000000000002,-1.3225000000000002,1,0,1,0.3278622050356007,0.0399199646186828,0.375,0.375,0.5,0.75,-1.25,-1.125,1.875,1.875,0.0,1.0,-1.0,3.0,0,0,1,0.462437014802632,0.2485890221430623,0.5356740408202136,0.367122893929938,0.2323436746824455,0.5081980474636627,0.4419422673305264,0.24662929967727992,0.5075100217710463,0.40529334607037965,0.24103064970145519,0.48807047473996623,0.35147103906936694,0.2279391477648665,0.5135580606399612,0.5029406394759635,0.2499913526394724,0.5153860017158963,0.41422248195004613,0.24264221739718989,0.49054430101850627,0.2624734799421321,0.19358115226919928,0.5512492101857411,0.3479697099661619,0.22688679091222705,0.6237750617541624,0.3824504660232279,0.2361821070618437,0.5845591788344956
16.0,0.0,16.0,0.0,2.0,0.0,2.0,0.0,,,,left,2.0047563000116497,685.7165024999995,uk5,685.7165024999995,None,682.5555238999659,684.5698775999481,True,1.0,['p'],True,0.18,0.2,0.1,1.0,1.0,0.7058405977926203,0.0205546003417969,unsucc_cost,0.0,0.0,684.5698775999481,None,uk5,1,2022-04-08_15h17.55.971,threat_forest,2021.2.3,60.134532979497365,True,11.0,0.35,0.375,-1.3425000000000002,-1.3225000000000002,0,0,1,0.6955225072423502,0.0205546003417969,1.0,0.18,0.2,0.9,-1.7000000000000002,-1.5600000000000005,-0.5600000000000003,0.0,1.0,1.0,-1.0,1.0,1,0,0,0.3316073180597653,0.22164390466897493,0.48574740465302596,0.4346527352814124,0.24572973499379877,0.5222293868735125,0.4419422673305264,0.24662929967727992,0.5075100217710463,0.3434577954845525,0.2254945382054438,0.5829538902220937,0.28828215054885814,0.2051755522237836,0.5543529046241947,0.2974374526803986,0.20896841442339426,0.5040505223923721,0.2835001949230761,0.20312783440165397,0.5582789172262169,0.9999833219516507,1.6677770192003558e-05,0.31530532144651047,0.9834563137416354,0.016269992703349213,0.36097562918046466,0.2962804285008307,0.20849833618819485,0.5582402866921183
17.0,0.0,17.0,0.0,0.0,0.0,0.0,0.0,691.4501297000097,694.9481417000061,None,left,1.4383796999463812,696.4258320999797,uk5,691.4501297000097,694.9481417000061,696.4258320999797,None,False,5.0,['p'],False,0.4166666666666667,0.5,0.1666666666666666,1.0,1.0,0.9358932809493992,0.0479638815409865,wait_cost,1.0,4.0,,,uk5,1,2022-04-08_15h17.55.971,threat_forest,2021.2.3,60.134532979497365,False,16.0,0.4,0.375,-1.1033333333333333,-1.2229166666666669,1,1,0,0.3635172716951277,0.0479638815409865,0.4166666666666667,0.4166666666666667,0.5,0.8333333333333334,-0.9999999999999998,-0.9166666666666664,4.083333333333334,4.083333333333334,0.0,1.0,-1.0,5.0,0,1,1,0.462437014802632,0.2485890221430623,0.5356740408202136,0.40417792103698036,0.2408181291832048,0.5170810156146901,0.4419422673305264,0.24662929967727992,0.5075100217710463,0.40529334607037965,0.24103064970145519,0.48807047473996623,0.3891652530288564,0.23771565886384258,0.49603748730728797,0.5029406394759635,0.2499913526394724,0.5153860017158963,0.4446105259031303,0.24693200615927222,0.48319084707631454,0.2624734799421321,0.19358115226919928,0.5512492101857411,0.4221941504950927,0.2439462497828197,0.645061189685705,0.42095340825428373,0.2437516363333861,0.5917555114936394
17.0,0.0,17.0,0.0,1.0,0.0,1.0,0.0,,,,right,2.016445999965072,701.0025411000242,uk5,701.0025411000242,None,697.8914135999512,699.9053358000237,False,4.0,['p'],True,0.27,0.3,0.1,1.0,1.0,0.7963326591781347,0.0059453945132201,wait_cost,0.0,3.0,699.9053358000237,None,uk5,1,2022-04-08_15h17.55.971,threat_forest,2021.2.3,60.134532979497365,False,16.0,0.4,0.375,-1.1033333333333333,-1.2229166666666669,0,0,0,0.7013365558827479,0.0059453945132201,0.27,0.27,0.3,0.9,-1.4,-1.29,2.71,2.71,1.0,1.0,-1.0,4.0,0,0,0,0.3316073180597653,0.22164390466897493,0.48574740465302596,0.4346527352814124,0.24572973499379877,0.5222293868735125,0.4419422673305264,0.24662929967727992,0.5075100217710463,0.3636012473459366,0.23139538027441564,0.5469157831405107,0.3296798242739255,0.22099103774063908,0.5260098310077879,0.2974374526803986,0.20896841442339426,0.5040505223923721,0.34092319543887756,0.22469457025062245,0.5213097312022825,0.2624734799421321,0.19358115226919928,0.5512492101857411,0.19469811026589415,0.15679075612478388,0.5363119613535137,0.23935733713548613,0.1820654022948954,0.5331105621571369
17.0,0.0,17.0,0.0,2.0,0.0,2.0,0.0,,,,right,2.609275799943134,706.5975437000161,uk5,703.0456327999709,705.051163099939,706.5975437000161,None,True,3.0,['p'],False,0.4166666666666667,0.5,0.1666666666666666,1.0,1.0,0.9358932809493992,0.0673778190072015,unsucc_cost,1.0,1.0,705.051163099939,None,uk5,1,2022-04-08_15h17.55.971,threat_forest,2021.2.3,60.134532979497365,True,16.0,0.4,0.375,-1.1033333333333333,-1.2229166666666669,1,1,1,0.9590727115461668,0.0673778190072015,0.4166666666666667,0.4166666666666667,0.5,0.8333333333333334,-0.9999999999999998,-0.9166666666666664,2.083333333333333,2.083333333333333,0.0,1.0,-1.0,3.0,0,1,1,0.462437014802632,0.2485890221430623,0.5356740408202136,0.40417792103698036,0.2408181291832048,0.5170810156146901,0.4419422673305264,0.24662929967727992,0.5075100217710463,0.40529334607037965,0.24103064970145519,0.48807047473996623,0.3891652530288564,0.23771565886384258,0.49603748730728797,0.5029406394759635,0.2499913526394724,0.5153860017158963,0.4446105259031303,0.24693200615927222,0.48319084707631454,0.2624734799421321,0.19358115226919928,0.5512492101857411,0.4221941504950927,0.2439462497828197,0.645061189685705,0.5169985928450839,0.2497110478412871,0.597421109197953
17.0,0.0,17.0,0.0,3.0,0.0,3.0,0.0,,,,right,0.8088733999757096,712.9817762000021,uk5,703.0456327999709,705.051163099939,712.9817762000021,None,True,1.0,['p'],False,0.4166666666666667,0.5,0.1666666666666666,1.0,1.0,0.9358932809493992,0.0748196450617284,unsucc_cost,1.0,0.0,711.2450404999545,None,uk5,1,2022-04-08_15h17.55.971,threat_forest,2021.2.3,60.134532979497365,True,16.0,0.4,0.375,-1.1033333333333333,-1.2229166666666669,1,1,1,-0.212112863692635,0.0748196450617284,1.0,0.4166666666666667,0.5,0.8333333333333334,-0.9999999999999998,-0.9166666666666664,0.0833333333333334,0.0833333333333334,0.0,1.0,-1.0,1.0,1,1,1,0.462437014802632,0.2485890221430623,0.5356740408202136,0.40417792103698036,0.2408181291832048,0.5170810156146901,0.4419422673305264,0.24662929967727992,0.5075100217710463,0.40529334607037965,0.24103064970145519,0.48807047473996623,0.3891652530288564,0.23771565886384258,0.49603748730728797,0.5029406394759635,0.2499913526394724,0.5153860017158963,0.4446105259031303,0.24693200615927222,0.48319084707631454,0.9999833219516507,1.6677770192003558e-05,0.31530532144651047,0.9834563137416354,0.016269992703349213,0.36097562918046466,0.5538704560289651,0.24709797396723135,0.5949368663624945
0.0,0.0,0.0,0.0,0.0,0.0,0.0,0.0,17.710009700036608,21.224465499981303,None,left,2.2250193000072613,23.845250400016084,uk5,17.710009700036608,21.224465499981306,23.845250400016084,None,False,4.0,['r'],False,0.25,0.25,0.0,0.0,2.0,0.5118595071429148,0.0318177712615933,wait_cost,1.0,3.0,,,uk5,2,2022-04-08_15h29.53.439,threat_forest,2021.2.3,60.04960099857641,False,34.0,0.4583333333333333,0.4291666666666667,-1.3888888888888888,-1.246111111111111,1,0,0,0.7997655897411501,0.0318177712615933,0.25,0.25,0.25,1.0,-1.0,-1.0,3.0,3.0,0.0,2.0,-1.0,4.0,0,0,1,0.462437014802632,0.2485890221430623,0.5356740408202136,0.48123343420966636,0.24964781600843708,0.5263363401721655,0.4419422673305264,0.24662929967727992,0.5075100217710463,0.3534644793337362,0.228527341183067,0.5644317069154707,0.3891652530288564,0.23771565886384252,0.496037487307288,0.5029406394759635,0.2499913526394724,0.5153860017158963,0.3276717198470536,0.22030296385952763,0.5288377185042668,0.2624734799421321,0.19358115226919928,0.5512492101857411,0.17213309179646766,0.1425032905050565,0.5184846185693126,0.345106214618833,0.22600791525029298,0.5748865999742601
